,Time,Roll1,Pitch1,Yaw1,AccX1,AccY1,AccZ1,RotX1,RotY1,RotZ1,Roll2,Pitch2,Yaw2,AccX2,AccY2,AccZ2,RotX2,RotY2,RotZ2
0,1900-01-01 12:00:10.323,9.78,11.93,-6.51,0.2,0.16,0.92,-1.61,1.55,-0.23,13.15,9.07,20.24,0.16,0.23,0.97,-1.2,-0.2,-1.22
1,1900-01-01 12:00:10.363,9.53,11.87,-6.56,0.2,0.16,0.92,-1.31,1.27,-0.1,12.88,8.92,20.21,0.16,0.23,0.98,-0.44,-0.27,-0.94
2,1900-01-01 12:00:10.443,9.68,11.8,-6.58,0.2,0.16,0.93,-1.0,1.35,-0.32,13.24,8.99,20.23,0.16,0.23,0.97,-0.6,-0.05,-1.46
3,1900-01-01 12:00:10.523,9.51,11.73,-6.64,0.2,0.16,0.93,-1.38,1.22,-0.21,12.7,8.95,20.16,0.16,0.22,0.98,-1.02,-0.12,-1.12
4,1900-01-01 12:00:10.603,9.57,12.25,-6.68,0.2,0.16,0.93,-1.09,1.11,-0.11,12.97,9.41,20.15,0.17,0.23,0.97,-0.42,-0.59,-0.85
5,1900-01-01 12:00:10.683,9.68,11.94,-6.71,0.2,0.16,0.93,-1.73,1.41,-0.11,12.73,9.22,20.18,0.16,0.22,0.98,-1.2,-0.42,-0.89
6,1900-01-01 12:00:10.758,9.95,12.05,-6.73,0.2,0.17,0.93,-1.54,1.07,0.01,13.05,9.32,20.2,0.16,0.23,0.98,-0.9,-0.65,-0.83
7,1900-01-01 12:00:10.833,10.03,11.96,-6.74,0.2,0.17,0.92,-1.4,1.19,0.14,13.17,9.21,20.23,0.16,0.23,0.97,-0.47,-0.21,-0.76
8,1900-01-01 12:00:10.913,9.46,11.9,-6.73,0.2,0.16,0.93,-1.16,1.38,0.2,12.75,9.35,20.27,0.16,0.22,0.97,-0.57,-0.12,-0.63
9,1900-01-01 12:00:10.993,9.2,11.84,-6.7,0.2,0.15,0.93,-1.45,1.27,0.17,12.53,9.28,20.34,0.16,0.22,0.97,-0.79,-0.54,-0.56
10,1900-01-01 12:00:11.073,9.5,11.9,-6.69,0.2,0.16,0.93,-1.66,1.24,0.05,12.8,9.27,20.41,0.16,0.22,0.97,-0.86,-0.43,-0.7
11,1900-01-01 12:00:11.153,9.61,11.83,-6.69,0.2,0.16,0.93,-0.99,1.34,-0.07,12.6,9.18,20.46,0.16,0.22,0.97,-0.11,-0.24,-0.85
12,1900-01-01 12:00:11.233,9.33,11.72,-6.71,0.19,0.16,0.93,-1.18,1.2,-0.09,12.57,8.83,20.49,0.16,0.22,0.98,-0.89,-0.48,-0.86
13,1900-01-01 12:00:11.273,9.32,12.07,-6.73,0.2,0.16,0.92,-1.92,1.28,-0.23,12.48,9.57,20.52,0.17,0.22,0.96,-1.83,-1.47,-0.7
14,1900-01-01 12:00:11.393,9.93,11.85,-6.77,0.2,0.17,0.93,-1.24,1.38,0.02,13.02,9.05,20.57,0.16,0.23,0.98,-0.78,0.12,-0.83
15,1900-01-01 12:00:11.433,9.48,12.01,-6.78,0.2,0.16,0.93,-1.09,0.75,0.08,12.57,9.33,20.6,0.17,0.22,0.98,-0.39,-0.92,-0.82
16,1900-01-01 12:00:11.513,9.38,12.0,-6.77,0.2,0.16,0.93,-1.56,1.05,0.37,12.65,9.58,20.63,0.17,0.22,0.97,-0.51,-0.55,-0.51
17,1900-01-01 12:00:11.593,9.28,11.94,-6.73,0.2,0.15,0.92,-0.99,1.02,0.1,12.29,9.63,20.71,0.17,0.21,0.97,-0.24,-0.61,-0.92
18,1900-01-01 12:00:11.673,9.19,11.74,-6.72,0.19,0.15,0.92,-1.68,1.17,-0.03,12.33,9.26,20.73,0.16,0.22,0.97,-1.3,-0.8,-0.82
19,1900-01-01 12:00:11.748,9.15,12.03,-6.73,0.2,0.15,0.92,-1.72,1.37,-0.3,12.59,9.56,20.77,0.17,0.22,0.97,-1.31,-0.61,-1.08
20,1900-01-01 12:00:11.823,9.18,12.07,-6.79,0.2,0.15,0.93,-1.56,1.61,-0.39,12.47,9.59,20.76,0.17,0.22,0.97,-0.66,0.01,-1.63
21,1900-01-01 12:00:11.899,9.29,11.86,-6.85,0.2,0.16,0.93,-0.96,1.24,-0.27,12.4,9.17,20.67,0.16,0.22,0.98,-0.02,-0.07,-1.25
22,1900-01-01 12:00:11.983,9.79,11.83,-6.91,0.2,0.16,0.92,-0.24,1.18,-0.36,12.95,9.43,20.64,0.16,0.23,0.96,0.67,-0.18,-1.08
23,1900-01-01 12:00:12.063,9.3,11.95,-6.97,0.2,0.16,0.93,-0.69,1.43,-0.31,12.23,9.53,20.63,0.17,0.21,0.97,0.15,-0.18,-1.11
24,1900-01-01 12:00:12.143,9.11,11.85,-7.02,0.2,0.15,0.93,-0.79,1.4,-0.37,12.19,9.23,20.62,0.16,0.22,0.99,-0.23,-0.09,-1.23
25,1900-01-01 12:00:12.218,9.58,11.77,-7.09,0.2,0.16,0.93,-0.93,1.26,-0.28,12.88,9.29,20.59,0.16,0.23,0.98,-0.82,-0.13,-1.24
26,1900-01-01 12:00:12.299,9.48,11.89,-7.14,0.2,0.16,0.93,-1.1,0.74,-0.15,12.59,9.34,20.56,0.17,0.22,0.98,-0.54,-0.87,-0.89
27,1900-01-01 12:00:12.343,9.5,12.23,-7.17,0.2,0.16,0.92,-1.72,1.11,-0.06,12.8,9.7,20.59,0.17,0.22,0.97,-0.89,-0.71,-0.82
28,1900-01-01 12:00:12.423,9.86,12.1,-7.19,0.2,0.16,0.92,-1.39,1.24,-0.14,12.65,9.64,20.62,0.17,0.22,0.97,-0.43,-0.47,-0.92
29,1900-01-01 12:00:12.500,9.74,11.8,-7.22,0.2,0.16,0.93,-1.31,1.34,0.11,12.97,9.31,20.64,0.16,0.23,0.97,-0.42,-0.32,-0.71
30,1900-01-01 12:00:12.583,9.54,11.92,-7.21,0.2,0.16,0.92,-0.85,1.15,-0.06,12.46,9.55,20.69,0.17,0.22,0.97,-0.4,-0.47,-0.83
31,1900-01-01 12:00:12.663,9.65,11.92,-7.23,0.2,0.16,0.92,-1.05,1.03,-0.11,12.67,9.41,20.72,0.16,0.22,0.97,-0.65,-0.49,-1.04
32,1900-01-01 12:00:12.743,9.54,11.82,-7.25,0.2,0.16,0.93,-0.98,1.5,-0.01,12.69,9.39,20.72,0.16,0.22,0.97,0.02,-0.06,-0.86
33,1900-01-01 12:00:12.833,9.59,11.89,-7.26,0.2,0.16,0.93,-1.31,1.27,-0.11,12.88,9.38,20.75,0.17,0.23,0.98,-0.56,-0.24,-1.02
34,1900-01-01 12:00:12.913,9.37,11.85,-7.29,0.2,0.16,0.93,-1.44,1.53,0.12,12.49,9.44,20.75,0.17,0.22,0.98,-0.95,-0.04,-0.72
35,1900-01-01 12:00:12.953,9.54,11.89,-7.28,0.2,0.16,0.93,-1.51,1.08,0.02,12.44,9.54,20.8,0.17,0.22,0.98,-0.83,-0.57,-0.82
36,1900-01-01 12:00:13.033,10.09,12.1,-7.28,0.2,0.17,0.92,-1.87,0.98,0.19,13.12,9.72,20.83,0.17,0.23,0.96,-0.8,-1.01,-0.5
37,1900-01-01 12:00:13.113,9.48,11.86,-7.26,0.2,0.16,0.92,-1.2,1.63,0.1,12.55,9.63,20.92,0.17,0.22,0.97,-0.33,-0.02,-0.73
38,1900-01-01 12:00:13.193,9.44,11.62,-7.26,0.19,0.16,0.93,-1.02,1.14,-0.12,12.39,9.24,20.96,0.16,0.22,0.98,-0.79,-0.34,-1.04
39,1900-01-01 12:00:13.273,9.03,12.13,-7.28,0.2,0.15,0.93,-1.47,1.34,0.23,12.41,9.71,20.96,0.17,0.22,0.97,-0.69,-0.2,-0.59
40,1900-01-01 12:00:13.353,9.63,11.73,-7.26,0.2,0.16,0.93,-1.74,1.35,0.07,12.54,9.35,21.03,0.16,0.22,0.98,-0.6,0.05,-0.66
41,1900-01-01 12:00:13.433,9.51,11.9,-7.26,0.2,0.16,0.93,-1.34,1.13,-0.01,12.49,9.55,21.09,0.17,0.22,0.97,-0.22,-0.52,-0.82
42,1900-01-01 12:00:13.513,9.42,12.07,-7.27,0.2,0.16,0.93,-1.24,1.21,0.05,12.44,9.72,21.13,0.17,0.22,0.97,-0.55,-0.17,-0.85
43,1900-01-01 12:00:13.583,9.47,11.92,-7.27,0.2,0.16,0.93,-1.02,1.09,0.24,12.54,9.61,21.16,0.17,0.22,0.98,-0.17,-0.1,-0.76
44,1900-01-01 12:00:13.663,9.39,11.96,-7.24,0.2,0.16,0.92,-0.68,1.09,0.27,12.44,9.59,21.2,0.17,0.22,0.97,-0.02,-0.32,-0.66
45,1900-01-01 12:00:13.743,8.78,11.89,-7.21,0.2,0.15,0.93,-1.78,1.2,0.24,12.02,9.62,21.26,0.17,0.21,0.98,-1.42,-0.52,-0.39
46,1900-01-01 12:00:13.823,9.2,11.99,-7.18,0.2,0.15,0.93,-1.58,1.05,0.11,12.32,9.6,21.35,0.17,0.22,0.98,-0.98,-0.55,-0.77
47,1900-01-01 12:00:13.863,9.31,11.79,-7.17,0.2,0.16,0.93,-1.79,1.0,0.12,12.65,9.44,21.4,0.17,0.22,0.98,-0.88,-0.53,-0.67
48,1900-01-01 12:00:13.943,9.44,12.18,-7.16,0.2,0.16,0.92,-1.46,1.03,0.02,12.54,9.73,21.45,0.17,0.22,0.96,-0.66,-0.68,-0.66
49,1900-01-01 12:00:14.023,9.19,11.86,-7.16,0.2,0.15,0.93,-1.02,1.73,0.11,12.48,9.52,21.51,0.17,0.22,0.97,-0.69,0.44,-0.89
50,1900-01-01 12:00:14.103,9.14,11.74,-7.16,0.2,0.15,0.94,-1.07,0.89,-0.05,12.08,9.35,21.53,0.17,0.21,0.99,-0.26,-0.73,-0.8
51,1900-01-01 12:00:14.183,9.14,12.39,-7.17,0.21,0.15,0.93,-1.15,1.42,0.26,12.55,9.88,21.57,0.17,0.22,0.97,0.11,-0.47,-0.53
52,1900-01-01 12:00:14.263,8.83,12.14,-7.14,0.2,0.15,0.93,-1.66,1.18,-0.05,11.65,9.75,21.65,0.17,0.2,0.97,-1.01,-0.47,-0.76
53,1900-01-01 12:00:14.343,9.19,12.2,-7.16,0.2,0.15,0.93,-1.61,1.28,0.21,12.77,9.63,21.69,0.17,0.22,0.97,-0.85,-0.53,-0.62
54,1900-01-01 12:00:14.423,8.89,12.16,-7.13,0.2,0.15,0.93,-1.5,1.25,0.11,12.03,9.74,21.75,0.17,0.21,0.98,-0.96,-0.17,-0.75
55,1900-01-01 12:00:14.503,9.13,12.04,-7.13,0.2,0.15,0.93,-1.29,1.05,0.12,12.31,9.69,21.8,0.17,0.22,0.98,-0.64,-0.6,-0.69
56,1900-01-01 12:00:14.583,8.82,11.91,-7.11,0.2,0.15,0.93,-1.5,1.11,0.35,11.97,9.62,21.85,0.17,0.21,0.98,-0.68,-0.41,-0.44
57,1900-01-01 12:00:14.663,8.86,11.89,-7.07,0.2,0.15,0.92,-1.53,1.08,-0.17,11.99,9.65,21.94,0.17,0.21,0.97,-0.79,-0.5,-0.92
58,1900-01-01 12:00:14.703,9.2,12.0,-7.1,0.2,0.15,0.92,-1.63,1.27,-0.18,12.46,9.68,21.96,0.17,0.22,0.97,-0.68,0.11,-1.1
59,1900-01-01 12:00:14.783,9.07,11.95,-7.14,0.2,0.15,0.93,-1.02,1.32,-0.44,12.0,9.49,21.95,0.17,0.21,0.98,-0.21,-0.18,-1.35
60,1900-01-01 12:00:14.863,9.22,12.46,-7.22,0.21,0.15,0.92,-1.05,1.45,-0.31,12.11,10.08,21.9,0.18,0.21,0.97,-0.28,-0.1,-1.19
61,1900-01-01 12:00:14.943,9.27,11.91,-7.27,0.2,0.16,0.93,-0.39,1.51,-0.13,12.52,9.61,21.88,0.17,0.22,0.98,-0.03,0.36,-1.22
62,1900-01-01 12:00:15.023,9.03,12.15,-7.3,0.2,0.15,0.93,-0.85,0.95,-0.12,12.21,9.75,21.85,0.17,0.21,0.97,-0.62,-0.6,-0.85
63,1900-01-01 12:00:15.103,8.98,12.09,-7.33,0.2,0.15,0.93,-1.09,1.22,-0.19,12.3,9.74,21.88,0.17,0.22,0.97,-0.28,-0.44,-1.01
64,1900-01-01 12:00:15.183,9.2,11.99,-7.36,0.2,0.15,0.93,-1.14,1.21,-0.27,12.33,9.66,21.89,0.17,0.22,0.97,-0.35,-0.29,-1.14
65,1900-01-01 12:00:15.263,9.35,12.03,-7.41,0.2,0.16,0.93,-1.32,1.42,-0.06,12.48,9.53,21.87,0.17,0.22,0.98,-0.35,-0.12,-0.89
66,1900-01-01 12:00:15.343,9.25,12.03,-7.43,0.2,0.15,0.93,-1.09,1.29,-0.09,12.37,9.71,21.9,0.17,0.22,0.98,-0.35,-0.19,-0.97
67,1900-01-01 12:00:15.423,9.27,12.24,-7.46,0.2,0.15,0.93,-1.16,1.21,-0.05,12.79,9.71,21.91,0.17,0.22,0.97,-0.8,-0.47,-0.94
68,1900-01-01 12:00:15.463,8.92,11.99,-7.47,0.2,0.15,0.93,-1.45,1.18,0.08,12.04,9.58,21.92,0.17,0.21,0.98,-1.06,-0.39,-0.73
69,1900-01-01 12:00:15.543,9.01,12.06,-7.47,0.2,0.15,0.93,-1.34,1.03,-0.05,12.36,9.61,21.97,0.17,0.22,0.98,-0.87,-0.69,-0.83
70,1900-01-01 12:00:15.623,8.96,12.09,-7.48,0.2,0.15,0.93,-1.53,1.27,-0.03,12.28,9.66,22.0,0.17,0.21,0.97,-0.98,-0.44,-0.73
71,1900-01-01 12:00:15.703,9.14,11.95,-7.5,0.2,0.15,0.93,-1.42,1.08,-0.24,12.27,9.45,22.05,0.17,0.21,0.97,-0.94,-0.53,-1.11
72,1900-01-01 12:00:15.780,9.42,12.35,-7.54,0.2,0.16,0.92,-1.52,1.28,-0.13,12.63,9.86,22.04,0.17,0.22,0.96,-0.69,-0.62,-0.92
73,1900-01-01 12:00:15.874,9.69,11.84,-7.57,0.2,0.16,0.93,-1.21,1.44,0.06,12.65,9.42,22.05,0.17,0.22,0.98,-0.26,-0.1,-0.84
74,1900-01-01 12:00:15.920,9.13,12.02,-7.57,0.2,0.15,0.93,-1.25,0.85,-0.15,12.35,9.35,22.08,0.17,0.22,0.98,-0.68,-0.64,-0.99
75,1900-01-01 12:00:16.014,8.8,12.04,-7.6,0.2,0.15,0.93,-1.54,1.34,0.11,12.23,9.71,22.09,0.17,0.21,0.97,-0.87,-0.12,-0.78
76,1900-01-01 12:00:16.106,9.16,12.13,-7.59,0.2,0.15,0.93,-1.83,1.18,-0.22,12.5,9.68,22.13,0.17,0.22,0.98,-1.05,-0.36,-1.23
77,1900-01-01 12:00:16.152,9.3,11.91,-7.63,0.2,0.16,0.93,-1.6,1.29,0.15,12.74,9.54,22.1,0.17,0.22,0.97,-0.76,-0.58,-0.56
78,1900-01-01 12:00:16.246,9.21,12.2,-7.62,0.2,0.15,0.93,-1.34,1.21,-0.2,12.18,9.75,22.17,0.17,0.21,0.97,-0.83,-0.32,-1.02
79,1900-01-01 12:00:16.338,9.37,12.11,-7.66,0.2,0.16,0.92,-0.65,1.36,0.07,12.45,9.8,22.18,0.17,0.22,0.97,-0.21,-0.33,-0.78
80,1900-01-01 12:00:16.385,8.93,11.96,-7.66,0.2,0.15,0.93,-1.24,1.4,0.22,11.98,9.68,22.22,0.17,0.21,0.97,-0.56,-0.1,-0.55
81,1900-01-01 12:00:16.479,8.99,11.85,-7.63,0.2,0.15,0.93,-0.99,1.31,-0.02,11.81,9.61,22.29,0.17,0.21,0.98,-0.4,-0.18,-0.85
82,1900-01-01 12:00:16.525,9.06,11.94,-7.64,0.2,0.15,0.93,-1.47,1.1,-0.18,12.23,9.63,22.32,0.17,0.21,0.98,-0.8,-0.47,-1.07
83,1900-01-01 12:00:16.617,9.24,12.04,-7.68,0.2,0.16,0.93,-1.67,1.31,-0.23,12.37,9.6,22.32,0.17,0.22,0.97,-0.84,-0.31,-1.08
84,1900-01-01 12:00:16.712,8.88,12.36,-7.72,0.2,0.15,0.92,-1.53,1.31,0.04,12.29,9.77,22.31,0.17,0.22,0.98,-0.92,-0.29,-0.77
85,1900-01-01 12:00:16.758,9.35,11.96,-7.73,0.2,0.16,0.93,-1.01,1.48,0.08,12.85,9.63,22.35,0.17,0.22,0.97,-0.85,0.18,-0.98
86,1900-01-01 12:00:16.851,9.29,11.99,-7.72,0.2,0.16,0.93,-1.4,1.11,0.33,12.27,9.6,22.36,0.17,0.22,0.98,-0.4,-0.37,-0.35
87,1900-01-01 12:00:16.945,9.16,12.12,-7.68,0.2,0.15,0.93,-1.56,1.02,0.14,12.29,9.77,22.47,0.17,0.22,0.97,-0.32,-0.56,-0.55
88,1900-01-01 12:00:16.993,9.28,11.99,-7.67,0.2,0.15,0.92,-1.24,1.25,-0.03,11.99,9.62,22.54,0.17,0.21,0.97,-0.25,-0.31,-0.76
89,1900-01-01 12:00:17.086,9.16,12.03,-7.68,0.2,0.15,0.92,-0.73,1.23,-0.34,12.36,9.64,22.58,0.17,0.22,0.97,-0.27,-0.24,-1.44
90,1900-01-01 12:00:17.179,9.03,12.15,-7.74,0.2,0.15,0.93,-1.12,1.73,-0.2,12.16,9.97,22.52,0.17,0.21,0.97,-0.99,0.35,-1.33
91,1900-01-01 12:00:17.227,9.2,12.05,-7.78,0.2,0.15,0.93,-1.12,1.43,-0.02,12.49,9.48,22.48,0.17,0.22,0.98,-0.37,-0.1,-1.02
92,1900-01-01 12:00:17.319,9.3,11.86,-7.79,0.2,0.16,0.93,-1.15,1.26,0.26,12.4,9.46,22.48,0.17,0.22,0.98,-0.31,-0.3,-0.57
93,1900-01-01 12:00:17.366,9.04,11.98,-7.76,0.2,0.15,0.93,-1.1,1.14,0.2,12.17,9.55,22.55,0.17,0.21,0.97,-0.19,-0.37,-0.66
94,1900-01-01 12:00:17.458,9.19,11.8,-7.74,0.2,0.15,0.93,-1.13,1.29,-0.08,12.18,9.6,22.61,0.17,0.21,0.97,-0.41,-0.2,-0.96
95,1900-01-01 12:00:17.551,9.18,12.01,-7.76,0.2,0.15,0.93,-1.39,1.43,0.01,12.35,9.5,22.62,0.17,0.22,0.97,-0.66,-0.22,-0.79
96,1900-01-01 12:00:17.598,9.51,12.01,-7.77,0.2,0.16,0.92,-1.18,1.67,-0.07,11.95,9.58,22.66,0.17,0.21,0.97,-0.26,0.02,-0.82
97,1900-01-01 12:00:17.692,9.68,11.6,-7.79,0.19,0.16,0.93,-1.21,1.6,0.24,12.31,9.21,22.69,0.16,0.22,0.98,-0.38,0.18,-0.62
98,1900-01-01 12:00:17.783,9.19,11.71,-7.76,0.2,0.15,0.93,-0.94,1.23,0.08,12.14,9.35,22.76,0.16,0.21,0.98,-0.47,-0.16,-0.85
99,1900-01-01 12:00:17.830,8.96,11.77,-7.75,0.2,0.15,0.92,-1.27,1.04,0.27,12.13,9.34,22.79,0.16,0.21,0.97,-0.66,-0.64,-0.5
100,1900-01-01 12:00:17.925,9.03,11.65,-7.72,0.19,0.15,0.92,-1.57,1.29,-0.03,12.22,9.2,22.87,0.16,0.21,0.97,-1.18,-0.34,-0.96
101,1900-01-01 12:00:17.970,9.04,11.96,-7.73,0.2,0.15,0.93,-1.47,1.4,0.0,11.93,9.43,22.88,0.17,0.21,0.97,-0.55,-0.19,-0.85
102,1900-01-01 12:00:18.064,9.25,11.71,-7.74,0.19,0.15,0.93,-1.29,1.25,-0.2,12.18,9.29,22.91,0.16,0.21,0.98,-0.53,-0.32,-1.09
103,1900-01-01 12:00:18.157,9.08,11.85,-7.78,0.2,0.15,0.93,-0.73,1.55,-0.11,12.16,9.41,22.9,0.17,0.21,0.97,0.08,0.08,-1.01
104,1900-01-01 12:00:18.205,8.93,11.71,-7.8,0.2,0.15,0.93,-1.06,1.29,-0.15,11.58,9.34,22.91,0.16,0.2,0.98,-0.58,-0.22,-1.05
105,1900-01-01 12:00:18.298,9.32,11.56,-7.84,0.19,0.16,0.93,-1.14,1.21,-0.1,12.29,9.18,22.91,0.16,0.22,0.98,-0.54,-0.25,-1.06
106,1900-01-01 12:00:18.393,8.49,11.39,-7.86,0.18,0.14,0.9,0.23,3.31,-0.45,12.18,9.78,22.91,0.16,0.2,0.9,9.44,6.53,-5.64
107,1900-01-01 12:00:18.438,9.82,10.6,-7.94,0.18,0.16,0.93,-3.46,5.44,-0.35,15.22,6.63,22.21,0.12,0.27,1.0,-11.21,1.08,0.27
108,1900-01-01 12:00:18.531,9.87,11.55,-8.0,0.2,0.17,0.97,1.7,-1.73,-0.77,12.48,7.9,22.41,0.15,0.24,1.07,3.89,-2.97,-1.56
109,1900-01-01 12:00:18.624,9.29,11.89,-8.12,0.2,0.16,0.94,-1.6,-1.21,0.54,12.9,9.37,22.33,0.17,0.23,0.98,-0.49,-3.88,-0.24
110,1900-01-01 12:00:18.671,9.04,11.71,-8.05,0.19,0.15,0.91,-2.06,0.24,0.85,11.84,9.28,22.45,0.16,0.2,0.96,-1.37,-1.84,0.27
111,1900-01-01 12:00:18.764,9.35,11.52,-7.93,0.19,0.15,0.9,-1.31,0.78,-0.09,12.33,9.09,22.65,0.15,0.21,0.94,-1.07,-1.3,-0.87
112,1900-01-01 12:00:18.810,9.71,11.47,-7.95,0.19,0.16,0.91,-0.45,1.43,-0.6,12.75,8.94,22.68,0.15,0.22,0.95,-0.11,-0.18,-1.5
113,1900-01-01 12:00:18.904,9.71,11.72,-8.05,0.19,0.16,0.91,0.11,2.1,-1.17,12.56,9.1,22.61,0.16,0.22,0.95,0.45,0.92,-2.15
114,1900-01-01 12:00:18.996,9.9,11.55,-8.24,0.19,0.16,0.92,0.76,2.37,-1.12,12.79,8.81,22.44,0.15,0.22,0.97,1.05,1.32,-2.17
115,1900-01-01 12:00:19.043,10.29,11.52,-8.41,0.19,0.17,0.92,1.31,2.35,-1.05,13.05,8.62,22.27,0.15,0.23,0.98,1.93,1.15,-1.94
116,1900-01-01 12:00:19.137,10.77,11.34,-8.58,0.19,0.18,0.93,0.92,2.29,-0.81,13.46,8.38,22.13,0.15,0.24,0.99,1.37,1.6,-2.0
117,1900-01-01 12:00:19.231,12.13,11.19,-8.71,0.19,0.2,0.92,1.31,1.53,-0.56,15.12,8.16,21.99,0.14,0.26,0.97,1.23,0.37,-1.69
118,1900-01-01 12:00:19.278,13.85,10.89,-8.81,0.17,0.22,0.88,3.04,2.63,0.13,16.05,8.42,21.89,0.14,0.27,0.92,2.66,1.34,-0.8
119,1900-01-01 12:00:19.369,15.86,9.39,-8.8,0.15,0.24,0.85,7.53,4.45,0.21,17.92,6.34,21.93,0.1,0.28,0.86,6.33,4.43,-1.31
120,1900-01-01 12:00:19.416,13.34,9.56,-8.77,0.16,0.22,0.92,6.01,4.28,1.24,16.0,5.72,21.89,0.1,0.28,0.97,3.53,8.72,-3.08
121,1900-01-01 12:00:19.546,12.98,9.62,-8.59,0.17,0.23,0.97,3.52,1.9,-0.95,13.26,5.8,21.58,0.11,0.25,1.04,3.6,4.23,-3.87
122,1900-01-01 12:00:19.603,13.42,10.31,-8.75,0.18,0.24,0.97,1.69,-3.05,-3.34,13.51,5.88,21.15,0.11,0.26,1.06,1.81,-4.57,-5.15
123,1900-01-01 12:00:19.651,16.0,10.89,-9.26,0.18,0.26,0.88,2.11,-0.25,-2.54,17.98,6.18,20.53,0.1,0.3,0.91,2.22,-1.01,-4.76
124,1900-01-01 12:00:19.755,15.95,9.92,-9.66,0.16,0.26,0.9,0.76,2.32,-2.18,16.83,5.55,19.96,0.1,0.29,0.94,0.93,0.49,-4.21
125,1900-01-01 12:00:19.838,17.06,10.83,-10.0,0.19,0.29,0.93,0.22,0.62,-2.19,17.85,6.13,19.48,0.11,0.32,0.98,3.18,-3.11,-2.09
126,1900-01-01 12:00:19.884,17.29,10.43,-10.34,0.18,0.29,0.91,-0.23,0.23,-1.51,19.43,6.03,19.32,0.11,0.34,0.95,1.14,-2.08,-2.41
127,1900-01-01 12:00:19.977,17.16,10.24,-10.58,0.17,0.28,0.9,-1.47,1.63,-1.07,18.95,5.76,19.11,0.1,0.32,0.94,-0.01,-1.32,-1.84
128,1900-01-01 12:00:20.061,16.65,10.71,-10.75,0.18,0.28,0.92,-0.54,2.24,-0.26,17.87,6.52,18.99,0.12,0.31,0.97,0.38,-0.36,-1.35
129,1900-01-01 12:00:20.152,17.44,9.82,-10.8,0.16,0.29,0.9,-0.64,1.65,0.22,19.02,6.16,18.94,0.11,0.33,0.95,-0.73,0.05,-0.93
130,1900-01-01 12:00:20.176,17.75,9.74,-10.78,0.16,0.29,0.9,-0.75,1.83,0.18,19.13,5.55,18.95,0.1,0.33,0.94,-0.69,0.82,-0.89
131,1900-01-01 12:00:20.264,17.36,9.96,-10.76,0.17,0.29,0.91,-1.24,2.15,0.68,18.75,5.67,18.98,0.1,0.33,0.96,-1.32,1.39,-1.03
132,1900-01-01 12:00:20.334,17.46,9.63,-10.66,0.16,0.29,0.9,-0.92,2.76,1.17,18.59,5.2,18.98,0.09,0.32,0.95,-1.27,1.32,-0.47
133,1900-01-01 12:00:20.433,16.58,9.13,-10.49,0.15,0.28,0.92,-2.15,2.12,2.26,17.79,4.43,19.07,0.08,0.32,0.99,-2.73,1.18,1.95
134,1900-01-01 12:00:20.528,17.03,9.68,-10.16,0.16,0.29,0.92,-0.61,-0.91,1.8,16.89,5.59,19.52,0.1,0.3,0.99,-0.57,-4.11,2.13
135,1900-01-01 12:00:20.628,17.21,10.81,-9.89,0.18,0.28,0.89,-3.48,-1.47,1.08,18.12,7.04,20.0,0.12,0.31,0.94,-0.96,-3.63,1.6
136,1900-01-01 12:00:20.675,17.51,10.66,-9.74,0.17,0.28,0.88,-3.68,0.24,0.12,17.84,7.07,20.41,0.12,0.3,0.92,-2.64,-0.81,-1.52
137,1900-01-01 12:00:20.750,17.07,10.65,-9.73,0.18,0.28,0.89,-3.5,-0.21,0.08,18.29,6.43,20.33,0.11,0.31,0.94,-2.44,-2.15,-1.05
138,1900-01-01 12:00:20.816,17.08,10.23,-9.72,0.17,0.28,0.9,-2.83,-1.11,-0.47,17.43,6.42,20.33,0.11,0.3,0.95,-2.89,-2.45,-1.6
139,1900-01-01 12:00:20.863,16.62,11.12,-9.8,0.19,0.27,0.9,-1.94,0.36,-0.15,17.77,7.05,20.25,0.12,0.3,0.94,-0.96,-1.16,-1.32
140,1900-01-01 12:00:20.939,16.07,11.38,-9.83,0.19,0.27,0.9,-3.28,0.28,0.11,16.14,7.1,20.2,0.12,0.28,0.96,-2.64,-1.82,-0.72
141,1900-01-01 12:00:21.029,15.87,10.95,-9.82,0.18,0.26,0.91,-1.94,-0.75,-0.87,16.58,6.82,20.25,0.12,0.29,0.97,-1.34,-1.22,-2.51
142,1900-01-01 12:00:21.143,15.46,11.62,-9.97,0.19,0.25,0.89,-2.05,-0.51,-0.74,16.19,7.69,20.02,0.13,0.28,0.94,-0.75,-1.84,-2.06
143,1900-01-01 12:00:21.224,15.26,11.61,-10.09,0.19,0.25,0.9,-1.39,1.23,-1.6,16.15,7.5,19.87,0.13,0.28,0.94,-0.89,-0.19,-2.89
144,1900-01-01 12:00:21.252,15.89,11.22,-10.34,0.19,0.26,0.9,-1.37,1.78,-0.64,17.1,6.74,19.58,0.12,0.3,0.95,-1.25,0.85,-2.09
145,1900-01-01 12:00:21.337,15.55,11.55,-10.45,0.19,0.26,0.9,-0.92,1.7,-0.33,15.85,6.81,19.42,0.12,0.28,0.97,-0.1,1.34,-1.29
146,1900-01-01 12:00:21.411,15.51,12.46,-10.51,0.2,0.25,0.89,-0.74,0.98,-1.11,16.31,7.99,19.38,0.14,0.28,0.95,0.37,-0.45,-1.7
147,1900-01-01 12:00:21.511,16.4,11.94,-10.69,0.2,0.27,0.89,-0.46,0.27,-1.6,17.42,7.44,19.28,0.13,0.3,0.94,0.17,-1.67,-2.55
148,1900-01-01 12:00:21.563,16.46,12.05,-10.94,0.2,0.27,0.9,-0.05,0.63,-1.08,17.96,7.41,19.05,0.13,0.31,0.94,0.66,-2.02,-1.65
149,1900-01-01 12:00:21.655,15.84,12.53,-11.11,0.21,0.26,0.9,-0.26,1.91,-0.48,17.29,7.81,18.96,0.14,0.3,0.95,0.5,0.18,-1.24
150,1900-01-01 12:00:21.731,16.52,11.92,-11.19,0.2,0.28,0.91,-0.82,1.47,-0.24,17.06,7.57,18.93,0.13,0.3,0.96,-0.21,-0.43,-0.95
151,1900-01-01 12:00:21.840,16.93,11.96,-11.24,0.2,0.29,0.92,-1.63,1.09,0.27,17.91,7.77,18.94,0.14,0.32,0.97,-0.76,-1.02,-0.78
152,1900-01-01 12:00:21.923,16.53,10.38,-11.21,0.18,0.28,0.92,-1.04,-1.66,0.84,17.25,6.41,18.98,0.12,0.31,0.98,-0.47,-3.27,-0.27
153,1900-01-01 12:00:21.957,15.95,11.67,-11.09,0.19,0.26,0.89,-1.33,-2.03,1.05,16.88,7.51,19.1,0.13,0.29,0.94,-0.13,-4.63,0.47
154,1900-01-01 12:00:22.035,16.3,12.1,-10.93,0.2,0.26,0.88,-1.51,0.83,0.22,16.6,8.19,19.33,0.14,0.28,0.92,-0.5,-1.26,-0.6
155,1900-01-01 12:00:22.125,15.84,11.21,-10.91,0.19,0.26,0.9,-1.21,1.64,-0.66,15.9,7.0,19.39,0.12,0.28,0.96,-1.02,1.26,-2.22
156,1900-01-01 12:00:22.168,14.79,12.19,-11.02,0.2,0.24,0.9,-0.63,1.53,-1.15,15.53,7.56,19.21,0.13,0.27,0.96,-0.42,0.43,-2.23
157,1900-01-01 12:00:22.259,15.29,13.19,-11.2,0.22,0.25,0.89,-1.98,2.61,-1.01,16.28,9.23,19.03,0.16,0.28,0.95,-1.45,1.1,-2.17
158,1900-01-01 12:00:22.323,15.87,13.24,-11.36,0.22,0.26,0.9,-1.31,1.55,-1.32,16.52,8.65,18.86,0.15,0.29,0.96,-0.84,0.21,-2.24
159,1900-01-01 12:00:22.434,16.53,12.82,-11.57,0.21,0.27,0.89,-0.15,0.19,-1.25,17.94,8.2,18.67,0.14,0.31,0.95,0.18,-0.97,-2.37
160,1900-01-01 12:00:22.517,16.52,12.62,-11.77,0.21,0.27,0.9,0.34,0.17,-0.21,17.63,8.13,18.47,0.14,0.3,0.95,0.98,-1.63,-0.99
161,1900-01-01 12:00:22.543,16.16,12.34,-11.81,0.21,0.27,0.9,0.02,1.47,-0.25,17.07,8.04,18.48,0.14,0.29,0.95,0.7,-0.15,-1.06
162,1900-01-01 12:00:22.631,16.56,12.46,-11.86,0.21,0.28,0.9,-0.98,2.42,-0.24,17.57,7.94,18.47,0.14,0.31,0.95,-0.89,1.17,-1.57
163,1900-01-01 12:00:22.696,17.23,12.01,-11.91,0.2,0.29,0.91,-1.15,1.46,0.02,17.82,7.26,18.39,0.13,0.32,0.98,-0.48,1.1,-1.66
164,1900-01-01 12:00:22.800,17.1,12.42,-11.91,0.21,0.29,0.91,-1.34,0.05,0.31,17.78,7.8,18.3,0.14,0.31,0.96,-0.05,-1.79,-0.47
165,1900-01-01 12:00:22.897,16.5,12.41,-11.87,0.21,0.27,0.9,-1.54,0.29,0.52,17.26,7.79,18.39,0.14,0.3,0.95,-0.5,-1.54,-0.2
166,1900-01-01 12:00:22.996,16.7,12.51,-11.8,0.21,0.27,0.89,-1.85,1.08,-0.24,17.21,8.21,18.51,0.14,0.29,0.94,-1.15,-0.79,-1.11
167,1900-01-01 12:00:22.996,16.65,12.89,-11.85,0.21,0.27,0.89,-1.87,2.34,-0.36,17.49,8.44,18.5,0.14,0.3,0.93,-1.08,0.56,-1.38
168,1900-01-01 12:00:23.104,16.8,12.17,-11.91,0.2,0.28,0.9,-1.31,2.22,-0.73,17.2,7.34,18.45,0.13,0.3,0.96,-1.09,1.05,-1.96
169,1900-01-01 12:00:23.200,16.7,12.05,-12.03,0.2,0.28,0.91,-1.83,1.82,0.55,17.94,7.25,18.31,0.13,0.32,0.97,-1.25,0.4,-0.71
170,1900-01-01 12:00:23.296,16.05,12.04,-11.95,0.2,0.27,0.9,-1.3,0.31,0.2,16.46,7.33,18.36,0.13,0.29,0.97,-0.47,-2.2,-0.44
171,1900-01-01 12:00:23.332,16.74,12.19,-11.93,0.2,0.27,0.88,-0.92,1.49,-0.37,17.92,7.81,18.45,0.13,0.3,0.92,0.1,-1.15,-0.89
172,1900-01-01 12:00:23.410,16.55,12.01,-12.0,0.2,0.27,0.89,-1.3,2.85,0.03,17.19,7.74,18.47,0.13,0.29,0.94,-0.75,0.18,-1.47
173,1900-01-01 12:00:23.514,16.2,12.11,-12.0,0.2,0.27,0.91,-1.03,2.02,-0.05,17.04,7.86,18.41,0.14,0.3,0.97,-1.07,0.5,-1.77
174,1900-01-01 12:00:23.599,15.98,12.18,-12.02,0.2,0.27,0.91,-1.4,0.92,-0.22,16.46,8.2,18.29,0.15,0.29,0.97,0.02,-1.64,-1.18
175,1900-01-01 12:00:23.627,16.59,11.76,-12.06,0.2,0.27,0.9,-1.07,0.71,-0.5,17.17,7.7,18.27,0.13,0.3,0.95,-0.47,-0.99,-1.47
176,1900-01-01 12:00:23.691,16.97,11.4,-12.15,0.19,0.28,0.89,-1.05,1.07,-0.05,17.66,7.16,18.21,0.12,0.3,0.95,-0.79,-0.17,-1.17
177,1900-01-01 12:00:23.799,16.37,11.59,-12.16,0.19,0.27,0.89,-0.87,0.67,-0.21,17.03,7.48,18.18,0.13,0.29,0.95,-0.31,-0.69,-1.18
178,1900-01-01 12:00:23.845,16.16,12.28,-12.2,0.2,0.27,0.9,-0.88,1.28,-0.61,16.95,8.36,18.16,0.14,0.29,0.94,-0.16,-0.17,-1.43
179,1900-01-01 12:00:23.937,16.9,12.14,-12.31,0.2,0.28,0.9,-1.27,1.56,-0.82,17.37,7.96,18.1,0.14,0.3,0.96,-0.58,0.74,-2.05
180,1900-01-01 12:00:24.003,17.17,11.55,-12.44,0.19,0.29,0.91,-1.58,0.99,-0.12,18.13,7.14,17.95,0.13,0.32,0.97,-1.07,-0.39,-1.47
181,1900-01-01 12:00:24.114,16.68,11.83,-12.47,0.2,0.28,0.9,-1.17,0.4,0.05,17.35,7.44,17.88,0.13,0.3,0.96,-0.78,-1.22,-0.62
182,1900-01-01 12:00:24.147,16.87,12.26,-12.47,0.2,0.28,0.89,-1.53,0.39,0.07,17.14,8.23,17.94,0.14,0.3,0.95,-0.86,-3.4,0.93
183,1900-01-01 12:00:24.262,16.76,12.6,-12.47,0.21,0.27,0.89,-1.36,0.54,-0.44,16.99,8.97,18.24,0.15,0.29,0.94,-0.5,-0.9,-1.59
184,1900-01-01 12:00:24.317,16.59,12.49,-12.54,0.21,0.27,0.89,-1.22,1.24,0.07,17.46,8.62,18.16,0.15,0.3,0.94,-0.3,0.08,-1.24
185,1900-01-01 12:00:24.415,16.31,12.16,-12.54,0.2,0.27,0.9,-0.21,0.57,-0.32,16.75,8.28,18.13,0.15,0.29,0.96,0.1,0.03,-1.35
186,1900-01-01 12:00:24.494,16.84,12.32,-12.6,0.21,0.28,0.9,-0.55,0.31,-0.35,17.38,8.09,18.08,0.14,0.3,0.95,-0.21,-0.88,-1.39
187,1900-01-01 12:00:24.540,16.87,12.42,-12.66,0.21,0.28,0.9,-0.94,0.92,-0.22,17.42,8.34,18.03,0.15,0.3,0.95,-0.24,-0.34,-1.15
188,1900-01-01 12:00:24.634,16.79,12.68,-12.7,0.21,0.28,0.9,-1.37,1.03,-0.4,17.11,8.52,18.01,0.15,0.3,0.95,-0.64,-0.2,-1.44
189,1900-01-01 12:00:24.681,16.9,12.64,-12.77,0.21,0.28,0.89,-1.37,1.17,-0.34,17.41,8.43,17.95,0.15,0.3,0.95,-1.6,0.33,-1.61
190,1900-01-01 12:00:24.774,17.03,13.06,-12.83,0.22,0.28,0.89,-1.34,1.12,-0.02,17.84,8.44,17.86,0.15,0.31,0.95,-1.0,-0.7,-1.03
191,1900-01-01 12:00:24.867,16.87,12.58,-12.84,0.21,0.28,0.9,-1.28,1.43,-0.07,17.58,8.28,17.86,0.15,0.31,0.95,-0.82,0.12,-1.18
192,1900-01-01 12:00:24.913,16.91,12.62,-12.86,0.21,0.28,0.9,-1.76,0.89,0.04,17.05,8.32,17.84,0.15,0.3,0.96,-1.08,-0.78,-0.91
193,1900-01-01 12:00:25.012,17.06,12.47,-12.86,0.21,0.28,0.89,-1.21,1.05,0.3,17.48,7.97,17.86,0.14,0.3,0.96,-0.31,-0.6,-0.57
194,1900-01-01 12:00:25.108,16.6,12.89,-12.83,0.21,0.27,0.89,-1.49,1.34,-0.06,16.56,8.71,17.93,0.15,0.28,0.94,-1.0,-0.21,-1.02
195,1900-01-01 12:00:25.202,17.09,12.39,-12.84,0.21,0.28,0.9,-1.18,1.38,-0.08,17.63,8.22,17.93,0.14,0.31,0.95,-1.09,-0.23,-1.5
196,1900-01-01 12:00:25.238,16.9,12.56,-12.86,0.21,0.28,0.9,-1.44,1.13,-0.13,17.09,8.17,17.86,0.14,0.3,0.96,-0.64,-0.9,-0.86
197,1900-01-01 12:00:25.404,16.85,12.67,-12.89,0.21,0.28,0.9,-1.77,1.26,-0.04,17.27,8.44,17.89,0.15,0.3,0.95,-1.25,-0.8,-1.24
198,1900-01-01 12:00:25.404,16.76,12.82,-12.91,0.21,0.28,0.89,-1.37,1.51,0.06,17.12,8.63,17.86,0.15,0.3,0.95,-1.0,-0.41,-1.36
199,1900-01-01 12:00:25.445,16.92,12.67,-12.91,0.21,0.28,0.89,-1.27,1.34,-0.06,16.98,8.39,17.81,0.15,0.29,0.95,-0.6,-0.53,-1.15
200,1900-01-01 12:00:25.609,16.85,12.61,-12.92,0.21,0.28,0.89,-1.39,1.89,0.12,16.97,8.6,17.79,0.15,0.29,0.95,-1.02,0.52,-1.37
201,1900-01-01 12:00:25.609,16.72,12.49,-12.91,0.21,0.28,0.9,-1.5,1.68,0.27,16.81,8.28,17.74,0.15,0.29,0.96,-1.01,0.07,-0.77
202,1900-01-01 12:00:25.710,16.57,12.16,-12.88,0.2,0.27,0.9,-1.48,1.53,0.3,16.98,7.93,17.78,0.14,0.3,0.96,-1.32,-0.17,-1.08
203,1900-01-01 12:00:25.793,16.67,12.24,-12.84,0.2,0.27,0.9,-1.34,1.15,0.09,16.21,8.17,17.77,0.14,0.28,0.96,-0.64,-0.62,-0.89
204,1900-01-01 12:00:25.838,16.46,12.58,-12.84,0.21,0.27,0.89,-1.56,1.27,0.17,16.85,8.36,17.79,0.15,0.29,0.95,-0.22,-0.76,-0.69
205,1900-01-01 12:00:25.932,16.39,12.47,-12.82,0.21,0.27,0.9,-1.66,1.62,0.09,16.38,8.56,17.85,0.15,0.28,0.95,-0.78,-0.14,-0.8
206,1900-01-01 12:00:26.006,16.5,12.21,-12.82,0.2,0.27,0.9,-1.68,1.47,0.21,16.58,8.13,17.88,0.14,0.29,0.96,-0.76,-0.27,-0.68
207,1900-01-01 12:00:26.104,16.8,12.42,-12.79,0.21,0.28,0.89,-1.13,1.33,0.11,16.93,8.39,17.94,0.15,0.29,0.95,-0.37,-0.47,-0.76
208,1900-01-01 12:00:26.208,16.51,12.36,-12.78,0.21,0.27,0.9,-1.21,1.49,0.19,16.7,8.39,17.98,0.15,0.29,0.95,-0.39,-0.21,-0.78
209,1900-01-01 12:00:26.208,16.48,12.18,-12.76,0.2,0.27,0.9,-1.09,1.51,0.19,16.36,8.17,18.02,0.14,0.29,0.96,-0.17,-0.27,-0.98
210,1900-01-01 12:00:26.308,16.41,11.97,-12.74,0.2,0.27,0.91,-1.46,1.27,0.18,16.35,8.07,18.03,0.14,0.29,0.97,-0.41,-0.55,-0.68
211,1900-01-01 12:00:26.407,16.33,12.21,-12.73,0.2,0.27,0.9,-1.42,1.06,-0.05,16.24,8.31,18.08,0.15,0.28,0.96,-0.64,-0.92,-0.94
212,1900-01-01 12:00:26.488,16.9,12.19,-12.74,0.2,0.28,0.89,-1.39,1.47,-0.4,16.8,8.36,18.1,0.14,0.29,0.94,-0.72,-0.5,-1.44
213,1900-01-01 12:00:26.535,16.76,12.11,-12.81,0.2,0.28,0.9,-1.14,2.15,-0.18,16.77,8.14,18.04,0.14,0.29,0.96,-0.53,0.76,-1.24
214,1900-01-01 12:00:26.618,16.54,12.09,-12.85,0.2,0.28,0.9,-1.08,1.25,-0.37,16.41,8.24,18.01,0.15,0.29,0.97,-0.37,-0.21,-1.37
215,1900-01-01 12:00:26.729,16.14,12.14,-12.91,0.2,0.27,0.9,-1.48,1.32,-0.03,16.55,8.37,17.95,0.15,0.29,0.96,-0.71,-0.56,-0.73
216,1900-01-01 12:00:26.808,16.2,12.04,-12.93,0.2,0.27,0.9,-1.53,1.35,-0.27,16.06,8.45,18.0,0.15,0.28,0.96,-0.87,-0.56,-1.17
217,1900-01-01 12:00:26.842,16.6,11.89,-12.98,0.2,0.27,0.9,-1.84,1.26,-0.15,16.82,8.23,17.98,0.14,0.29,0.95,-0.89,-1.05,-0.98
218,1900-01-01 12:00:26.917,16.28,12.14,-13.01,0.2,0.27,0.9,-1.33,1.21,-0.24,16.18,8.62,17.99,0.15,0.28,0.95,-0.44,-0.84,-0.92
219,1900-01-01 12:00:27.033,16.56,12.03,-13.05,0.2,0.27,0.9,-1.2,1.43,-0.24,16.56,8.44,18.01,0.15,0.29,0.95,-0.48,-0.23,-1.25
220,1900-01-01 12:00:27.120,16.34,11.98,-13.1,0.2,0.27,0.9,-0.99,1.11,-0.15,16.2,8.58,17.97,0.15,0.28,0.96,-0.11,-0.54,-1.07
221,1900-01-01 12:00:27.153,16.35,12.03,-13.13,0.2,0.27,0.9,-1.31,0.94,-0.21,16.5,8.53,17.97,0.15,0.29,0.96,-0.31,-0.99,-1.16
222,1900-01-01 12:00:27.292,16.36,12.11,-13.17,0.2,0.27,0.9,-1.55,0.99,-0.23,16.3,8.66,17.95,0.15,0.28,0.96,-0.46,-1.04,-1.26
223,1900-01-01 12:00:27.292,16.57,12.27,-13.21,0.2,0.27,0.89,-1.32,0.99,-0.29,16.53,8.58,17.92,0.15,0.29,0.95,-0.31,-0.93,-1.33
224,1900-01-01 12:00:27.409,16.58,12.2,-13.27,0.2,0.27,0.9,-0.72,1.47,-0.27,16.83,8.79,17.87,0.15,0.29,0.95,-0.15,-0.11,-1.7
225,1900-01-01 12:00:27.493,16.36,11.97,-13.32,0.2,0.27,0.9,-0.77,1.42,-0.46,16.12,8.69,17.77,0.15,0.28,0.96,-0.15,-0.24,-1.39
226,1900-01-01 12:00:27.520,16.5,12.08,-13.39,0.2,0.27,0.9,-1.4,1.41,-0.15,17.02,8.76,17.71,0.15,0.29,0.95,-0.43,-0.41,-1.31
227,1900-01-01 12:00:27.606,16.53,12.08,-13.43,0.2,0.27,0.9,-1.63,1.33,-0.18,16.7,8.79,17.67,0.16,0.29,0.96,-0.72,-0.29,-1.18
228,1900-01-01 12:00:27.689,16.58,11.87,-13.46,0.2,0.27,0.9,-1.38,1.32,0.13,16.87,8.65,17.65,0.15,0.29,0.96,-0.37,-0.5,-0.77
229,1900-01-01 12:00:27.778,16.42,11.91,-13.45,0.2,0.27,0.9,-1.51,0.93,-0.16,16.33,8.74,17.69,0.15,0.28,0.95,-0.68,-0.84,-0.93
230,1900-01-01 12:00:27.876,16.43,11.96,-13.48,0.2,0.27,0.9,-1.23,1.22,-0.18,16.72,8.6,17.71,0.15,0.29,0.95,-0.56,-0.66,-1.11
231,1900-01-01 12:00:27.908,16.41,12.01,-13.52,0.2,0.27,0.9,-1.27,1.45,-0.06,16.65,8.69,17.69,0.15,0.29,0.95,-0.64,0.1,-1.04
232,1900-01-01 12:00:27.968,16.26,12.13,-13.54,0.2,0.27,0.9,-1.03,1.29,-0.18,16.47,8.98,17.69,0.16,0.29,0.95,-0.26,-0.31,-1.03
233,1900-01-01 12:00:28.069,16.4,11.75,-13.57,0.2,0.27,0.9,-1.21,1.46,-0.1,16.58,8.53,17.69,0.15,0.29,0.96,-0.6,0.06,-1.11
234,1900-01-01 12:00:28.180,16.52,12.07,-13.6,0.2,0.27,0.89,-1.05,1.02,-0.2,16.72,8.71,17.68,0.15,0.29,0.95,-0.54,-0.77,-1.02
235,1900-01-01 12:00:28.258,16.81,11.99,-13.64,0.2,0.28,0.89,-1.34,1.99,-0.09,17.14,8.98,17.68,0.16,0.29,0.94,-0.61,0.34,-0.95
236,1900-01-01 12:00:28.305,16.58,11.91,-13.66,0.2,0.28,0.9,-1.53,1.66,0.38,16.55,8.65,17.7,0.15,0.29,0.97,-0.96,-0.11,-0.6
237,1900-01-01 12:00:28.357,16.72,11.91,-13.61,0.2,0.28,0.9,-1.17,0.85,0.34,16.85,8.59,17.77,0.15,0.29,0.96,-0.47,-1.04,-0.66
238,1900-01-01 12:00:28.449,16.27,11.99,-13.57,0.2,0.27,0.9,-1.64,1.42,0.54,16.67,8.91,17.82,0.16,0.29,0.95,-1.62,-1.43,0.13
239,1900-01-01 12:00:28.544,16.44,11.69,-13.49,0.19,0.27,0.9,-1.05,1.16,0.15,16.26,8.93,18.0,0.16,0.28,0.96,-1.18,-1.43,-0.87
240,1900-01-01 12:00:28.641,16.26,11.94,-13.48,0.2,0.27,0.9,-1.41,1.11,0.18,16.38,9.09,18.03,0.16,0.28,0.95,-0.78,-0.97,-0.88
241,1900-01-01 12:00:28.677,16.42,11.83,-13.46,0.2,0.27,0.9,-1.12,1.21,0.24,16.49,9.1,18.05,0.16,0.29,0.95,-0.66,-0.27,-0.83
242,1900-01-01 12:00:28.741,16.29,12.12,-13.43,0.2,0.27,0.9,-1.41,1.37,0.27,16.09,9.34,18.08,0.16,0.28,0.96,-1.03,-0.44,-0.85
243,1900-01-01 12:00:28.858,16.41,11.88,-13.4,0.2,0.27,0.9,-1.24,1.14,0.27,16.33,9.15,18.11,0.16,0.29,0.96,-0.41,-0.36,-0.74
244,1900-01-01 12:00:28.934,16.41,11.97,-13.36,0.2,0.27,0.9,-1.46,1.31,0.31,16.32,9.12,18.16,0.16,0.28,0.95,-0.77,-0.24,-0.66
245,1900-01-01 12:00:28.961,16.22,11.85,-13.33,0.2,0.27,0.9,-1.18,1.14,0.15,16.19,9.09,18.21,0.16,0.28,0.95,-0.47,-0.69,-0.76
246,1900-01-01 12:00:29.060,16.53,11.93,-13.31,0.2,0.27,0.9,-1.58,1.83,-0.07,16.57,9.31,18.26,0.16,0.28,0.94,-0.96,0.46,-1.36
247,1900-01-01 12:00:29.137,16.32,11.94,-13.33,0.2,0.27,0.91,-1.74,1.39,0.18,16.07,8.95,18.21,0.16,0.28,0.97,-0.91,-0.44,-0.87
248,1900-01-01 12:00:29.243,16.46,12.0,-13.31,0.2,0.27,0.9,-1.21,0.8,0.08,16.55,9.2,18.23,0.16,0.29,0.96,-0.57,-0.94,-0.96
249,1900-01-01 12:00:29.321,16.37,12.3,-13.31,0.2,0.27,0.89,-1.47,1.22,0.56,16.22,9.7,18.25,0.17,0.28,0.95,-0.71,-0.61,-0.44
250,1900-01-01 12:00:29.349,16.4,11.66,-13.23,0.19,0.27,0.9,-1.32,1.18,0.42,15.99,8.86,18.34,0.16,0.28,0.96,-0.61,-0.11,-0.52
251,1900-01-01 12:00:29.440,16.48,11.82,-13.18,0.19,0.27,0.89,-0.84,1.02,-0.1,16.15,9.17,18.42,0.16,0.28,0.94,-0.16,-0.65,-1.18
252,1900-01-01 12:00:29.519,16.09,11.63,-13.2,0.19,0.27,0.9,-0.88,1.49,-0.52,15.75,8.99,18.39,0.16,0.27,0.95,-0.02,0.0,-1.5
253,1900-01-01 12:00:29.618,16.05,11.63,-13.29,0.19,0.27,0.91,-1.52,1.92,-0.61,15.8,9.07,18.32,0.16,0.28,0.97,-0.82,0.34,-1.43
254,1900-01-01 12:00:29.705,16.29,12.15,-13.39,0.2,0.27,0.9,-1.45,1.44,-0.72,16.09,9.44,18.26,0.17,0.28,0.96,-1.01,-0.67,-1.63
255,1900-01-01 12:00:29.751,16.65,11.74,-13.51,0.2,0.28,0.9,-1.34,1.09,-0.46,16.45,8.88,18.17,0.16,0.29,0.96,-0.88,-0.69,-1.54
256,1900-01-01 12:00:29.902,16.66,12.07,-13.59,0.2,0.27,0.89,-1.37,1.27,-0.51,16.29,9.4,18.09,0.16,0.28,0.94,-0.28,-1.13,-1.34
257,1900-01-01 12:00:29.902,16.7,11.53,-13.67,0.19,0.28,0.9,-0.92,1.55,-0.44,16.54,8.98,18.05,0.16,0.29,0.95,-0.21,0.22,-1.92
258,1900-01-01 12:00:30.007,16.43,11.56,-13.75,0.19,0.27,0.9,-0.76,1.04,-0.62,15.99,8.95,17.91,0.16,0.28,0.96,-0.24,-0.73,-2.04
259,1900-01-01 12:00:30.082,16.3,11.73,-13.85,0.2,0.27,0.9,-0.95,1.06,-0.55,16.09,9.21,17.76,0.16,0.28,0.96,-0.37,-0.5,-1.58
260,1900-01-01 12:00:30.122,16.64,11.78,-13.95,0.2,0.27,0.9,-0.83,1.27,-0.64,16.7,9.21,17.68,0.16,0.29,0.95,-0.44,-0.23,-1.82
261,1900-01-01 12:00:30.181,16.67,11.7,-14.05,0.19,0.28,0.9,-0.85,1.18,-0.5,16.38,9.25,17.55,0.16,0.29,0.96,-0.29,-0.41,-1.46
262,1900-01-01 12:00:30.278,16.93,11.88,-14.14,0.2,0.28,0.9,-0.74,1.34,-0.41,16.92,9.28,17.49,0.16,0.29,0.95,-0.29,-0.48,-1.59
263,1900-01-01 12:00:30.373,16.77,11.74,-14.21,0.2,0.28,0.9,-1.02,1.43,0.02,16.75,9.17,17.4,0.16,0.29,0.96,-0.54,-0.15,-1.15
264,1900-01-01 12:00:30.467,16.64,11.63,-14.21,0.19,0.28,0.9,-1.27,1.11,-0.01,16.49,8.98,17.39,0.16,0.29,0.96,-0.58,-0.6,-0.97
265,1900-01-01 12:00:30.498,16.86,11.56,-14.22,0.19,0.28,0.9,-1.6,1.04,-0.05,16.57,8.83,17.4,0.16,0.29,0.96,-0.79,-0.78,-1.01
266,1900-01-01 12:00:30.590,16.68,11.51,-14.24,0.19,0.27,0.89,-1.53,1.23,-0.07,16.46,9.01,17.4,0.16,0.29,0.96,-0.73,-0.6,-0.95
267,1900-01-01 12:00:30.668,16.52,11.74,-14.26,0.19,0.27,0.9,-1.24,1.54,-0.44,16.76,9.32,17.41,0.16,0.29,0.94,-0.85,-0.28,-1.6
268,1900-01-01 12:00:30.768,16.59,11.7,-14.33,0.2,0.28,0.9,-1.56,1.33,-0.21,16.2,9.21,17.33,0.16,0.28,0.96,-1.05,-0.47,-0.99
269,1900-01-01 12:00:30.848,16.72,11.96,-14.37,0.2,0.28,0.9,-1.21,0.83,0.11,16.71,9.26,17.33,0.16,0.29,0.96,-0.25,-1.21,-0.92
270,1900-01-01 12:00:30.873,17.01,11.77,-14.37,0.2,0.28,0.9,-1.52,1.42,0.28,16.4,9.45,17.35,0.16,0.28,0.95,-0.61,-0.38,-0.77
271,1900-01-01 12:00:30.970,16.55,11.57,-14.33,0.19,0.27,0.9,-1.01,1.24,0.2,16.24,9.11,17.39,0.16,0.28,0.96,-0.48,-0.89,-1.62
272,1900-01-01 12:00:31.052,16.54,11.59,-14.31,0.19,0.27,0.9,-1.45,1.1,0.08,16.4,9.41,17.3,0.17,0.28,0.95,-0.89,-0.88,-1.29
273,1900-01-01 12:00:31.155,16.72,11.59,-14.31,0.19,0.28,0.9,-1.44,1.45,0.22,16.72,9.33,17.27,0.16,0.29,0.95,-0.6,-0.31,-0.89
274,1900-01-01 12:00:31.233,16.58,11.65,-14.28,0.19,0.27,0.9,-1.31,1.29,0.15,16.25,9.37,17.29,0.16,0.28,0.96,-0.42,-0.43,-0.75
275,1900-01-01 12:00:31.260,16.8,11.75,-14.27,0.2,0.28,0.9,-1.75,1.41,0.39,16.79,9.52,17.33,0.17,0.29,0.95,-0.79,-0.3,-0.63
276,1900-01-01 12:00:31.356,16.51,11.89,-14.22,0.2,0.27,0.9,-1.43,1.13,0.6,16.44,9.63,17.39,0.17,0.29,0.96,-0.25,-0.67,-0.09
277,1900-01-01 12:00:31.441,16.33,11.9,-14.13,0.2,0.27,0.89,-1.23,0.92,0.61,16.22,9.57,17.54,0.17,0.28,0.95,-0.11,-1.18,0.04
278,1900-01-01 12:00:31.529,16.53,11.16,-14.05,0.19,0.27,0.9,-1.14,1.54,0.34,16.55,9.14,17.7,0.16,0.29,0.95,-0.45,0.03,-0.25
279,1900-01-01 12:00:31.621,16.63,11.48,-14.0,0.19,0.27,0.89,-1.21,1.34,0.21,16.12,9.57,17.82,0.17,0.28,0.95,-0.05,-0.39,-0.47
280,1900-01-01 12:00:31.661,16.52,11.9,-13.98,0.2,0.27,0.89,-0.8,1.71,0.03,16.63,9.93,17.91,0.17,0.29,0.94,0.05,-0.08,-0.75
281,1900-01-01 12:00:31.721,16.35,11.96,-13.98,0.2,0.27,0.89,-0.67,2.23,-0.21,16.39,9.74,17.96,0.17,0.28,0.94,0.23,0.41,-0.76
282,1900-01-01 12:00:31.841,16.83,11.39,-14.02,0.19,0.28,0.9,-0.64,1.92,-0.24,17.07,9.04,18.0,0.16,0.3,0.96,0.11,0.88,-1.29
283,1900-01-01 12:00:31.925,16.85,11.38,-14.07,0.19,0.28,0.9,-0.6,1.6,-0.08,16.94,9.3,17.96,0.16,0.3,0.96,0.43,0.15,-0.83
284,1900-01-01 12:00:31.959,16.85,11.32,-14.09,0.19,0.28,0.9,-1.13,0.78,-0.07,16.91,9.18,17.99,0.16,0.3,0.96,-0.32,-0.62,-1.04
285,1900-01-01 12:00:32.017,16.98,11.1,-14.11,0.18,0.28,0.9,-1.13,1.16,-0.15,17.13,9.02,17.99,0.16,0.3,0.95,-0.05,-0.61,-0.92
286,1900-01-01 12:00:32.118,16.82,11.33,-14.14,0.19,0.28,0.89,-1.32,1.73,-0.48,16.98,9.15,18.01,0.16,0.29,0.94,-0.63,0.09,-1.47
287,1900-01-01 12:00:32.212,17.0,11.22,-14.22,0.19,0.28,0.9,-1.03,1.44,-0.9,17.26,9.08,17.94,0.16,0.3,0.95,-0.33,0.02,-1.95
288,1900-01-01 12:00:32.315,17.26,11.45,-14.37,0.19,0.29,0.9,-1.39,1.82,-0.85,17.35,9.39,17.8,0.16,0.3,0.95,-0.49,0.27,-1.74
289,1900-01-01 12:00:32.350,17.41,11.25,-14.51,0.19,0.29,0.9,-1.4,1.32,-0.4,17.83,9.04,17.7,0.16,0.31,0.96,-0.5,-0.11,-1.43
290,1900-01-01 12:00:32.416,17.4,11.21,-14.58,0.19,0.29,0.9,-1.03,0.87,-0.12,17.5,9.11,17.64,0.16,0.3,0.95,-0.14,-0.55,-1.05
291,1900-01-01 12:00:32.528,17.14,11.31,-14.6,0.19,0.28,0.89,-1.19,1.0,0.02,17.47,9.18,17.63,0.16,0.3,0.94,-0.42,-0.5,-1.01
292,1900-01-01 12:00:32.604,17.15,11.02,-14.61,0.18,0.28,0.9,-0.97,1.45,-0.17,17.41,8.93,17.64,0.16,0.3,0.95,-0.34,0.15,-1.29
293,1900-01-01 12:00:32.643,17.09,10.95,-14.64,0.18,0.28,0.91,-1.26,1.16,-0.24,17.18,8.93,17.6,0.16,0.3,0.96,-0.38,-0.46,-1.09
294,1900-01-01 12:00:32.735,17.34,11.26,-14.69,0.19,0.29,0.9,-1.6,1.23,-0.15,17.65,9.09,17.59,0.16,0.31,0.95,-0.76,-0.46,-1.12
295,1900-01-01 12:00:32.795,17.42,11.38,-14.72,0.19,0.29,0.89,-1.25,1.28,-0.11,17.47,9.21,17.58,0.16,0.3,0.95,-0.44,-0.51,-0.94
296,1900-01-01 12:00:32.894,17.1,11.46,-14.75,0.19,0.28,0.9,-1.24,1.27,0.12,17.41,9.3,17.59,0.16,0.3,0.95,-0.56,-0.35,-0.79
297,1900-01-01 12:00:32.968,17.19,11.11,-14.74,0.19,0.28,0.9,-1.24,1.15,-0.02,17.36,9.0,17.63,0.16,0.3,0.96,-0.53,-0.65,-0.93
298,1900-01-01 12:00:33.016,17.23,11.12,-14.75,0.19,0.28,0.9,-1.53,1.18,0.18,17.63,9.05,17.65,0.16,0.31,0.95,-0.68,-0.4,-0.69
299,1900-01-01 12:00:33.108,17.14,11.44,-14.73,0.19,0.28,0.89,-1.5,1.41,-0.11,17.32,9.54,17.7,0.17,0.3,0.94,-0.55,-0.66,-0.92
300,1900-01-01 12:00:33.175,17.23,11.21,-14.75,0.19,0.28,0.9,-1.31,1.53,0.05,17.7,9.04,17.72,0.16,0.31,0.95,-0.49,-0.28,-0.82
301,1900-01-01 12:00:33.286,17.05,11.17,-14.76,0.19,0.28,0.9,-1.15,0.91,-0.03,17.3,8.9,17.75,0.16,0.3,0.96,-0.68,-0.86,-0.89
302,1900-01-01 12:00:33.362,16.8,11.43,-14.77,0.19,0.28,0.89,-1.28,1.01,-0.02,17.29,9.49,17.77,0.17,0.3,0.94,-0.7,-0.74,-0.89
303,1900-01-01 12:00:33.394,17.03,11.17,-14.78,0.19,0.28,0.9,-1.31,1.38,-0.08,17.53,9.26,17.8,0.16,0.3,0.94,-0.82,-0.12,-1.15
304,1900-01-01 12:00:33.482,16.96,11.23,-14.8,0.19,0.28,0.9,-1.23,1.2,0.02,17.26,9.18,17.78,0.16,0.3,0.95,-0.45,-0.4,-0.73
305,1900-01-01 12:00:33.574,17.25,11.28,-14.81,0.19,0.28,0.9,-1.11,1.23,-0.12,17.5,9.42,17.82,0.16,0.3,0.95,-0.44,-0.2,-1.07
306,1900-01-01 12:00:33.648,17.18,11.3,-14.83,0.19,0.28,0.9,-1.0,1.33,0.16,17.5,9.27,17.82,0.16,0.3,0.95,-0.3,-0.23,-0.73
307,1900-01-01 12:00:33.761,17.46,11.33,-14.82,0.19,0.29,0.89,-1.08,1.76,0.35,17.96,9.26,17.87,0.16,0.31,0.94,-0.45,0.11,-0.53
308,1900-01-01 12:00:33.836,17.77,10.94,-14.77,0.18,0.29,0.89,-0.64,2.43,0.79,18.23,9.2,17.94,0.16,0.31,0.93,-0.1,0.71,0.24
309,1900-01-01 12:00:33.863,17.4,10.87,-14.66,0.18,0.28,0.89,0.03,2.17,0.19,17.55,8.93,18.14,0.16,0.3,0.94,0.76,0.94,-0.39
310,1900-01-01 12:00:33.929,17.0,10.95,-14.64,0.18,0.28,0.9,0.05,2.59,-0.14,17.27,9.09,18.24,0.16,0.3,0.95,0.82,1.73,-0.95
311,1900-01-01 12:00:34.030,17.16,10.38,-14.67,0.18,0.29,0.92,0.02,2.37,-0.49,17.76,8.76,18.25,0.16,0.31,0.96,-0.4,2.47,-1.59
312,1900-01-01 12:00:34.119,17.55,10.57,-14.75,0.18,0.29,0.91,-1.11,2.2,0.02,17.17,8.53,18.17,0.15,0.3,0.97,-0.53,0.77,-0.54
313,1900-01-01 12:00:34.211,18.29,10.18,-14.76,0.17,0.3,0.89,-1.37,1.44,0.47,18.32,7.47,18.25,0.13,0.32,0.96,-0.96,0.62,-0.58
314,1900-01-01 12:00:34.238,18.22,10.45,-14.69,0.17,0.3,0.88,-1.3,1.66,0.78,18.24,8.13,18.32,0.14,0.31,0.93,-0.33,0.47,-0.02
315,1900-01-01 12:00:34.329,18.01,10.47,-14.58,0.17,0.29,0.89,-0.6,1.63,0.46,17.95,8.02,18.47,0.14,0.31,0.94,-0.14,0.41,-0.66
316,1900-01-01 12:00:34.407,18.06,10.18,-14.52,0.17,0.3,0.89,-0.3,1.33,0.24,17.66,7.8,18.53,0.14,0.3,0.95,0.27,0.15,-0.76
317,1900-01-01 12:00:34.509,18.2,10.11,-14.5,0.17,0.3,0.89,-0.02,1.59,-0.07,17.89,7.72,18.57,0.13,0.31,0.94,0.41,-0.13,-1.02
318,1900-01-01 12:00:34.585,18.53,9.86,-14.51,0.16,0.3,0.88,0.6,1.5,-0.31,17.88,7.45,18.57,0.13,0.31,0.94,0.45,-0.18,-1.24
319,1900-01-01 12:00:34.611,19.25,10.34,-14.57,0.17,0.31,0.87,2.06,1.02,-1.21,18.53,7.71,18.54,0.13,0.31,0.93,1.38,-0.48,-2.43
320,1900-01-01 12:00:34.706,19.95,9.65,-14.76,0.16,0.33,0.88,0.86,2.57,-0.59,19.48,7.11,18.33,0.12,0.33,0.93,-0.95,3.03,-2.38
321,1900-01-01 12:00:34.778,17.9,10.86,-14.86,0.19,0.31,0.93,0.75,-0.14,-0.52,17.61,8.02,18.13,0.15,0.32,0.99,3.13,0.85,-3.5
322,1900-01-01 12:00:34.882,19.58,10.76,-14.95,0.18,0.33,0.9,-1.22,0.72,0.78,19.87,7.66,17.75,0.14,0.35,0.95,-1.56,0.07,-2.09
323,1900-01-01 12:00:34.961,20.07,10.75,-14.84,0.17,0.32,0.86,-2.69,0.95,0.89,19.36,7.52,17.59,0.13,0.33,0.92,-3.16,0.01,-1.79
324,1900-01-01 12:00:34.999,20.24,9.06,-14.71,0.15,0.33,0.89,-3.05,1.85,0.83,18.77,6.22,17.48,0.11,0.32,0.92,-2.21,0.93,-3.62
325,1900-01-01 12:00:35.096,18.65,10.25,-14.59,0.17,0.31,0.91,-1.4,1.84,0.87,17.69,6.71,17.08,0.12,0.31,0.96,-3.28,1.87,-4.93
326,1900-01-01 12:00:35.161,20.43,11.45,-14.47,0.19,0.34,0.88,2.1,-1.56,-0.63,19.22,6.72,16.49,0.12,0.33,0.95,-0.13,1.15,-4.97
327,1900-01-01 12:00:35.262,20.67,12.03,-14.58,0.2,0.34,0.88,3.69,-5.87,-1.68,18.51,6.56,15.89,0.12,0.32,0.96,-0.13,2.93,-5.31
328,1900-01-01 12:00:35.337,22.55,12.7,-14.84,0.21,0.36,0.85,0.79,-5.64,-2.31,20.93,4.58,15.24,0.08,0.35,0.92,-0.15,0.85,-5.89
329,1900-01-01 12:00:35.396,20.11,13.03,-15.2,0.21,0.32,0.86,-0.51,-1.99,-0.56,18.5,4.12,14.49,0.07,0.31,0.94,-4.3,-0.82,-5.7
330,1900-01-01 12:00:35.529,19.12,11.82,-15.3,0.2,0.32,0.9,-3.47,0.47,-0.59,16.08,4.64,13.78,0.08,0.27,0.95,-5.29,-5.18,-2.28
331,1900-01-01 12:00:35.529,20.78,13.09,-15.4,0.22,0.34,0.86,-0.92,0.51,-0.8,17.61,5.02,13.59,0.09,0.3,0.95,-0.08,-0.24,-2.85
332,1900-01-01 12:00:35.622,21.01,13.45,-15.53,0.22,0.34,0.87,-0.76,1.4,0.03,17.07,4.99,13.31,0.09,0.29,0.95,0.29,1.99,-3.27
333,1900-01-01 12:00:35.714,21.29,13.58,-15.53,0.23,0.35,0.87,0.41,0.65,0.5,18.01,4.6,12.97,0.08,0.31,0.95,-0.48,1.95,-2.62
334,1900-01-01 12:00:35.806,20.74,13.65,-15.46,0.22,0.34,0.86,-0.54,1.44,0.3,18.12,4.24,12.73,0.07,0.31,0.95,0.06,1.98,-3.08
335,1900-01-01 12:00:35.833,20.1,13.51,-15.43,0.23,0.34,0.89,-1.7,1.18,0.67,16.33,4.41,12.42,0.08,0.29,0.98,-0.97,0.68,-1.17
336,1900-01-01 12:00:35.918,19.83,15.59,-15.33,0.26,0.33,0.87,-2.92,-0.13,3.01,17.67,5.63,12.4,0.1,0.31,0.98,-3.49,3.12,-2.62
337,1900-01-01 12:00:35.987,19.91,12.48,-14.88,0.21,0.33,0.88,-5.63,3.68,1.26,16.05,2.9,12.16,0.05,0.27,0.95,-5.0,-1.47,0.47
338,1900-01-01 12:00:36.094,20.09,12.71,-14.7,0.21,0.33,0.87,-3.54,2.95,1.33,16.82,2.6,12.39,0.05,0.29,0.96,-1.08,1.82,0.09
339,1900-01-01 12:00:36.142,20.16,13.27,-14.5,0.22,0.32,0.86,-1.3,1.67,0.95,17.67,3.22,12.56,0.06,0.3,0.94,-0.34,0.96,-0.57
340,1900-01-01 12:00:36.236,20.43,12.88,-14.37,0.21,0.33,0.87,0.55,0.6,0.31,17.59,2.5,12.63,0.04,0.3,0.95,1.51,0.02,-1.11
341,1900-01-01 12:00:36.287,19.6,12.67,-14.33,0.21,0.32,0.88,-0.25,-0.03,-0.93,15.43,2.82,12.62,0.05,0.27,0.97,-0.11,-1.13,-2.08
342,1900-01-01 12:00:36.394,20.16,13.44,-14.48,0.23,0.34,0.89,-0.89,-0.53,-0.63,17.34,3.33,12.46,0.06,0.31,0.99,-0.08,-3.53,-0.95
343,1900-01-01 12:00:36.477,20.27,13.82,-14.59,0.23,0.33,0.87,-1.72,-0.96,-0.82,17.0,3.77,12.47,0.07,0.29,0.96,-0.02,-3.95,-0.73
344,1900-01-01 12:00:36.558,21.09,13.65,-14.72,0.23,0.35,0.88,-2.56,0.32,-0.17,18.6,4.05,12.52,0.07,0.32,0.95,1.56,-2.96,1.56
345,1900-01-01 12:00:36.647,19.96,14.29,-14.75,0.24,0.33,0.86,-2.07,1.22,0.58,17.9,5.44,12.91,0.09,0.3,0.94,-0.27,-0.6,0.76
346,1900-01-01 12:00:36.675,20.89,13.86,-14.67,0.23,0.34,0.86,-0.45,0.49,0.76,17.99,4.15,13.19,0.07,0.31,0.95,2.1,-2.11,2.44
347,1900-01-01 12:00:36.752,19.77,15.41,-14.57,0.25,0.32,0.85,-0.19,-0.51,2.18,18.67,6.04,13.72,0.11,0.32,0.94,0.7,-1.66,2.64
348,1900-01-01 12:00:36.844,19.88,15.97,-14.24,0.27,0.33,0.88,-1.61,-1.33,2.27,17.9,7.47,14.28,0.13,0.31,0.95,0.07,-4.02,1.78
349,1900-01-01 12:00:36.942,19.91,15.3,-13.91,0.26,0.33,0.88,-0.93,-2.48,1.25,17.63,6.32,14.71,0.11,0.31,0.97,0.32,-2.47,0.56
350,1900-01-01 12:00:36.985,21.21,14.61,-13.72,0.24,0.35,0.87,-1.25,-2.97,1.32,18.69,5.87,14.95,0.1,0.32,0.95,-0.22,-2.17,0.27
351,1900-01-01 12:00:37.078,22.33,13.23,-13.53,0.22,0.37,0.87,0.37,-5.67,1.22,19.86,4.04,15.15,0.07,0.34,0.93,0.45,1.71,3.92
352,1900-01-01 12:00:37.148,22.49,15.67,-13.35,0.25,0.36,0.82,1.66,-6.84,-0.81,18.66,3.21,15.91,0.06,0.32,0.93,0.81,6.59,2.34
353,1900-01-01 12:00:37.250,18.3,22.48,-13.49,0.39,0.32,0.89,-7.06,-3.62,3.5,20.77,9.61,16.42,0.17,0.37,0.95,-5.6,2.21,4.21
354,1900-01-01 12:00:37.326,19.43,20.44,-12.96,0.35,0.33,0.87,-2.05,-9.26,-0.03,11.24,6.1,17.22,0.12,0.22,1.09,-0.02,4.48,3.55
355,1900-01-01 12:00:37.358,18.18,24.41,-12.97,0.39,0.29,0.8,1.33,-16.6,-3.95,18.5,7.09,17.92,0.12,0.32,0.94,3.1,-16.18,-6.6
356,1900-01-01 12:00:37.455,17.72,23.05,-13.59,0.37,0.29,0.82,3.6,-5.67,-1.18,18.03,9.58,17.07,0.15,0.28,0.85,5.4,-8.63,-0.18
357,1900-01-01 12:00:37.523,18.72,24.99,-13.78,0.4,0.3,0.79,0.39,-0.45,-3.71,17.89,9.53,17.2,0.16,0.29,0.89,3.74,-3.6,-2.86
358,1900-01-01 12:00:37.631,20.28,25.91,-14.35,0.42,0.34,0.8,-0.79,2.27,-5.01,18.85,11.25,16.92,0.19,0.32,0.92,3.16,1.75,-4.44
359,1900-01-01 12:00:37.720,21.77,27.29,-15.13,0.46,0.37,0.81,-0.11,1.92,-3.79,22.58,11.28,16.4,0.2,0.4,0.94,2.99,0.5,-4.17
360,1900-01-01 12:00:37.745,23.24,24.67,-15.71,0.41,0.39,0.8,-1.34,3.66,-1.81,23.26,8.84,15.92,0.16,0.4,0.92,-0.21,0.67,-1.91
361,1900-01-01 12:00:37.825,22.25,24.46,-16.0,0.41,0.37,0.81,-0.89,5.08,1.07,23.1,8.73,15.79,0.15,0.4,0.92,0.79,2.98,1.19
362,1900-01-01 12:00:37.891,21.15,22.97,-15.84,0.38,0.35,0.82,-1.95,5.34,3.5,20.38,7.87,16.13,0.14,0.35,0.94,-2.37,3.15,3.06
363,1900-01-01 12:00:38.006,22.14,21.13,-15.32,0.34,0.36,0.81,-2.09,3.04,1.91,20.31,6.25,16.75,0.11,0.35,0.93,-1.5,1.58,1.29
364,1900-01-01 12:00:38.057,21.39,21.79,-15.04,0.36,0.35,0.82,-0.98,3.17,1.15,20.77,6.74,17.11,0.12,0.35,0.92,-0.53,1.93,-0.11
365,1900-01-01 12:00:38.151,20.72,20.79,-14.87,0.34,0.34,0.83,1.44,3.6,0.35,18.79,6.27,17.25,0.11,0.32,0.93,1.85,4.0,-0.56
366,1900-01-01 12:00:38.198,21.21,21.89,-14.83,0.36,0.35,0.82,-0.88,2.92,-1.0,20.7,6.84,17.32,0.12,0.35,0.91,-1.36,0.95,-1.94
367,1900-01-01 12:00:38.289,22.97,21.32,-14.99,0.35,0.38,0.82,-0.08,3.2,-0.78,22.27,5.74,17.18,0.1,0.39,0.94,1.92,2.07,-1.17
368,1900-01-01 12:00:38.364,22.52,20.69,-15.11,0.34,0.37,0.83,2.34,2.08,-1.15,20.91,5.74,17.16,0.1,0.36,0.94,3.03,-0.65,0.97
369,1900-01-01 12:00:38.477,23.23,20.91,-15.3,0.35,0.38,0.82,-1.37,1.92,-0.4,22.9,5.92,17.47,0.1,0.39,0.93,-0.8,0.23,-0.98
370,1900-01-01 12:00:38.562,22.54,21.39,-15.37,0.35,0.37,0.82,-1.05,2.2,-0.15,22.43,6.55,17.48,0.12,0.39,0.93,-0.53,-0.01,-0.6
371,1900-01-01 12:00:38.589,22.88,20.92,-15.4,0.35,0.38,0.83,-2.63,2.4,0.91,22.89,6.31,17.54,0.11,0.39,0.93,-1.24,-0.95,0.96
372,1900-01-01 12:00:38.673,22.28,20.6,-15.27,0.35,0.37,0.84,-2.93,2.47,0.67,21.03,6.36,17.85,0.11,0.37,0.95,-2.78,1.29,-0.68
373,1900-01-01 12:00:38.756,22.39,20.71,-15.17,0.34,0.37,0.83,-3.35,0.67,1.38,21.31,6.03,17.9,0.11,0.37,0.95,-1.3,-1.08,0.41
374,1900-01-01 12:00:38.832,21.81,20.7,-14.97,0.34,0.36,0.82,-2.43,0.34,1.39,21.11,6.43,18.13,0.11,0.36,0.92,-1.38,-1.74,0.1
375,1900-01-01 12:00:39.009,21.65,20.83,-14.77,0.34,0.35,0.81,-1.89,0.91,1.08,20.85,6.35,18.3,0.11,0.35,0.92,-1.25,-0.91,0.15
376,1900-01-01 12:00:39.040,21.87,20.76,-14.61,0.34,0.36,0.82,-1.94,1.15,0.33,21.06,6.4,18.48,0.11,0.36,0.92,-0.73,-0.06,-0.77
377,1900-01-01 12:00:39.040,21.23,21.19,-14.57,0.35,0.35,0.83,-1.15,1.4,0.08,20.55,6.98,18.52,0.12,0.35,0.93,-0.59,0.34,-1.37
378,1900-01-01 12:00:39.113,21.52,20.9,-14.57,0.35,0.36,0.84,-1.72,1.89,0.11,21.04,6.56,18.47,0.12,0.36,0.94,-1.03,-0.45,-0.25
379,1900-01-01 12:00:39.217,21.24,20.95,-14.56,0.35,0.35,0.83,-2.4,1.5,0.39,20.68,6.67,18.59,0.12,0.36,0.95,-1.78,0.08,-0.63
380,1900-01-01 12:00:39.298,20.94,20.8,-14.51,0.34,0.34,0.83,-2.69,1.28,1.02,20.9,6.25,18.65,0.11,0.36,0.94,-2.67,-0.92,-0.08
381,1900-01-01 12:00:39.344,20.48,21.17,-14.36,0.35,0.34,0.84,-1.92,1.18,0.68,20.4,6.93,18.8,0.12,0.35,0.93,-1.52,-0.4,-0.31
382,1900-01-01 12:00:39.437,20.47,21.44,-14.27,0.36,0.34,0.84,-3.34,1.0,0.56,19.69,7.08,18.91,0.13,0.34,0.95,-2.9,-1.98,-0.51
383,1900-01-01 12:00:39.572,20.34,21.57,-14.19,0.36,0.34,0.84,-2.62,0.35,0.86,20.25,7.59,18.99,0.13,0.35,0.94,-1.59,-1.11,-0.49
384,1900-01-01 12:00:39.572,20.02,21.8,-14.06,0.36,0.33,0.84,-2.79,0.6,1.33,19.87,7.66,19.07,0.13,0.34,0.93,-1.95,-1.4,-0.01
385,1900-01-01 12:00:39.660,19.65,21.7,-13.87,0.36,0.32,0.83,-2.5,0.7,1.11,19.01,7.78,19.23,0.14,0.33,0.94,-1.85,-0.74,-0.13
386,1900-01-01 12:00:39.772,19.39,21.62,-13.71,0.35,0.32,0.83,-2.48,1.31,0.07,18.82,7.63,19.37,0.13,0.32,0.93,-1.96,-0.51,-1.04
387,1900-01-01 12:00:39.848,19.8,21.09,-13.71,0.34,0.32,0.83,-2.02,2.34,-1.08,19.13,7.18,19.37,0.12,0.32,0.92,-1.21,0.65,-2.21
388,1900-01-01 12:00:39.877,19.97,20.08,-13.88,0.33,0.33,0.84,-1.96,2.15,-0.93,19.4,5.69,19.19,0.1,0.34,0.95,-1.21,0.83,-2.14
389,1900-01-01 12:00:39.964,19.62,20.5,-14.03,0.34,0.32,0.84,-1.37,1.15,-0.69,18.92,6.37,19.02,0.11,0.33,0.95,-0.51,-0.46,-1.43
390,1900-01-01 12:00:40.026,19.32,21.27,-14.14,0.35,0.32,0.84,-1.53,1.03,-1.21,19.07,7.31,18.96,0.13,0.33,0.94,-1.18,-0.31,-2.21
391,1900-01-01 12:00:40.121,19.31,21.24,-14.34,0.35,0.32,0.84,-1.73,1.29,-0.97,19.05,7.32,18.78,0.13,0.33,0.94,-1.48,-0.6,-1.95
392,1900-01-01 12:00:40.228,20.49,21.07,-14.49,0.35,0.34,0.84,-1.15,1.03,-0.4,20.07,6.83,18.64,0.12,0.35,0.94,0.37,-0.27,-1.45
393,1900-01-01 12:00:40.302,19.83,21.06,-14.56,0.35,0.33,0.84,-1.07,1.14,-0.01,19.34,6.85,18.58,0.12,0.33,0.93,-0.2,-0.5,-1.11
394,1900-01-01 12:00:40.329,19.52,21.03,-14.57,0.35,0.32,0.84,-0.76,2.05,-0.38,19.2,6.93,18.57,0.12,0.33,0.94,-0.37,0.5,-1.63
395,1900-01-01 12:00:40.417,20.07,21.0,-14.64,0.35,0.34,0.85,-1.31,2.66,-0.73,19.43,7.07,18.48,0.12,0.34,0.94,-1.3,1.64,-1.97
396,1900-01-01 12:00:40.484,19.97,20.28,-14.76,0.34,0.33,0.85,-0.53,-0.1,0.07,19.52,5.42,18.34,0.1,0.35,0.98,-0.22,-1.37,-1.02
397,1900-01-01 12:00:40.576,19.62,21.12,-14.76,0.35,0.32,0.84,-0.6,0.19,0.98,19.54,6.93,18.34,0.12,0.33,0.94,0.44,-1.56,0.43
398,1900-01-01 12:00:40.684,19.63,21.03,-14.62,0.35,0.33,0.85,-1.13,0.62,0.76,18.9,7.09,18.56,0.12,0.33,0.94,-0.24,-1.01,-0.29
399,1900-01-01 12:00:40.761,19.7,21.15,-14.51,0.35,0.33,0.84,-1.61,0.34,0.28,18.75,6.85,18.68,0.12,0.33,0.95,-1.15,-1.2,-0.76
400,1900-01-01 12:00:40.794,20.15,21.24,-14.48,0.35,0.33,0.83,-1.88,0.63,-0.24,19.52,7.14,18.72,0.12,0.33,0.93,-1.15,-1.58,-1.26
401,1900-01-01 12:00:40.870,20.1,21.77,-14.52,0.36,0.33,0.83,-2.25,1.44,0.04,19.72,7.43,18.69,0.13,0.34,0.93,-1.18,-0.85,-0.79
402,1900-01-01 12:00:40.949,20.14,21.89,-14.52,0.36,0.33,0.83,-1.1,1.72,-0.29,19.85,7.62,18.72,0.13,0.34,0.93,-0.38,0.47,-1.49
403,1900-01-01 12:00:41.042,20.1,21.16,-14.58,0.35,0.33,0.84,-0.88,1.46,-0.1,19.2,6.91,18.65,0.12,0.33,0.95,-0.36,-0.11,-1.01
404,1900-01-01 12:00:41.128,19.93,21.27,-14.6,0.35,0.33,0.84,-0.54,1.07,0.0,19.5,6.94,18.66,0.12,0.34,0.95,-0.05,-0.34,-0.92
405,1900-01-01 12:00:41.217,19.79,21.47,-14.61,0.35,0.33,0.84,-0.85,0.95,0.08,18.79,7.36,18.68,0.13,0.33,0.95,-0.22,-0.66,-0.53
406,1900-01-01 12:00:41.258,19.92,21.33,-14.6,0.35,0.33,0.84,-0.92,1.04,0.09,19.57,7.12,18.75,0.13,0.34,0.95,-0.51,-0.96,-1.03
407,1900-01-01 12:00:41.352,19.8,21.46,-14.6,0.35,0.33,0.84,-1.18,1.21,0.15,19.4,7.7,18.75,0.13,0.33,0.94,-1.05,-0.67,-0.94
408,1900-01-01 12:00:41.439,20.21,21.47,-14.58,0.36,0.34,0.84,-1.18,0.82,0.12,19.58,7.07,18.77,0.13,0.34,0.95,-0.66,-0.88,-1.05
409,1900-01-01 12:00:41.501,20.16,21.59,-14.57,0.36,0.33,0.84,-0.9,0.24,0.4,19.57,7.52,18.77,0.13,0.34,0.94,-0.04,-1.63,-0.56
410,1900-01-01 12:00:41.593,19.73,21.97,-14.52,0.36,0.32,0.83,-1.31,1.0,0.54,19.53,7.92,18.84,0.14,0.33,0.92,-1.04,-0.81,-0.11
411,1900-01-01 12:00:41.683,19.97,21.62,-14.45,0.35,0.33,0.83,-1.4,2.08,0.27,19.82,7.55,18.98,0.13,0.34,0.93,-2.34,0.55,-0.92
412,1900-01-01 12:00:41.723,19.91,21.7,-14.41,0.36,0.33,0.84,-1.23,1.08,0.33,18.74,7.67,19.0,0.14,0.33,0.95,-1.01,-0.66,-0.47
413,1900-01-01 12:00:41.780,19.55,22.01,-14.37,0.36,0.32,0.84,-1.05,1.21,0.14,18.76,8.14,19.09,0.14,0.32,0.95,-0.11,-0.11,-0.83
414,1900-01-01 12:00:41.876,19.71,21.99,-14.36,0.36,0.32,0.83,-1.6,1.64,0.15,18.72,8.14,19.12,0.14,0.32,0.93,-1.37,-0.5,-0.83
415,1900-01-01 12:00:41.971,19.9,21.52,-14.34,0.35,0.33,0.83,-1.4,2.09,-0.1,18.94,7.62,19.15,0.13,0.32,0.93,-1.24,0.48,-1.14
416,1900-01-01 12:00:42.050,20.43,21.28,-14.37,0.35,0.34,0.83,-1.03,2.04,-0.69,19.3,7.37,19.13,0.13,0.33,0.93,-0.96,0.63,-1.84
417,1900-01-01 12:00:42.097,20.25,21.22,-14.48,0.35,0.33,0.84,-0.76,2.5,-0.39,19.27,6.99,19.01,0.12,0.33,0.94,-0.55,1.33,-1.5
418,1900-01-01 12:00:42.190,20.52,21.61,-14.55,0.36,0.34,0.84,0.15,2.98,-0.03,19.41,7.53,18.94,0.13,0.33,0.94,1.14,2.4,-0.97
419,1900-01-01 12:00:42.248,20.0,21.37,-14.56,0.36,0.33,0.85,-1.62,2.36,0.04,18.26,7.45,18.95,0.13,0.32,0.96,-1.51,1.18,-1.18
420,1900-01-01 12:00:42.363,19.76,20.71,-14.57,0.34,0.33,0.85,-1.13,1.47,0.78,18.59,6.58,18.93,0.12,0.33,0.96,-0.73,0.03,-0.27
421,1900-01-01 12:00:42.442,19.25,20.6,-14.46,0.34,0.32,0.85,-3.19,2.18,0.87,18.08,6.98,19.05,0.12,0.31,0.94,-2.76,0.46,-0.48
422,1900-01-01 12:00:42.475,19.6,20.85,-14.33,0.34,0.32,0.84,-4.51,1.84,0.34,17.85,6.66,19.13,0.12,0.31,0.95,-4.6,-1.05,-0.76
423,1900-01-01 12:00:42.565,20.34,20.6,-14.29,0.34,0.33,0.84,-1.75,1.53,0.06,18.41,6.52,19.17,0.11,0.32,0.95,-1.62,-0.01,-1.22
424,1900-01-01 12:00:42.622,19.01,21.03,-14.29,0.35,0.31,0.84,-0.63,1.15,0.25,16.92,7.43,19.15,0.13,0.29,0.95,-0.62,-0.76,-0.63
425,1900-01-01 12:00:42.715,18.88,20.75,-14.26,0.34,0.31,0.85,-1.08,1.05,0.81,17.63,6.7,19.21,0.12,0.31,0.96,0.44,-1.14,0.27
426,1900-01-01 12:00:42.804,18.66,21.26,-14.14,0.35,0.31,0.85,-2.08,1.68,1.91,17.72,7.56,19.41,0.13,0.31,0.95,-0.92,-0.67,0.88
427,1900-01-01 12:00:42.889,18.05,21.11,-13.86,0.36,0.31,0.87,-3.95,2.29,3.18,17.41,7.52,19.7,0.14,0.31,0.98,-3.24,0.53,1.11
428,1900-01-01 12:00:42.937,17.91,20.72,-13.38,0.34,0.3,0.85,-2.78,0.37,2.6,15.9,7.0,20.03,0.12,0.28,0.97,-2.53,-1.52,1.56
429,1900-01-01 12:00:43.030,18.04,21.65,-13.0,0.35,0.29,0.83,-2.03,-0.98,1.78,16.88,7.84,20.43,0.13,0.29,0.94,-1.61,-3.06,0.47
430,1900-01-01 12:00:43.168,17.84,21.83,-12.73,0.36,0.3,0.85,-3.28,1.24,3.56,17.87,8.3,20.66,0.14,0.3,0.93,-2.76,-1.62,2.03
431,1900-01-01 12:00:43.168,17.24,21.46,-12.2,0.35,0.28,0.85,-2.48,0.94,2.85,15.18,7.89,21.12,0.14,0.26,0.97,-1.92,-0.92,1.98
432,1900-01-01 12:00:43.261,16.94,21.15,-11.77,0.35,0.28,0.85,-0.6,-0.19,0.8,15.12,7.98,21.58,0.14,0.26,0.96,0.09,-1.93,-0.06
433,1900-01-01 12:00:43.307,16.41,21.58,-11.66,0.35,0.27,0.85,-1.12,0.84,0.72,15.16,8.49,21.73,0.15,0.26,0.95,-0.27,-1.13,-0.31
434,1900-01-01 12:00:43.400,16.23,21.86,-11.56,0.36,0.27,0.85,-1.56,1.46,-0.21,15.1,8.63,21.84,0.15,0.26,0.95,-1.39,-0.75,-1.41
435,1900-01-01 12:00:43.493,16.93,22.22,-11.6,0.36,0.28,0.84,-1.6,1.88,-0.89,15.68,8.89,21.79,0.15,0.27,0.95,-0.79,0.23,-2.11
436,1900-01-01 12:00:43.538,16.99,22.02,-11.74,0.36,0.28,0.85,-1.08,1.68,-0.73,15.99,8.52,21.62,0.15,0.28,0.97,-0.29,0.41,-1.73
437,1900-01-01 12:00:43.631,16.84,22.06,-11.86,0.36,0.28,0.85,-0.88,1.3,-0.74,15.67,8.77,21.52,0.15,0.27,0.96,-0.11,-0.32,-1.78
438,1900-01-01 12:00:43.726,16.6,21.58,-11.98,0.36,0.28,0.86,-1.33,1.47,-0.63,15.44,8.29,21.4,0.15,0.27,0.96,-0.87,-0.44,-1.77
439,1900-01-01 12:00:43.774,15.65,21.04,-12.09,0.35,0.26,0.87,-2.02,1.87,-0.99,14.14,8.17,21.29,0.14,0.25,0.97,-0.92,-0.03,-1.89
440,1900-01-01 12:00:43.866,15.99,21.13,-12.25,0.35,0.27,0.86,-2.59,2.6,-2.31,14.38,8.06,21.16,0.14,0.25,0.96,-1.96,-0.02,-3.75
441,1900-01-01 12:00:43.969,16.94,21.69,-12.61,0.36,0.29,0.86,-3.68,2.56,-2.53,15.54,8.74,20.74,0.16,0.27,0.97,-3.6,-0.06,-4.95
442,1900-01-01 12:00:44.004,17.42,21.06,-13.01,0.35,0.3,0.87,-3.13,1.78,-1.92,16.4,7.9,20.14,0.14,0.29,0.98,-2.63,-1.13,-3.54
443,1900-01-01 12:00:44.097,17.27,21.74,-13.31,0.36,0.29,0.86,-3.12,2.53,-0.53,16.24,8.87,19.76,0.16,0.28,0.96,-0.73,-1.05,-1.21
444,1900-01-01 12:00:44.164,16.8,20.86,-13.4,0.34,0.28,0.86,-3.47,2.58,0.03,15.66,8.13,19.73,0.14,0.27,0.96,-2.63,0.27,-1.1
445,1900-01-01 12:00:44.249,16.34,20.48,-13.4,0.33,0.27,0.85,-0.76,2.48,0.45,14.77,8.19,19.72,0.14,0.25,0.95,0.02,0.11,0.14
446,1900-01-01 12:00:44.324,15.06,20.73,-13.34,0.34,0.25,0.85,-0.45,3.76,0.53,14.37,8.9,19.9,0.15,0.24,0.94,-0.07,1.25,0.34
447,1900-01-01 12:00:44.378,16.43,20.6,-13.27,0.34,0.28,0.87,-1.66,4.62,0.24,16.29,8.11,20.11,0.14,0.28,0.96,-0.7,2.4,-0.13
448,1900-01-01 12:00:44.469,16.6,18.99,-13.24,0.32,0.28,0.89,-0.53,4.29,1.52,15.55,6.55,20.25,0.12,0.28,1.0,1.25,2.36,1.89
449,1900-01-01 12:00:44.562,16.34,18.23,-13.02,0.31,0.28,0.89,0.21,1.78,1.55,14.12,6.49,20.7,0.12,0.25,1.0,1.22,0.46,1.82
450,1900-01-01 12:00:44.608,15.04,18.69,-12.79,0.31,0.25,0.87,1.02,-0.44,0.94,14.13,6.96,21.13,0.12,0.25,0.97,2.14,-2.63,1.44
451,1900-01-01 12:00:44.699,14.92,19.42,-12.66,0.32,0.24,0.86,0.18,1.26,0.24,14.31,7.92,21.51,0.14,0.25,0.95,2.37,-2.0,2.03
452,1900-01-01 12:00:44.770,16.78,19.14,-12.63,0.32,0.28,0.88,1.37,2.87,-2.9,14.87,8.45,21.97,0.15,0.26,0.96,3.87,1.96,-2.22
453,1900-01-01 12:00:44.872,16.99,19.82,-13.08,0.33,0.28,0.86,-1.98,2.21,-2.56,16.99,7.99,21.79,0.14,0.3,0.97,-1.87,0.18,-3.94
454,1900-01-01 12:00:44.941,18.78,19.27,-13.48,0.31,0.3,0.83,-0.49,0.29,-2.0,17.87,7.38,21.35,0.13,0.3,0.93,3.06,-1.96,-1.04
455,1900-01-01 12:00:45.025,17.59,18.83,-13.79,0.31,0.29,0.85,-0.88,2.0,-3.25,17.31,8.47,21.35,0.14,0.29,0.91,0.93,-0.5,-3.51
456,1900-01-01 12:00:45.072,18.14,16.7,-14.3,0.28,0.31,0.89,-2.7,4.37,-2.56,17.86,6.42,20.97,0.11,0.31,0.96,-1.02,1.5,-2.71
457,1900-01-01 12:00:45.167,15.39,16.55,-14.7,0.27,0.25,0.87,-0.78,3.54,-1.87,16.24,5.1,20.72,0.09,0.29,0.98,-0.53,0.4,-1.65
458,1900-01-01 12:00:45.212,16.93,19.69,-14.99,0.31,0.27,0.82,-1.06,3.75,-2.74,15.89,9.62,20.62,0.16,0.26,0.9,4.68,-3.98,2.11
459,1900-01-01 12:00:45.294,20.05,19.18,-15.42,0.31,0.32,0.83,-0.47,5.99,-5.34,19.16,11.03,21.1,0.18,0.32,0.89,2.21,-1.98,-1.87
460,1900-01-01 12:00:45.402,21.29,14.69,-16.25,0.25,0.36,0.88,2.62,2.11,-3.19,21.79,6.02,20.98,0.11,0.39,0.98,1.83,0.5,-3.82
461,1900-01-01 12:00:45.466,19.11,16.14,-16.74,0.28,0.33,0.9,2.36,1.7,0.34,20.91,8.19,20.55,0.15,0.37,0.95,4.19,-2.28,1.04
462,1900-01-01 12:00:45.551,19.06,16.81,-16.7,0.29,0.32,0.89,-0.27,3.13,1.0,19.12,10.05,20.87,0.18,0.33,0.95,2.24,-0.84,3.17
463,1900-01-01 12:00:45.638,19.62,13.22,-16.56,0.22,0.32,0.88,0.34,-1.38,1.39,19.27,5.73,21.51,0.11,0.35,0.99,1.58,-3.84,1.99
464,1900-01-01 12:00:45.678,18.02,15.85,-16.35,0.25,0.29,0.85,3.86,-2.08,0.8,18.5,9.57,21.97,0.16,0.3,0.89,6.72,-8.79,3.89
465,1900-01-01 12:00:45.771,20.31,15.86,-16.24,0.27,0.34,0.88,-0.33,1.5,-0.11,21.52,10.63,22.72,0.18,0.37,0.91,1.44,-5.11,3.1
466,1900-01-01 12:00:45.825,20.85,15.8,-16.26,0.26,0.35,0.87,-1.4,2.83,0.39,21.91,11.09,23.35,0.19,0.38,0.92,0.59,-2.84,1.75
467,1900-01-01 12:00:45.916,19.4,15.91,-16.21,0.26,0.32,0.86,-0.76,0.83,0.08,19.99,11.26,23.78,0.2,0.35,0.93,0.47,-1.91,0.73
468,1900-01-01 12:00:45.985,20.77,17.42,-16.21,0.28,0.34,0.84,-0.27,-0.48,-1.59,20.84,13.03,24.05,0.22,0.35,0.89,2.21,-4.93,-0.81
469,1900-01-01 12:00:46.078,22.02,18.03,-16.46,0.31,0.37,0.87,-0.27,1.66,-1.25,24.97,14.64,24.08,0.26,0.44,0.9,0.53,-0.27,-2.4
470,1900-01-01 12:00:46.160,20.97,17.08,-16.66,0.28,0.34,0.85,-0.69,0.31,1.1,21.85,12.96,23.87,0.23,0.38,0.92,1.23,-2.98,1.63
471,1900-01-01 12:00:46.249,21.6,15.43,-16.5,0.26,0.36,0.87,0.37,0.04,-0.84,21.98,12.46,24.28,0.22,0.38,0.92,1.5,-0.84,-1.57
472,1900-01-01 12:00:46.285,21.47,15.08,-16.64,0.25,0.35,0.86,0.16,1.47,0.2,24.02,11.52,24.2,0.2,0.41,0.89,2.01,-1.55,-0.11
473,1900-01-01 12:00:46.378,19.47,17.08,-16.62,0.28,0.32,0.86,-2.47,6.16,1.66,21.44,14.4,24.34,0.25,0.36,0.88,-1.2,3.71,2.26
474,1900-01-01 12:00:46.432,21.04,16.3,-16.37,0.27,0.35,0.86,-3.05,2.84,-0.51,20.46,13.39,24.84,0.24,0.36,0.93,-2.95,1.72,-0.78
475,1900-01-01 12:00:46.528,22.5,15.3,-16.46,0.26,0.38,0.87,-0.77,-0.01,-0.52,24.42,11.83,24.88,0.21,0.43,0.93,-0.54,-1.5,-1.52
476,1900-01-01 12:00:46.596,21.35,15.76,-16.55,0.26,0.35,0.85,-1.61,-0.43,0.97,23.03,12.99,24.81,0.23,0.39,0.9,-0.23,-2.73,0.81
477,1900-01-01 12:00:46.686,20.34,17.99,-16.41,0.29,0.33,0.83,-1.82,0.76,0.88,22.44,15.19,25.09,0.26,0.37,0.86,-0.71,-1.45,0.37
478,1900-01-01 12:00:46.773,21.04,17.68,-16.28,0.29,0.34,0.83,-0.23,0.55,-0.11,22.09,14.6,25.3,0.25,0.38,0.89,-0.07,-0.93,-0.93
479,1900-01-01 12:00:46.855,21.95,16.47,-16.31,0.27,0.36,0.86,0.24,0.6,0.59,24.05,13.56,25.32,0.24,0.42,0.9,1.15,-0.92,-0.35
480,1900-01-01 12:00:46.891,20.62,16.32,-16.23,0.27,0.34,0.85,0.69,0.63,1.46,22.07,13.56,25.43,0.24,0.38,0.9,2.04,-1.6,1.14
481,1900-01-01 12:00:46.985,21.15,15.69,-16.01,0.26,0.34,0.85,0.15,2.61,-0.05,22.66,14.01,25.76,0.24,0.38,0.87,0.62,0.98,-1.02
482,1900-01-01 12:00:47.079,21.47,15.35,-16.03,0.25,0.35,0.85,0.06,3.5,-0.49,23.31,12.95,25.76,0.22,0.39,0.89,0.15,1.66,-1.58
483,1900-01-01 12:00:47.127,20.83,15.97,-16.11,0.26,0.34,0.85,-0.33,4.24,-1.47,22.17,13.82,25.68,0.24,0.37,0.89,0.68,2.4,-2.04
484,1900-01-01 12:00:47.218,21.3,15.56,-16.35,0.26,0.35,0.86,-0.93,4.46,-2.32,22.51,13.14,25.53,0.23,0.39,0.9,-0.96,2.95,-3.05
485,1900-01-01 12:00:47.289,22.7,14.28,-16.71,0.24,0.38,0.87,-0.34,0.97,-1.95,24.07,11.52,25.22,0.21,0.43,0.95,-0.93,0.47,-3.6
486,1900-01-01 12:00:47.396,24.01,17.01,-17.02,0.29,0.41,0.87,0.11,-0.17,-0.73,26.18,15.11,24.82,0.26,0.45,0.87,2.05,-3.93,-1.61
487,1900-01-01 12:00:47.465,22.4,14.6,-17.14,0.25,0.37,0.87,-1.33,0.63,3.16,25.22,11.33,24.73,0.21,0.45,0.93,0.1,-0.7,2.43
488,1900-01-01 12:00:47.544,19.76,17.52,-16.66,0.28,0.31,0.83,0.57,-0.34,1.21,20.24,15.65,25.26,0.26,0.33,0.87,1.48,-2.88,0.9
489,1900-01-01 12:00:47.590,23.32,14.65,-16.49,0.24,0.38,0.85,-1.48,0.9,-0.91,24.81,13.6,25.56,0.23,0.41,0.86,-1.27,-0.05,-2.05
490,1900-01-01 12:00:47.683,21.82,15.29,-16.63,0.25,0.35,0.84,0.44,2.37,0.68,24.43,12.66,25.4,0.22,0.41,0.87,1.57,0.43,0.0
491,1900-01-01 12:00:47.730,21.23,15.81,-16.54,0.26,0.35,0.85,-1.31,5.61,-1.19,22.66,14.33,25.56,0.24,0.38,0.87,-1.36,4.68,-2.43
492,1900-01-01 12:00:47.878,23.1,14.64,-16.73,0.25,0.38,0.86,-0.88,3.05,-2.0,23.67,12.07,25.35,0.22,0.42,0.92,-0.2,1.72,-3.01
493,1900-01-01 12:00:47.917,24.66,15.46,-17.05,0.26,0.41,0.86,-0.27,0.95,-1.19,27.24,12.62,25.05,0.22,0.47,0.88,0.63,-1.17,-2.53
494,1900-01-01 12:00:47.965,23.43,13.67,-17.24,0.24,0.4,0.88,-1.97,0.98,2.99,26.32,11.06,24.82,0.21,0.48,0.94,-0.67,0.47,2.03
495,1900-01-01 12:00:48.058,21.03,15.59,-16.79,0.26,0.34,0.85,-2.04,-1.44,1.61,21.68,13.19,25.29,0.23,0.37,0.91,0.06,-4.27,1.84
496,1900-01-01 12:00:48.156,23.04,14.86,-16.55,0.24,0.37,0.84,-1.78,0.64,-0.54,24.95,13.22,25.73,0.22,0.41,0.86,-1.14,-1.15,-1.43
497,1900-01-01 12:00:48.195,21.84,15.14,-16.64,0.25,0.35,0.84,-1.18,1.84,-0.04,24.56,12.78,25.66,0.22,0.41,0.87,-0.21,0.1,-0.76
498,1900-01-01 12:00:48.289,21.84,16.53,-16.66,0.27,0.35,0.84,-0.99,2.29,-1.21,23.31,14.58,25.71,0.25,0.39,0.86,-0.45,1.16,-2.27
499,1900-01-01 12:00:48.411,22.57,12.59,-16.85,0.21,0.36,0.85,-0.83,1.27,-0.47,25.85,9.11,25.52,0.17,0.46,0.94,-1.73,0.79,-1.73
500,1900-01-01 12:00:48.439,21.09,20.24,-16.93,0.33,0.34,0.82,-0.62,5.41,-2.48,22.41,20.26,25.41,0.31,0.35,0.78,1.92,1.03,-2.09
501,1900-01-01 12:00:48.508,26.83,11.25,-17.32,0.2,0.47,0.91,-3.05,1.76,-0.94,28.83,8.65,25.25,0.17,0.56,1.0,-5.17,2.82,-3.57
502,1900-01-01 12:00:48.604,24.25,13.07,-17.47,0.22,0.4,0.86,3.42,-4.19,5.47,26.35,9.57,24.86,0.17,0.46,0.92,7.64,-7.88,6.11
503,1900-01-01 12:00:48.673,21.15,16.45,-16.65,0.27,0.34,0.84,-0.85,0.89,2.58,22.68,15.76,25.95,0.26,0.36,0.83,0.89,-1.64,2.47
504,1900-01-01 12:00:48.756,23.31,13.49,-16.26,0.22,0.38,0.85,-2.17,1.31,-0.04,23.96,12.14,26.48,0.21,0.41,0.9,-1.76,0.53,-0.98
505,1900-01-01 12:00:48.841,22.64,15.55,-16.28,0.26,0.37,0.84,-1.27,1.0,-0.76,24.84,13.85,26.49,0.23,0.41,0.86,0.82,-1.47,-1.02
506,1900-01-01 12:00:48.894,23.44,15.12,-16.4,0.25,0.38,0.85,-2.03,1.92,-1.75,25.17,13.05,26.5,0.23,0.43,0.88,-2.02,1.23,-3.18
507,1900-01-01 12:00:48.988,24.31,14.99,-16.68,0.25,0.4,0.84,-1.15,0.01,-1.24,26.49,12.56,26.17,0.22,0.46,0.89,-0.56,-1.08,-2.37
508,1900-01-01 12:00:49.034,23.58,16.22,-16.88,0.27,0.39,0.84,-0.59,0.47,-0.4,26.76,13.97,25.96,0.24,0.45,0.86,0.92,-1.79,-0.99
509,1900-01-01 12:00:49.127,23.09,15.92,-16.95,0.26,0.38,0.85,-1.71,2.32,-0.25,25.26,14.04,25.97,0.24,0.43,0.88,-1.27,0.64,-1.23
510,1900-01-01 12:00:49.191,23.91,15.56,-16.99,0.26,0.39,0.84,-1.45,1.81,-0.21,25.68,13.49,25.94,0.24,0.44,0.88,-1.11,0.36,-1.24
511,1900-01-01 12:00:49.292,23.71,15.86,-17.03,0.26,0.38,0.83,-0.87,0.77,-0.07,26.15,13.44,25.91,0.23,0.44,0.87,-0.05,-1.39,-0.73
512,1900-01-01 12:00:49.362,23.62,14.99,-17.05,0.25,0.39,0.85,-1.27,2.52,-0.14,26.24,13.4,25.95,0.23,0.44,0.86,-1.4,1.01,-1.11
513,1900-01-01 12:00:49.449,23.28,15.08,-17.08,0.25,0.38,0.86,-1.25,1.34,0.22,24.72,12.92,25.94,0.23,0.43,0.9,-0.32,-0.48,-0.21
514,1900-01-01 12:00:49.536,23.74,14.4,-17.06,0.24,0.39,0.86,-1.73,0.83,0.6,25.91,12.52,26.07,0.22,0.45,0.9,-1.39,-0.53,-0.58
515,1900-01-01 12:00:49.595,23.3,16.0,-16.97,0.27,0.38,0.84,-1.82,-0.11,0.6,24.94,14.21,26.14,0.25,0.42,0.88,-0.42,-2.22,0.11
516,1900-01-01 12:00:49.708,23.45,15.61,-16.89,0.26,0.38,0.84,-1.68,0.31,0.63,26.15,13.59,26.31,0.24,0.44,0.87,-0.99,-1.69,-0.15
517,1900-01-01 12:00:49.741,22.88,17.51,-16.8,0.28,0.37,0.82,-1.56,2.12,0.45,25.1,15.86,26.45,0.27,0.41,0.84,-1.13,0.66,-0.24
518,1900-01-01 12:00:49.801,23.67,15.34,-16.74,0.25,0.39,0.84,-0.34,1.83,0.28,25.56,13.43,26.57,0.24,0.44,0.89,-0.29,1.08,-0.98
519,1900-01-01 12:00:49.899,23.61,13.38,-16.71,0.22,0.39,0.86,0.4,-0.08,0.75,25.63,11.41,26.58,0.2,0.45,0.91,1.21,-1.24,0.08
520,1900-01-01 12:00:49.981,22.25,15.13,-16.6,0.25,0.37,0.86,-1.39,1.47,0.89,24.85,13.69,26.75,0.24,0.42,0.87,0.18,0.17,0.95
521,1900-01-01 12:00:50.071,21.31,15.29,-16.48,0.25,0.34,0.83,-1.49,1.31,-1.24,22.37,12.52,27.05,0.22,0.38,0.9,-1.79,0.47,-1.22
522,1900-01-01 12:00:50.137,23.22,18.29,-16.68,0.3,0.38,0.83,-1.81,2.72,-3.23,24.79,17.14,27.02,0.29,0.41,0.83,-1.69,0.62,-4.24
523,1900-01-01 12:00:50.201,25.86,14.54,-17.18,0.25,0.44,0.86,-0.47,0.13,-0.15,28.46,12.04,26.53,0.23,0.52,0.92,-0.36,-0.49,-1.85
524,1900-01-01 12:00:50.318,25.21,13.66,-17.21,0.23,0.42,0.87,0.35,-2.58,3.26,28.24,11.33,26.41,0.21,0.5,0.91,1.8,-4.05,2.24
525,1900-01-01 12:00:50.344,20.34,18.77,-16.72,0.3,0.32,0.81,-0.84,1.46,2.63,21.96,17.66,26.91,0.28,0.34,0.8,2.69,-2.1,4.02
526,1900-01-01 12:00:50.434,22.96,16.31,-16.33,0.27,0.38,0.85,-2.64,3.38,-2.89,23.29,15.2,27.68,0.26,0.4,0.89,-3.46,3.36,-4.08
527,1900-01-01 12:00:50.500,24.89,13.88,-16.78,0.23,0.41,0.85,-2.03,0.05,-0.06,28.42,10.61,27.21,0.2,0.51,0.92,-2.69,-1.57,-1.38
528,1900-01-01 12:00:50.660,22.55,18.21,-16.8,0.3,0.36,0.83,-2.42,1.82,0.24,24.85,17.16,27.16,0.28,0.41,0.83,-0.38,-0.39,0.51
529,1900-01-01 12:00:50.660,23.31,16.1,-16.77,0.27,0.38,0.85,-1.5,0.11,0.13,25.19,14.01,27.4,0.25,0.44,0.9,-0.85,-1.04,-1.1
530,1900-01-01 12:00:50.766,23.33,14.13,-16.76,0.23,0.38,0.84,-0.69,-0.93,1.23,26.83,11.63,27.39,0.21,0.46,0.9,-0.61,-2.56,0.02
531,1900-01-01 12:00:50.835,19.23,21.83,-16.58,0.34,0.3,0.8,0.2,4.44,0.24,20.42,22.37,27.55,0.34,0.31,0.76,2.36,1.85,-0.37
532,1900-01-01 12:00:50.896,25.08,14.69,-16.55,0.25,0.42,0.86,-1.86,3.05,-2.54,25.89,12.68,27.65,0.23,0.47,0.93,-4.48,3.97,-5.38
533,1900-01-01 12:00:50.942,25.28,14.46,-16.95,0.24,0.41,0.84,1.14,0.42,1.5,28.43,11.31,26.98,0.2,0.49,0.88,2.48,-2.03,1.05
534,1900-01-01 12:00:51.093,22.22,15.24,-16.73,0.25,0.36,0.84,-0.36,2.8,0.64,24.16,14.02,27.3,0.24,0.4,0.86,-0.02,1.31,0.18
535,1900-01-01 12:00:51.093,23.51,15.26,-16.64,0.26,0.39,0.86,-1.6,2.02,-0.51,24.93,13.36,27.49,0.24,0.43,0.9,-1.55,0.53,-1.7
536,1900-01-01 12:00:51.178,24.49,15.17,-16.72,0.26,0.41,0.87,-1.44,0.56,1.27,27.45,12.82,27.39,0.24,0.49,0.91,-0.53,-1.21,0.33
537,1900-01-01 12:00:51.270,22.97,16.34,-16.54,0.27,0.38,0.85,-2.12,-0.48,2.95,25.51,14.58,27.59,0.26,0.44,0.88,-0.24,-2.38,2.9
538,1900-01-01 12:00:51.357,22.5,15.62,-16.09,0.26,0.36,0.84,-2.82,0.05,1.63,24.25,14.17,28.2,0.25,0.41,0.88,-2.04,-1.63,1.1
539,1900-01-01 12:00:51.442,22.9,16.51,-15.85,0.27,0.37,0.83,-2.41,0.56,0.21,24.57,15.03,28.52,0.25,0.41,0.85,-1.46,-1.15,-0.27
540,1900-01-01 12:00:51.506,23.14,16.04,-15.83,0.26,0.37,0.83,-1.68,1.15,-0.45,25.13,13.94,28.64,0.24,0.42,0.87,-1.21,-0.1,-1.43
541,1900-01-01 12:00:51.551,22.56,16.24,-15.91,0.27,0.37,0.84,-0.53,0.58,-1.18,24.39,14.45,28.58,0.25,0.41,0.88,0.08,-0.61,-2.07
542,1900-01-01 12:00:51.630,22.36,16.96,-16.1,0.28,0.37,0.84,-0.7,1.52,-1.27,24.78,15.47,28.42,0.26,0.42,0.86,0.39,-0.08,-2.21
543,1900-01-01 12:00:51.720,22.77,17.48,-16.3,0.29,0.38,0.85,-0.57,2.29,-0.6,25.94,15.25,28.24,0.27,0.45,0.88,-0.24,0.56,-1.86
544,1900-01-01 12:00:51.827,23.57,15.45,-16.4,0.26,0.39,0.86,-1.08,1.56,0.08,25.8,13.93,28.11,0.25,0.45,0.9,-0.48,0.31,-0.15
545,1900-01-01 12:00:51.900,22.6,16.45,-16.39,0.27,0.37,0.84,-0.53,-0.57,-0.54,24.13,14.49,28.25,0.25,0.41,0.89,0.56,-3.5,-0.02
546,1900-01-01 12:00:51.973,24.46,16.98,-16.49,0.28,0.4,0.83,-1.51,1.08,-0.6,27.29,15.78,28.41,0.27,0.45,0.84,-1.14,-1.34,-1.6
547,1900-01-01 12:00:52.019,24.31,17.09,-16.59,0.29,0.4,0.84,-1.45,2.71,1.2,27.15,15.46,28.32,0.27,0.47,0.87,-1.02,1.31,-0.11
548,1900-01-01 12:00:52.113,23.27,16.68,-16.41,0.28,0.39,0.85,-1.14,1.66,2.06,25.55,15.32,28.46,0.27,0.44,0.89,-0.09,0.26,1.31
549,1900-01-01 12:00:52.191,22.36,15.52,-16.11,0.26,0.37,0.85,-1.47,0.59,1.49,24.06,14.0,28.82,0.25,0.42,0.9,-0.62,-0.92,0.94
550,1900-01-01 12:00:52.261,22.52,16.15,-15.89,0.26,0.36,0.84,-1.78,0.71,-0.15,24.4,15.06,29.12,0.26,0.41,0.86,-1.07,-0.86,-0.92
551,1900-01-01 12:00:52.364,22.86,16.02,-15.92,0.26,0.37,0.83,-1.61,1.4,-0.18,24.82,14.52,29.14,0.25,0.42,0.87,-0.93,0.66,-1.18
552,1900-01-01 12:00:52.440,22.76,16.87,-15.95,0.28,0.37,0.84,-0.77,1.27,-0.95,24.72,15.41,29.12,0.26,0.42,0.86,-0.15,-0.08,-1.85
553,1900-01-01 12:00:52.487,23.33,16.74,-16.11,0.28,0.38,0.85,-1.39,2.67,-0.44,26.26,15.16,28.99,0.26,0.45,0.87,-0.89,1.49,-1.95
554,1900-01-01 12:00:52.579,22.81,16.25,-16.18,0.27,0.38,0.85,-0.89,1.71,-0.14,24.77,14.45,28.85,0.26,0.43,0.9,-0.8,1.28,-1.2
555,1900-01-01 12:00:52.626,23.49,15.71,-16.21,0.26,0.38,0.84,-0.9,0.08,-0.9,25.38,14.3,28.82,0.25,0.43,0.88,-0.23,-1.34,-1.89
556,1900-01-01 12:00:52.717,24.37,16.53,-16.36,0.28,0.4,0.84,-1.5,1.52,0.15,27.62,14.57,28.69,0.25,0.46,0.85,-0.77,-0.2,-1.08
557,1900-01-01 12:00:52.810,23.2,16.15,-16.35,0.27,0.38,0.85,-1.39,1.72,1.15,25.52,14.02,28.68,0.25,0.45,0.9,-1.04,1.05,0.26
558,1900-01-01 12:00:52.857,22.35,17.05,-16.18,0.28,0.37,0.85,-1.94,0.56,0.68,24.24,15.27,28.88,0.27,0.42,0.88,-0.97,-1.03,0.01
559,1900-01-01 12:00:52.951,23.25,16.4,-16.08,0.27,0.38,0.84,-2.04,0.87,0.71,25.6,14.54,29.04,0.25,0.44,0.88,-1.27,-0.53,-0.33
560,1900-01-01 12:00:53.052,22.63,16.21,-15.98,0.27,0.37,0.84,-1.79,0.19,0.36,24.11,14.32,29.15,0.25,0.41,0.88,-0.9,-1.19,-0.14
561,1900-01-01 12:00:53.092,22.51,16.49,-15.94,0.27,0.36,0.83,-1.78,1.02,-0.92,24.77,15.08,29.29,0.25,0.41,0.85,-0.96,-0.97,-1.63
562,1900-01-01 12:00:53.184,22.71,16.46,-16.09,0.27,0.37,0.84,-1.5,2.0,-0.98,24.81,14.46,29.2,0.25,0.42,0.88,-1.13,0.54,-2.02
563,1900-01-01 12:00:53.244,23.14,17.08,-16.24,0.28,0.38,0.84,-0.84,1.55,-1.05,25.47,15.15,29.04,0.26,0.43,0.87,-0.48,0.05,-2.19
564,1900-01-01 12:00:53.334,23.04,17.28,-16.41,0.29,0.38,0.84,-0.34,1.95,-0.11,25.72,15.08,28.87,0.26,0.44,0.87,0.44,0.39,-1.01
565,1900-01-01 12:00:53.410,23.26,16.03,-16.44,0.27,0.38,0.85,-0.17,1.34,-0.42,24.85,14.17,28.87,0.25,0.43,0.89,-0.12,0.5,-1.56
566,1900-01-01 12:00:53.505,23.74,16.4,-16.51,0.27,0.39,0.84,-0.68,2.05,-0.37,25.84,14.81,28.79,0.25,0.43,0.85,0.37,0.11,-1.12
567,1900-01-01 12:00:53.573,23.92,15.38,-16.58,0.26,0.39,0.85,-0.85,2.02,-0.31,25.65,12.98,28.78,0.23,0.45,0.9,-0.46,1.05,-1.39
568,1900-01-01 12:00:53.658,24.22,15.59,-16.63,0.26,0.4,0.85,-0.4,0.55,-0.28,26.34,13.48,28.72,0.24,0.45,0.88,0.16,-1.24,-1.09
569,1900-01-01 12:00:53.740,22.85,15.85,-16.68,0.27,0.38,0.86,-1.09,1.29,1.11,25.64,13.87,28.72,0.24,0.44,0.88,-0.04,-0.35,0.38
570,1900-01-01 12:00:53.790,22.35,15.41,-16.52,0.26,0.37,0.86,-2.05,0.69,0.22,23.73,13.58,28.93,0.24,0.41,0.9,-1.28,-0.47,-0.32
571,1900-01-01 12:00:53.882,23.36,16.46,-16.5,0.27,0.38,0.83,-2.47,-0.08,-1.3,25.01,14.49,29.04,0.25,0.42,0.87,-1.8,-2.2,-1.86
572,1900-01-01 12:00:53.928,24.05,16.99,-16.71,0.28,0.39,0.83,-2.88,1.53,-0.86,26.78,15.14,28.91,0.26,0.45,0.85,-2.23,-0.27,-1.85
573,1900-01-01 12:00:54.021,23.89,17.08,-16.85,0.28,0.39,0.83,-0.95,0.86,0.12,26.5,14.95,28.79,0.26,0.45,0.86,-0.44,-0.69,-0.83
574,1900-01-01 12:00:54.090,23.24,17.34,-16.84,0.29,0.38,0.84,-0.65,1.56,0.56,25.62,15.55,28.82,0.27,0.43,0.86,0.24,-0.21,-0.31
575,1900-01-01 12:00:54.185,22.44,16.37,-16.76,0.27,0.37,0.85,-0.81,1.85,0.9,24.98,14.21,28.93,0.25,0.43,0.89,-0.33,0.43,-0.01
576,1900-01-01 12:00:54.254,22.76,16.05,-16.63,0.27,0.37,0.84,-1.35,1.24,0.2,24.12,14.6,29.09,0.26,0.41,0.89,-0.7,0.37,-0.53
577,1900-01-01 12:00:54.359,23.69,15.96,-16.61,0.26,0.38,0.83,-0.42,0.86,-0.82,25.41,14.09,29.16,0.24,0.42,0.86,0.32,-0.73,-1.11
578,1900-01-01 12:00:54.445,23.45,15.09,-16.74,0.25,0.38,0.84,-0.69,1.77,-0.46,25.52,12.92,29.15,0.23,0.43,0.88,0.16,0.47,-1.14
579,1900-01-01 12:00:54.485,23.0,16.71,-16.82,0.28,0.38,0.84,-0.82,2.24,-1.88,24.56,15.1,29.14,0.26,0.41,0.87,-0.21,0.65,-2.87
580,1900-01-01 12:00:54.536,24.1,16.4,-17.12,0.28,0.4,0.85,-1.56,2.53,-0.58,26.72,14.23,28.86,0.25,0.47,0.89,-0.85,1.05,-1.84
581,1900-01-01 12:00:54.616,23.56,15.84,-17.21,0.26,0.39,0.85,-0.45,-0.1,0.4,25.32,13.5,28.73,0.24,0.44,0.91,0.3,-1.38,-0.11
582,1900-01-01 12:00:54.719,25.1,16.41,-17.16,0.28,0.42,0.84,-0.53,-0.76,0.69,27.19,14.91,28.87,0.26,0.46,0.85,0.5,-2.6,-0.37
583,1900-01-01 12:00:54.800,22.27,17.33,-17.06,0.28,0.35,0.82,-0.37,1.65,1.96,25.59,14.34,28.98,0.24,0.42,0.85,1.17,-1.41,2.31
584,1900-01-01 12:00:54.888,22.05,17.01,-16.77,0.28,0.36,0.84,-1.96,3.82,-2.12,22.25,16.59,29.49,0.28,0.37,0.87,-2.83,3.82,-3.31
585,1900-01-01 12:00:54.955,25.22,13.67,-17.11,0.23,0.41,0.84,0.82,-0.4,-1.91,28.09,10.4,29.14,0.19,0.49,0.9,0.53,-2.31,-3.08
586,1900-01-01 12:00:55.000,24.28,17.84,-17.41,0.3,0.4,0.84,-2.18,5.33,-0.85,28.28,17.69,28.82,0.29,0.46,0.8,-1.89,3.48,-2.44
587,1900-01-01 12:00:55.093,24.51,13.07,-17.55,0.22,0.41,0.86,-0.23,0.24,2.69,26.42,9.6,28.61,0.19,0.5,0.98,0.32,-0.28,1.8
588,1900-01-01 12:00:55.217,23.18,19.2,-17.15,0.32,0.38,0.83,-1.27,1.6,1.3,25.28,18.79,29.04,0.3,0.4,0.8,0.4,-1.59,1.4
589,1900-01-01 12:00:55.243,25.34,12.34,-16.96,0.22,0.43,0.89,-1.66,-0.22,2.6,27.3,10.2,29.41,0.2,0.51,0.97,-1.69,0.75,0.47
590,1900-01-01 12:00:55.301,21.08,16.96,-16.57,0.27,0.34,0.83,-1.54,-1.02,1.56,21.86,15.38,29.64,0.25,0.35,0.85,1.91,-5.01,3.09
591,1900-01-01 12:00:55.389,23.66,16.57,-16.34,0.27,0.38,0.82,-4.02,3.64,-3.07,25.09,15.39,30.27,0.26,0.41,0.83,-4.36,2.15,-4.52
592,1900-01-01 12:00:55.489,25.66,16.16,-16.81,0.27,0.42,0.83,-2.66,2.47,-0.76,28.27,13.48,29.74,0.24,0.49,0.89,-3.18,1.73,-2.61
593,1900-01-01 12:00:55.558,24.65,17.13,-16.94,0.29,0.4,0.83,-0.27,0.18,1.46,27.39,14.89,29.5,0.26,0.47,0.86,0.63,-1.9,0.8
594,1900-01-01 12:00:55.651,22.69,16.15,-16.73,0.27,0.37,0.85,-1.13,1.24,2.63,25.42,14.58,29.78,0.26,0.44,0.88,0.02,0.08,1.95
595,1900-01-01 12:00:55.680,21.85,15.53,-16.33,0.26,0.36,0.86,-2.17,1.45,0.9,23.28,14.34,30.24,0.25,0.4,0.89,-1.15,-0.12,0.36
596,1900-01-01 12:00:55.759,23.11,15.79,-16.21,0.26,0.38,0.85,-3.48,1.77,0.21,25.25,14.1,30.45,0.25,0.43,0.88,-2.63,-0.02,-0.73
597,1900-01-01 12:00:55.846,23.59,15.35,-16.18,0.25,0.38,0.83,-2.41,0.48,0.47,25.39,13.3,30.5,0.23,0.43,0.88,-1.5,-1.05,-0.11
598,1900-01-01 12:00:55.941,22.61,16.49,-16.12,0.27,0.36,0.83,-1.41,0.36,0.13,24.72,15.07,30.64,0.25,0.41,0.85,-0.21,-1.7,-0.45
599,1900-01-01 12:00:56.000,22.82,16.98,-16.11,0.28,0.37,0.83,-0.79,1.47,-0.37,25.06,15.01,30.73,0.26,0.42,0.86,-0.59,0.11,-1.51
600,1900-01-01 12:00:56.104,22.89,16.12,-16.17,0.27,0.38,0.85,-0.56,1.05,0.02,25.11,14.37,30.65,0.26,0.44,0.9,-0.23,-0.14,-1.0
601,1900-01-01 12:00:56.173,21.89,17.09,-16.18,0.28,0.36,0.85,-0.75,0.21,-0.03,24.32,15.37,30.66,0.27,0.42,0.88,0.55,-1.72,-0.57
602,1900-01-01 12:00:56.259,23.02,16.4,-16.19,0.27,0.38,0.85,-2.02,2.52,-0.14,25.76,15.08,30.73,0.26,0.43,0.86,-1.36,0.79,-1.23
603,1900-01-01 12:00:56.307,22.21,15.68,-16.22,0.26,0.36,0.85,-1.55,1.2,-0.28,23.78,13.85,30.7,0.24,0.41,0.9,-0.53,-0.16,-0.83
604,1900-01-01 12:00:56.399,23.93,16.54,-16.27,0.27,0.39,0.83,-0.73,-0.23,-1.65,25.88,14.89,30.73,0.25,0.43,0.85,-0.11,-1.97,-2.85
605,1900-01-01 12:00:56.447,24.16,16.7,-16.53,0.28,0.4,0.84,-1.03,1.96,0.4,28.05,14.96,30.45,0.26,0.47,0.85,-0.69,0.66,-1.21
606,1900-01-01 12:00:56.518,22.02,16.39,-16.48,0.27,0.36,0.85,-0.13,0.98,0.89,23.62,14.49,30.42,0.26,0.41,0.9,0.86,-0.38,0.56
607,1900-01-01 12:00:56.602,22.23,16.91,-16.35,0.28,0.36,0.84,-0.45,0.21,-1.14,24.04,15.14,30.67,0.26,0.41,0.87,0.24,-1.55,-1.88
608,1900-01-01 12:00:56.705,23.5,16.46,-16.53,0.27,0.38,0.84,-1.23,2.81,-1.13,26.38,14.95,30.54,0.26,0.44,0.86,-1.15,1.41,-2.58
609,1900-01-01 12:00:56.784,23.37,15.44,-16.72,0.26,0.39,0.85,-0.95,2.08,-0.9,25.24,13.55,30.3,0.24,0.44,0.9,-0.85,1.08,-1.85
610,1900-01-01 12:00:56.875,23.59,16.47,-16.86,0.27,0.39,0.84,-0.71,-0.01,-0.91,25.74,14.44,30.18,0.25,0.44,0.88,0.02,-1.84,-1.7
611,1900-01-01 12:00:56.940,24.05,16.7,-17.01,0.28,0.39,0.83,-1.3,1.24,0.27,27.22,14.73,30.07,0.26,0.46,0.86,-0.61,-0.14,-0.88
612,1900-01-01 12:00:57.005,23.64,16.9,-16.98,0.28,0.39,0.84,-0.49,0.4,0.34,25.22,15.24,30.1,0.27,0.43,0.87,0.43,-1.08,-0.33
613,1900-01-01 12:00:57.121,23.49,16.85,-16.93,0.28,0.39,0.84,-0.63,1.62,0.41,26.11,15.21,30.21,0.26,0.44,0.85,0.63,-0.45,-0.18
614,1900-01-01 12:00:57.144,23.27,14.08,-16.88,0.24,0.39,0.87,-1.97,2.56,0.31,25.39,12.51,30.34,0.23,0.45,0.92,-2.02,1.87,-0.95
615,1900-01-01 12:00:57.240,22.09,15.09,-16.84,0.24,0.35,0.83,-1.45,-0.66,-1.88,22.15,13.5,30.35,0.23,0.37,0.88,-0.2,-2.87,-1.65
616,1900-01-01 12:00:57.307,23.65,19.01,-17.14,0.3,0.37,0.79,-2.66,4.33,-3.21,26.51,17.44,30.26,0.28,0.41,0.78,-1.77,1.05,-4.03
617,1900-01-01 12:00:57.384,25.91,15.91,-17.64,0.27,0.43,0.83,0.0,3.45,-2.28,27.59,13.85,29.8,0.25,0.49,0.9,-0.95,4.1,-4.34
618,1900-01-01 12:00:57.483,25.47,15.6,-17.99,0.26,0.42,0.83,4.32,-1.31,0.34,28.25,12.96,29.29,0.23,0.48,0.87,5.73,-3.69,-0.02
619,1900-01-01 12:00:57.554,23.31,14.65,-17.95,0.25,0.39,0.87,0.5,3.56,1.31,26.35,13.93,29.45,0.24,0.44,0.86,1.56,2.61,0.52
620,1900-01-01 12:00:57.613,22.03,14.32,-17.76,0.24,0.36,0.86,-0.43,0.13,-0.17,21.59,12.17,29.69,0.22,0.38,0.94,1.38,-0.8,0.5
621,1900-01-01 12:00:57.727,26.5,15.94,-17.79,0.27,0.44,0.83,-1.69,0.21,-2.8,28.61,14.45,29.92,0.25,0.48,0.85,-1.43,-1.16,-4.5
622,1900-01-01 12:00:57.752,26.33,14.71,-18.23,0.25,0.43,0.84,-0.5,-1.26,0.61,29.24,11.72,29.39,0.22,0.52,0.9,0.36,-2.44,-0.23
623,1900-01-01 12:00:57.845,24.03,18.55,-18.15,0.3,0.38,0.81,-0.08,-0.5,-0.05,26.52,16.91,29.51,0.28,0.43,0.81,0.97,-2.61,-0.34
624,1900-01-01 12:00:57.910,25.65,17.02,-18.16,0.28,0.42,0.82,-0.89,2.21,-1.12,27.44,15.14,29.62,0.26,0.46,0.84,-0.42,1.22,-2.2
625,1900-01-01 12:00:58.003,26.54,15.81,-18.35,0.27,0.44,0.84,-0.23,1.93,0.15,29.78,13.26,29.44,0.24,0.52,0.87,0.1,1.01,-1.27
626,1900-01-01 12:00:58.085,24.65,15.56,-18.33,0.26,0.41,0.85,-1.82,3.02,1.72,27.46,13.9,29.4,0.24,0.47,0.86,-0.44,1.04,1.4
627,1900-01-01 12:00:58.159,23.72,16.45,-18.08,0.27,0.38,0.83,-3.24,2.69,0.08,24.6,14.05,29.78,0.24,0.42,0.88,-2.58,1.41,-0.18
628,1900-01-01 12:00:58.245,26.82,15.4,-18.07,0.26,0.44,0.83,-2.68,0.42,-0.77,28.67,13.16,29.91,0.24,0.5,0.88,-2.95,-0.76,-2.5
629,1900-01-01 12:00:58.334,25.86,15.66,-18.2,0.26,0.41,0.82,-0.5,-1.63,2.84,29.0,12.65,29.68,0.22,0.49,0.86,0.71,-4.08,2.34
630,1900-01-01 12:00:58.359,25.04,16.65,-17.78,0.27,0.4,0.8,-0.64,-0.05,2.11,26.43,15.53,30.2,0.26,0.43,0.82,0.76,-1.69,1.99
631,1900-01-01 12:00:58.449,25.96,16.92,-17.46,0.27,0.41,0.8,0.38,0.64,1.34,27.81,14.49,30.66,0.25,0.46,0.83,1.4,-1.4,0.66
632,1900-01-01 12:00:58.544,26.32,17.64,-17.27,0.29,0.43,0.81,0.54,2.17,1.17,29.23,15.96,30.92,0.27,0.48,0.82,1.4,0.0,-0.34
633,1900-01-01 12:00:58.593,26.58,17.84,-17.1,0.3,0.43,0.81,0.46,3.37,2.48,29.13,16.04,31.02,0.28,0.49,0.83,0.65,3.06,-0.18
634,1900-01-01 12:00:58.684,26.34,16.04,-16.73,0.27,0.43,0.82,0.45,3.64,3.73,28.9,13.83,31.16,0.24,0.49,0.85,-1.97,11.46,-2.52
635,1900-01-01 12:00:58.758,24.82,14.54,-16.17,0.24,0.41,0.85,0.34,2.56,2.25,25.51,10.43,30.93,0.18,0.44,0.9,-1.08,11.35,-3.94
636,1900-01-01 12:00:58.871,23.32,14.7,-15.83,0.25,0.39,0.88,-3.93,0.72,0.57,24.79,8.57,30.49,0.16,0.45,0.95,-8.27,3.24,-4.11
637,1900-01-01 12:00:58.938,25.95,16.26,-15.75,0.27,0.42,0.81,-1.27,-1.56,-0.1,26.95,9.57,30.02,0.16,0.45,0.87,-1.24,0.95,-4.41
638,1900-01-01 12:00:58.964,27.38,19.14,-15.77,0.31,0.43,0.78,-1.68,2.4,0.92,30.4,8.99,29.5,0.16,0.52,0.87,-5.22,1.11,-8.94
639,1900-01-01 12:00:59.054,22.73,19.75,-15.64,0.34,0.39,0.86,1.37,-1.45,1.65,22.95,11.25,28.3,0.21,0.43,0.99,0.06,3.6,-10.73
640,1900-01-01 12:00:59.147,27.93,15.2,-15.4,0.24,0.43,0.78,1.46,1.91,-1.86,26.42,5.62,26.82,0.09,0.42,0.85,6.55,-6.82,-9.78
641,1900-01-01 12:00:59.206,25.82,16.83,-15.69,0.28,0.42,0.83,-1.92,-0.02,1.3,29.99,7.16,25.48,0.13,0.5,0.86,-0.2,-1.14,-6.11
642,1900-01-01 12:00:59.309,24.29,18.41,-15.5,0.32,0.41,0.86,-2.81,-0.21,2.27,29.16,8.85,24.71,0.16,0.51,0.89,-1.18,2.44,-6.6
643,1900-01-01 12:00:59.374,24.74,19.13,-15.16,0.32,0.4,0.82,-6.17,0.56,2.95,28.5,7.48,23.85,0.13,0.49,0.88,-8.06,2.89,-3.56
644,1900-01-01 12:00:59.454,25.85,17.67,-14.72,0.29,0.41,0.8,-7.59,0.68,2.24,27.76,5.12,23.47,0.09,0.46,0.87,-6.82,1.43,-2.11
645,1900-01-01 12:00:59.563,25.02,16.76,-14.39,0.27,0.39,0.8,-5.95,2.76,1.47,27.48,3.91,23.31,0.07,0.45,0.85,-7.45,0.29,-1.02
646,1900-01-01 12:00:59.632,21.36,16.71,-14.17,0.28,0.35,0.86,-6.76,6.8,2.07,25.61,5.5,23.31,0.1,0.43,0.89,-12.25,-3.47,3.31
647,1900-01-01 12:00:59.664,19.06,18.73,-13.87,0.33,0.34,0.92,-6.32,3.4,2.93,22.47,8.15,23.97,0.15,0.41,0.99,-12.24,8.74,3.21
648,1900-01-01 12:00:59.756,21.44,15.61,-13.43,0.25,0.34,0.83,-11.06,6.18,6.14,24.7,1.94,24.62,0.04,0.44,0.96,-12.56,3.09,6.11
649,1900-01-01 12:00:59.818,18.81,16.96,-12.5,0.29,0.32,0.89,-7.89,-0.67,5.18,15.66,6.03,25.72,0.11,0.29,1.03,-0.71,-15.81,18.21
650,1900-01-01 12:00:59.910,15.68,17.5,-11.71,0.28,0.25,0.85,-4.56,-4.17,2.35,14.96,11.45,28.67,0.19,0.25,0.91,-1.8,-13.31,8.6
651,1900-01-01 12:00:59.994,17.46,18.41,-11.36,0.28,0.27,0.81,0.4,-0.5,-0.1,17.35,12.36,30.15,0.19,0.27,0.83,4.5,-0.74,-0.37
652,1900-01-01 12:01:00.099,18.78,17.86,-11.38,0.28,0.29,0.82,-2.63,2.16,-2.58,19.5,10.68,30.25,0.17,0.31,0.87,-4.18,1.85,-4.63
653,1900-01-01 12:01:00.178,19.59,18.33,-11.79,0.29,0.31,0.83,0.85,2.46,-2.45,20.72,9.36,29.7,0.16,0.35,0.92,-0.5,2.96,-4.27
654,1900-01-01 12:01:00.222,19.39,19.02,-12.17,0.31,0.32,0.84,7.21,1.5,-1.82,20.29,10.15,29.21,0.18,0.35,0.92,8.42,3.87,-2.66
655,1900-01-01 12:01:00.339,19.31,19.67,-12.45,0.32,0.32,0.85,1.92,2.81,-2.02,20.75,11.59,28.96,0.2,0.35,0.9,1.62,1.08,-2.64
656,1900-01-01 12:01:00.369,21.02,17.74,-12.77,0.29,0.34,0.84,3.11,4.34,-1.1,23.18,9.13,28.72,0.16,0.39,0.89,2.68,5.01,-2.28
657,1900-01-01 12:01:00.426,22.02,17.26,-12.95,0.28,0.35,0.82,1.94,6.76,-0.73,23.17,8.25,28.53,0.14,0.38,0.87,0.78,9.79,-3.19
658,1900-01-01 12:01:00.532,23.14,16.13,-13.07,0.25,0.36,0.8,3.34,7.87,-3.12,22.59,5.89,28.2,0.1,0.36,0.86,-0.72,16.9,-10.63
659,1900-01-01 12:01:00.601,22.47,16.07,-13.55,0.28,0.39,0.9,7.86,4.71,-5.64,17.86,7.27,26.73,0.13,0.31,0.94,20.22,-11.08,0.13
660,1900-01-01 12:01:00.688,23.04,13.77,-14.42,0.24,0.4,0.91,4.25,7.85,-3.73,26.23,5.39,26.91,0.1,0.45,0.91,12.71,13.87,-1.65
661,1900-01-01 12:01:00.776,21.46,13.14,-15.0,0.23,0.38,0.93,-1.91,3.11,-0.79,24.41,2.69,26.81,0.05,0.46,1.01,1.89,8.65,-2.74
662,1900-01-01 12:01:00.806,23.31,13.15,-15.13,0.23,0.4,0.91,-2.08,1.04,1.92,27.38,2.18,26.56,0.04,0.49,0.94,-2.0,-1.47,-2.66
663,1900-01-01 12:01:00.884,23.5,15.1,-14.85,0.25,0.38,0.83,-3.57,2.56,4.64,26.14,3.19,26.31,0.06,0.44,0.89,-7.81,4.15,-2.6
664,1900-01-01 12:01:00.972,23.59,14.14,-14.15,0.23,0.38,0.83,-3.74,0.24,3.75,23.66,2.07,26.07,0.04,0.4,0.92,-4.85,1.51,1.02
665,1900-01-01 12:01:01.045,25.12,13.45,-13.58,0.22,0.4,0.82,-1.76,-0.22,1.45,26.07,1.35,26.38,0.02,0.42,0.86,-2.82,2.59,-2.56
666,1900-01-01 12:01:01.145,21.59,12.03,-13.37,0.19,0.34,0.84,-0.32,0.54,0.5,22.51,-1.31,26.15,-0.02,0.37,0.9,-0.9,1.31,-3.31
667,1900-01-01 12:01:01.212,21.12,12.91,-13.3,0.21,0.34,0.84,0.3,2.89,-1.24,22.19,-0.51,25.81,-0.01,0.37,0.9,3.52,0.54,-1.91
668,1900-01-01 12:01:01.302,23.96,14.48,-13.5,0.24,0.4,0.86,1.71,1.83,-1.46,24.88,1.36,25.67,0.02,0.43,0.93,2.15,-1.12,-0.62
669,1900-01-01 12:01:01.392,24.06,13.78,-13.73,0.23,0.4,0.85,2.6,-0.46,-0.56,25.17,1.28,25.74,0.02,0.43,0.91,2.91,-3.88,-0.57
670,1900-01-01 12:01:01.435,24.84,13.43,-13.83,0.23,0.41,0.85,0.76,0.06,-0.63,26.26,0.88,25.81,0.02,0.44,0.9,1.58,-1.09,-1.45
671,1900-01-01 12:01:01.492,22.91,14.02,-13.93,0.23,0.37,0.85,-1.28,2.66,-1.06,24.28,1.75,25.75,0.03,0.41,0.9,-0.11,-1.04,0.08
672,1900-01-01 12:01:01.592,24.52,14.08,-14.1,0.23,0.4,0.84,-1.98,3.42,-0.6,26.14,2.07,25.92,0.04,0.44,0.9,0.44,-2.18,1.24
673,1900-01-01 12:01:01.678,25.07,13.22,-14.2,0.22,0.41,0.84,-1.45,1.63,-0.63,26.13,2.17,26.26,0.04,0.44,0.9,-0.45,-2.35,0.22
674,1900-01-01 12:01:01.789,23.89,13.39,-14.31,0.22,0.39,0.85,-0.44,0.22,-0.02,25.48,2.54,26.46,0.04,0.43,0.9,0.13,-1.47,-0.98
675,1900-01-01 12:01:01.789,24.53,13.49,-14.32,0.22,0.4,0.84,-0.36,-0.51,0.37,25.89,2.62,26.47,0.05,0.43,0.89,0.56,-1.67,-0.31
676,1900-01-01 12:01:01.874,24.38,13.78,-14.27,0.23,0.41,0.86,-0.59,1.08,0.5,26.11,2.79,26.58,0.05,0.44,0.9,-0.14,-0.76,-0.78
677,1900-01-01 12:01:01.957,24.9,13.63,-14.2,0.22,0.4,0.84,-2.89,1.62,0.46,26.25,2.53,26.62,0.04,0.44,0.89,-1.44,1.04,-0.93
678,1900-01-01 12:01:02.021,24.46,13.94,-14.14,0.23,0.39,0.84,-1.44,1.8,0.01,25.68,2.69,26.63,0.05,0.43,0.89,-0.52,-0.13,-0.51
679,1900-01-01 12:01:02.110,24.75,13.6,-14.15,0.23,0.4,0.84,-0.63,1.43,-0.32,26.61,2.31,26.71,0.04,0.45,0.89,0.15,-0.03,-1.05
680,1900-01-01 12:01:02.220,24.12,13.71,-14.21,0.23,0.39,0.84,-1.44,1.16,0.38,26.02,2.54,26.71,0.04,0.44,0.9,-0.82,-0.61,-0.37
681,1900-01-01 12:01:02.295,24.67,13.64,-14.16,0.23,0.4,0.84,-1.15,0.82,-0.36,25.58,2.6,26.81,0.05,0.43,0.9,0.31,-0.95,-0.32
682,1900-01-01 12:01:02.328,25.16,13.67,-14.22,0.23,0.41,0.85,-1.0,1.09,-0.25,26.91,2.51,26.92,0.04,0.45,0.89,-0.07,-0.39,-1.01
683,1900-01-01 12:01:02.419,24.37,13.54,-14.27,0.23,0.4,0.86,-1.72,2.76,0.08,26.47,2.64,26.93,0.05,0.45,0.89,-0.98,0.15,-1.12
684,1900-01-01 12:01:02.512,23.84,13.69,-14.26,0.23,0.39,0.85,-2.21,3.14,-0.19,25.71,2.72,26.91,0.05,0.44,0.91,-1.4,1.2,-0.85
685,1900-01-01 12:01:02.561,24.96,13.3,-14.3,0.22,0.4,0.84,-2.87,2.56,0.02,26.87,2.19,26.94,0.04,0.45,0.89,-1.46,1.15,-0.75
686,1900-01-01 12:01:02.656,24.53,13.18,-14.31,0.22,0.39,0.83,-1.63,1.6,0.06,26.1,2.1,26.99,0.04,0.44,0.89,-1.41,-0.56,-0.62
687,1900-01-01 12:01:02.741,24.65,13.09,-14.31,0.22,0.4,0.84,-0.06,-0.31,-0.33,26.0,2.2,27.05,0.04,0.44,0.9,0.6,-1.81,-0.9
688,1900-01-01 12:01:02.826,24.61,13.36,-14.36,0.23,0.41,0.87,-0.78,-0.02,0.36,26.45,2.68,27.07,0.05,0.45,0.91,-0.45,-1.15,-1.34
689,1900-01-01 12:01:02.855,23.96,13.07,-14.32,0.22,0.39,0.85,-2.86,1.6,0.65,25.87,2.27,27.02,0.04,0.44,0.9,-2.6,1.46,-1.58
690,1900-01-01 12:01:02.935,24.17,13.6,-14.23,0.22,0.39,0.83,-2.11,1.91,-0.22,25.44,2.08,26.94,0.04,0.42,0.89,-1.2,0.66,-0.92
691,1900-01-01 12:01:03.024,24.19,13.32,-14.27,0.22,0.39,0.84,-0.66,1.6,-0.37,25.99,1.96,26.96,0.03,0.44,0.9,-0.06,-0.35,-0.96
692,1900-01-01 12:01:03.115,23.87,13.26,-14.34,0.22,0.38,0.84,-0.46,1.2,-0.13,25.41,1.98,26.97,0.03,0.43,0.89,0.26,-0.85,-0.4
693,1900-01-01 12:01:03.179,24.68,13.02,-14.36,0.22,0.4,0.84,1.06,1.24,0.01,25.72,2.02,27.07,0.04,0.43,0.9,1.15,-1.42,-0.13
694,1900-01-01 12:01:03.277,25.21,13.4,-14.37,0.23,0.42,0.85,-0.5,1.43,-0.59,27.14,2.43,27.21,0.04,0.46,0.9,0.53,-1.31,-0.58
695,1900-01-01 12:01:03.349,23.77,13.61,-14.47,0.23,0.39,0.86,-1.79,1.82,-0.18,25.76,2.9,27.28,0.05,0.44,0.91,-1.09,0.68,-1.34
696,1900-01-01 12:01:03.397,24.17,13.41,-14.51,0.22,0.39,0.84,-2.4,2.74,0.48,26.11,2.52,27.23,0.04,0.44,0.89,-1.31,0.72,-0.44
697,1900-01-01 12:01:03.490,24.46,12.6,-14.44,0.21,0.4,0.85,-2.3,2.17,0.6,25.8,2.2,27.32,0.04,0.44,0.9,-1.96,0.53,-0.12
698,1900-01-01 12:01:03.584,25.4,12.98,-14.36,0.21,0.41,0.83,-1.28,1.01,1.08,26.89,2.16,27.46,0.04,0.45,0.89,-1.24,-0.43,-0.26
699,1900-01-01 12:01:03.631,24.36,12.73,-14.2,0.21,0.39,0.84,-0.32,-0.04,0.2,25.52,1.88,27.58,0.03,0.43,0.89,-0.61,-0.66,-1.18
700,1900-01-01 12:01:03.725,24.2,13.39,-14.18,0.22,0.4,0.85,-0.47,0.33,-0.37,25.74,2.38,27.56,0.04,0.44,0.9,0.45,-1.33,-0.95
701,1900-01-01 12:01:03.799,24.04,13.41,-14.25,0.23,0.4,0.87,-1.02,1.95,0.23,25.88,2.8,27.57,0.05,0.44,0.91,-0.54,-0.01,-0.82
702,1900-01-01 12:01:03.904,23.87,13.34,-14.22,0.22,0.39,0.85,-2.48,2.39,0.73,25.73,2.65,27.61,0.05,0.44,0.9,-1.66,0.95,-0.47
703,1900-01-01 12:01:03.979,24.71,13.04,-14.12,0.21,0.4,0.84,-2.07,1.54,0.52,25.88,2.19,27.7,0.04,0.44,0.9,-1.85,0.25,-0.39
704,1900-01-01 12:01:04.007,24.55,12.75,-14.05,0.21,0.4,0.84,-0.98,1.28,-0.11,25.59,1.98,27.79,0.03,0.43,0.89,-0.82,-1.17,-0.61
705,1900-01-01 12:01:04.097,24.15,13.17,-14.07,0.22,0.4,0.86,-1.38,2.18,-0.75,25.8,2.41,27.86,0.04,0.43,0.9,0.1,-1.3,-0.81
706,1900-01-01 12:01:04.191,24.24,13.15,-14.2,0.22,0.4,0.86,-1.73,2.45,-0.39,25.95,2.78,27.89,0.05,0.44,0.91,-0.93,-0.07,-0.85
707,1900-01-01 12:01:04.248,24.17,12.98,-14.26,0.21,0.39,0.83,-0.89,1.49,0.6,25.13,2.75,27.92,0.05,0.43,0.9,-0.79,0.39,-0.79
708,1900-01-01 12:01:04.336,25.54,12.4,-14.18,0.2,0.41,0.83,0.3,-0.09,0.55,26.11,1.77,27.96,0.03,0.43,0.88,0.13,-1.56,-0.63
709,1900-01-01 12:01:04.424,24.31,13.15,-14.11,0.22,0.4,0.86,-0.05,-0.34,-0.33,25.74,2.72,28.02,0.05,0.43,0.9,0.84,-2.04,-1.2
710,1900-01-01 12:01:04.512,24.59,13.46,-14.17,0.23,0.4,0.85,-0.6,0.51,-0.69,26.14,2.91,28.0,0.05,0.44,0.9,0.82,-0.5,-1.51
711,1900-01-01 12:01:04.546,23.88,13.42,-14.28,0.22,0.39,0.85,-1.38,1.64,-0.3,25.94,3.0,27.93,0.05,0.44,0.9,-0.1,-0.1,-0.98
712,1900-01-01 12:01:04.636,25.12,13.34,-14.33,0.22,0.41,0.84,-1.36,1.68,0.18,26.56,2.9,27.94,0.05,0.45,0.9,-0.15,0.0,-0.27
713,1900-01-01 12:01:04.707,25.02,12.9,-14.31,0.21,0.41,0.84,-1.4,1.31,-0.21,26.36,2.63,28.05,0.05,0.44,0.89,-0.34,-0.21,-0.9
714,1900-01-01 12:01:04.827,25.23,12.82,-14.35,0.21,0.41,0.84,-0.92,1.34,-1.08,26.74,2.43,28.07,0.04,0.45,0.89,0.28,-0.73,-1.23
715,1900-01-01 12:01:04.877,24.68,13.08,-14.53,0.22,0.41,0.85,-1.92,2.16,-1.0,26.5,3.0,28.04,0.05,0.45,0.9,-0.47,-0.24,-1.36
716,1900-01-01 12:01:04.934,24.41,13.22,-14.69,0.22,0.4,0.85,-2.32,2.6,-0.17,26.47,3.16,27.99,0.06,0.45,0.9,-1.2,0.29,-0.91
717,1900-01-01 12:01:05.028,24.78,12.19,-14.72,0.2,0.4,0.84,-1.02,1.52,0.21,25.89,2.44,28.01,0.04,0.43,0.89,-0.75,-0.37,-0.78
718,1900-01-01 12:01:05.073,25.36,12.5,-14.7,0.2,0.4,0.83,-0.38,0.14,-0.24,26.74,2.4,28.05,0.04,0.45,0.88,0.29,-1.68,-0.85
719,1900-01-01 12:01:05.166,25.22,12.9,-14.75,0.22,0.41,0.85,0.19,-0.24,-0.79,26.55,3.14,28.08,0.06,0.45,0.9,1.18,-1.82,-1.31
720,1900-01-01 12:01:05.260,24.43,13.06,-14.88,0.22,0.4,0.85,-0.31,0.08,0.16,26.41,3.52,28.04,0.06,0.45,0.9,-0.27,-0.86,-1.64
721,1900-01-01 12:01:05.307,25.7,13.15,-14.86,0.22,0.42,0.85,-1.27,1.22,0.08,27.69,3.15,27.95,0.06,0.47,0.89,-0.47,-0.4,-1.2
722,1900-01-01 12:01:05.400,24.7,13.07,-14.86,0.21,0.4,0.83,-2.24,1.89,-0.08,26.12,2.98,27.92,0.05,0.43,0.88,-1.38,0.18,-1.17
723,1900-01-01 12:01:05.516,25.38,12.78,-14.88,0.21,0.41,0.83,-0.94,1.24,-0.25,26.7,2.81,27.9,0.05,0.45,0.89,-0.3,0.19,-1.5
724,1900-01-01 12:01:05.551,24.72,12.77,-14.92,0.21,0.39,0.83,-0.56,1.56,-0.48,26.58,2.58,27.83,0.04,0.44,0.87,0.59,-0.69,-1.31
725,1900-01-01 12:01:05.613,26.06,13.43,-15.01,0.23,0.43,0.85,-0.83,1.1,-0.37,27.96,3.4,27.79,0.06,0.48,0.9,1.57,-1.34,-0.3
726,1900-01-01 12:01:05.703,25.0,12.67,-15.07,0.21,0.4,0.82,-2.38,1.85,0.09,27.41,2.6,27.9,0.05,0.46,0.88,-2.11,0.55,-1.68
727,1900-01-01 12:01:05.790,25.17,13.46,-15.07,0.23,0.41,0.85,-0.47,0.89,0.16,27.52,3.46,27.8,0.06,0.47,0.9,0.58,-1.02,-0.64
728,1900-01-01 12:01:05.878,25.47,12.98,-15.05,0.22,0.43,0.86,-2.37,-0.11,0.4,27.45,3.31,27.86,0.06,0.47,0.9,-1.68,-0.02,-1.51
729,1900-01-01 12:01:05.968,22.77,14.35,-15.0,0.22,0.34,0.79,-4.01,2.0,1.76,26.29,2.47,27.79,0.04,0.43,0.86,-5.21,2.53,-2.27
730,1900-01-01 12:01:06.006,25.44,14.69,-14.74,0.26,0.44,0.88,1.38,-1.34,1.79,27.45,4.01,27.6,0.07,0.48,0.93,0.79,-1.9,0.78
731,1900-01-01 12:01:06.099,27.01,13.23,-14.47,0.21,0.42,0.79,-2.93,-0.17,2.11,29.4,1.48,27.88,0.03,0.48,0.85,-5.82,-0.09,-0.91
732,1900-01-01 12:01:06.147,23.54,13.25,-14.16,0.22,0.38,0.85,0.33,2.41,-1.46,22.69,2.26,27.9,0.04,0.37,0.89,-0.08,-0.93,-1.11
733,1900-01-01 12:01:06.241,26.25,14.15,-14.39,0.24,0.43,0.84,-0.07,2.31,-2.0,27.49,3.3,27.89,0.06,0.47,0.91,1.11,0.11,-1.44
734,1900-01-01 12:01:06.323,27.2,12.34,-14.7,0.2,0.43,0.82,1.03,0.65,-2.71,27.1,1.7,27.83,0.03,0.45,0.87,1.75,-0.84,-3.4
735,1900-01-01 12:01:06.413,27.56,13.95,-15.13,0.23,0.44,0.81,3.51,-2.69,-3.05,28.49,2.58,27.46,0.05,0.48,0.89,3.57,-1.59,-4.1
736,1900-01-01 12:01:06.500,27.78,13.54,-15.6,0.23,0.45,0.82,5.89,-5.43,-2.31,27.68,2.71,27.0,0.05,0.47,0.89,2.5,-1.91,-5.73
737,1900-01-01 12:01:06.527,29.04,16.58,-15.96,0.27,0.46,0.79,1.33,-6.73,-1.43,31.36,2.98,26.28,0.05,0.52,0.85,0.07,-4.03,-6.5
738,1900-01-01 12:01:06.612,25.87,15.02,-16.19,0.27,0.45,0.88,-3.34,-3.96,0.44,25.63,3.49,25.44,0.06,0.44,0.92,-3.85,0.43,-5.13
739,1900-01-01 12:01:06.705,24.78,16.29,-16.13,0.25,0.38,0.78,-8.57,2.74,0.81,25.55,1.75,24.82,0.03,0.41,0.86,-7.05,2.92,-3.62
740,1900-01-01 12:01:06.776,26.38,17.38,-16.01,0.31,0.47,0.88,-5.71,3.88,1.21,26.87,3.82,24.43,0.07,0.48,0.94,-2.86,-2.41,2.15
741,1900-01-01 12:01:06.875,24.87,14.89,-15.84,0.25,0.4,0.83,-6.79,4.73,3.23,25.8,1.64,24.91,0.03,0.44,0.9,-11.85,7.24,-0.73
742,1900-01-01 12:01:06.944,25.21,15.15,-15.35,0.24,0.4,0.8,-4.19,5.57,1.49,22.44,0.65,24.96,0.01,0.37,0.89,-4.66,0.2,1.47
743,1900-01-01 12:01:06.985,26.39,15.18,-15.14,0.25,0.42,0.81,-1.73,3.26,0.24,24.54,1.1,25.34,0.02,0.42,0.92,-1.67,2.77,-0.59
744,1900-01-01 12:01:07.079,24.98,14.96,-15.11,0.24,0.39,0.8,2.44,-1.51,0.29,22.79,0.42,25.41,0.01,0.38,0.9,1.89,-0.92,-1.59
745,1900-01-01 12:01:07.134,25.45,14.88,-15.07,0.25,0.42,0.85,2.85,-3.01,-0.19,24.19,0.86,25.33,0.02,0.41,0.92,3.02,-2.24,-1.77
746,1900-01-01 12:01:07.228,24.76,15.95,-15.11,0.26,0.39,0.81,0.84,-1.23,0.15,24.35,1.08,25.21,0.02,0.4,0.89,1.73,-0.11,-2.01
747,1900-01-01 12:01:07.299,26.24,16.91,-15.1,0.29,0.44,0.84,1.67,-1.24,0.4,24.78,2.3,25.07,0.04,0.43,0.92,2.71,-2.24,0.04
748,1900-01-01 12:01:07.392,26.27,16.87,-15.04,0.28,0.43,0.82,-0.78,-0.18,0.27,26.09,1.72,25.23,0.03,0.44,0.91,0.02,-0.41,-1.31
749,1900-01-01 12:01:07.478,26.38,16.8,-15.01,0.28,0.43,0.83,-1.69,1.25,0.41,25.72,1.53,25.19,0.03,0.44,0.91,-0.53,-0.59,-1.27
750,1900-01-01 12:01:07.571,26.29,16.39,-14.95,0.27,0.43,0.83,-2.37,2.7,-0.53,25.19,1.58,25.16,0.03,0.43,0.9,-0.44,0.31,-1.57
751,1900-01-01 12:01:07.602,25.22,16.58,-15.04,0.27,0.41,0.83,-3.15,3.67,0.21,25.1,1.45,25.07,0.03,0.43,0.91,-0.69,0.49,-1.55
752,1900-01-01 12:01:07.679,25.5,15.95,-15.02,0.27,0.42,0.83,-3.0,3.71,1.1,25.41,1.29,25.0,0.02,0.43,0.91,-1.15,-1.44,-0.64
753,1900-01-01 12:01:07.743,25.66,15.54,-14.86,0.25,0.41,0.81,-2.47,3.14,0.79,25.22,0.86,25.06,0.01,0.42,0.9,-1.19,0.76,-1.29
754,1900-01-01 12:01:07.832,25.93,15.54,-14.75,0.25,0.41,0.81,0.27,1.55,-0.56,25.25,0.92,25.02,0.02,0.42,0.89,0.24,-0.74,-1.22
755,1900-01-01 12:01:07.936,25.49,16.25,-14.85,0.27,0.41,0.82,0.76,0.11,-0.81,25.74,1.74,24.99,0.03,0.44,0.91,1.1,-0.57,-2.17
756,1900-01-01 12:01:08.010,25.17,16.0,-14.98,0.27,0.41,0.84,0.4,0.75,-0.16,25.41,1.69,24.82,0.03,0.43,0.91,1.18,-1.15,-1.22
757,1900-01-01 12:01:08.089,25.76,15.56,-15.01,0.26,0.42,0.82,-0.94,2.09,0.31,25.41,1.25,24.79,0.02,0.43,0.9,-0.45,0.07,-0.15
758,1900-01-01 12:01:08.136,26.89,15.94,-14.97,0.26,0.43,0.81,-0.08,1.48,-0.1,26.21,1.43,24.93,0.02,0.44,0.89,1.47,-0.02,0.09
759,1900-01-01 12:01:08.230,27.23,15.71,-14.99,0.26,0.44,0.81,2.05,-0.37,-0.44,26.91,1.29,25.1,0.02,0.45,0.89,1.45,-1.09,-0.94
760,1900-01-01 12:01:08.277,27.24,15.86,-15.07,0.26,0.44,0.82,2.0,-1.13,-1.4,26.93,1.43,25.11,0.02,0.45,0.89,2.85,-1.83,-1.35
761,1900-01-01 12:01:08.354,26.71,16.49,-15.29,0.28,0.44,0.83,-0.33,-0.04,-0.33,27.22,2.25,25.06,0.04,0.46,0.9,0.36,-0.44,-1.53
762,1900-01-01 12:01:08.444,27.09,15.93,-15.35,0.26,0.44,0.81,-0.63,1.83,-0.11,26.79,1.43,24.99,0.02,0.44,0.88,0.17,-0.11,-0.92
763,1900-01-01 12:01:08.550,28.19,16.35,-15.38,0.27,0.46,0.81,-1.63,1.18,0.05,27.7,1.69,25.01,0.03,0.47,0.89,-0.4,0.09,-0.88
764,1900-01-01 12:01:08.624,27.65,15.86,-15.38,0.26,0.44,0.8,-0.75,0.83,-0.28,27.32,1.24,25.03,0.02,0.45,0.87,-0.44,-0.76,-1.3
765,1900-01-01 12:01:08.695,27.31,16.31,-15.43,0.27,0.44,0.82,0.18,0.82,-0.44,27.05,1.87,24.99,0.03,0.46,0.89,0.76,-0.77,-1.05
766,1900-01-01 12:01:08.740,27.14,16.54,-15.5,0.28,0.44,0.82,-1.0,0.91,0.32,27.42,2.05,24.99,0.04,0.46,0.89,-0.47,-0.07,-1.0
767,1900-01-01 12:01:08.836,27.8,16.12,-15.46,0.26,0.44,0.8,-2.22,1.97,0.16,27.34,1.47,24.99,0.03,0.46,0.88,-0.83,-0.46,-0.9
768,1900-01-01 12:01:08.969,27.94,16.57,-15.45,0.28,0.45,0.81,-0.96,0.93,0.3,27.59,2.0,25.01,0.04,0.47,0.89,-0.29,-0.47,-0.67
769,1900-01-01 12:01:08.969,27.42,16.11,-15.41,0.26,0.44,0.8,-0.4,1.0,-0.02,27.15,1.69,25.07,0.03,0.45,0.88,-0.25,-0.5,-0.97
770,1900-01-01 12:01:09.062,27.72,16.58,-15.42,0.28,0.45,0.81,-1.15,1.04,0.1,27.61,1.9,25.08,0.03,0.47,0.89,-0.36,-0.23,-0.72
771,1900-01-01 12:01:09.142,27.87,16.52,-15.41,0.27,0.45,0.81,-1.31,1.15,0.14,27.97,1.81,25.13,0.03,0.47,0.88,-0.59,0.13,-1.14
772,1900-01-01 12:01:09.249,27.6,16.47,-15.4,0.27,0.44,0.8,-0.93,1.5,0.03,27.14,1.8,25.11,0.03,0.45,0.88,-0.47,0.03,-0.93
773,1900-01-01 12:01:09.324,28.12,16.45,-15.41,0.27,0.45,0.81,-0.69,1.03,0.06,27.91,1.83,25.13,0.03,0.47,0.89,-0.11,0.05,-0.98
774,1900-01-01 12:01:09.359,27.72,15.99,-15.41,0.26,0.44,0.8,-0.63,1.17,-0.18,27.24,1.21,25.14,0.02,0.45,0.87,0.04,-0.85,-0.53
775,1900-01-01 12:01:09.442,27.4,16.68,-15.44,0.28,0.45,0.83,-0.08,1.03,-0.06,27.99,2.14,25.22,0.04,0.48,0.89,0.43,-0.04,-0.79
776,1900-01-01 12:01:09.512,28.52,16.03,-15.46,0.26,0.45,0.79,-1.44,0.97,0.42,28.06,1.12,25.25,0.02,0.46,0.87,-0.81,0.35,-1.3
777,1900-01-01 12:01:09.611,28.13,16.42,-15.4,0.27,0.45,0.8,-0.83,1.31,0.16,27.68,1.51,25.22,0.03,0.46,0.87,-0.62,0.08,-1.14
778,1900-01-01 12:01:09.669,28.39,16.29,-15.39,0.27,0.46,0.81,-0.84,1.4,-0.03,27.9,1.45,25.2,0.03,0.46,0.88,0.0,-0.52,-0.56
779,1900-01-01 12:01:09.766,27.95,16.47,-15.4,0.27,0.45,0.8,-0.91,1.12,0.45,27.87,1.67,25.27,0.03,0.46,0.88,-0.98,0.29,-1.18
780,1900-01-01 12:01:09.815,28.44,16.37,-15.34,0.28,0.47,0.81,-1.23,1.4,0.13,28.03,1.28,25.25,0.02,0.47,0.88,0.35,-0.41,-0.46
781,1900-01-01 12:01:09.909,28.4,16.51,-15.33,0.27,0.46,0.8,-0.83,1.08,0.07,28.22,1.53,25.34,0.03,0.47,0.88,-0.38,-0.15,-1.08
782,1900-01-01 12:01:09.956,28.13,16.8,-15.33,0.28,0.46,0.81,-1.11,1.31,-0.36,27.94,1.63,25.33,0.03,0.47,0.89,0.19,-0.08,-0.95
783,1900-01-01 12:01:10.049,28.14,16.51,-15.39,0.27,0.45,0.79,-1.02,1.35,0.0,28.16,1.36,25.35,0.02,0.47,0.87,-0.4,-0.03,-1.04
784,1900-01-01 12:01:10.142,28.32,16.61,-15.4,0.28,0.46,0.81,-1.18,1.46,0.3,28.3,1.59,25.35,0.03,0.48,0.88,-0.46,-0.1,-0.65
785,1900-01-01 12:01:10.189,29.09,16.66,-15.36,0.27,0.46,0.79,-1.21,1.1,0.21,28.38,1.38,25.4,0.02,0.47,0.87,-0.44,-0.21,-0.58
786,1900-01-01 12:01:10.283,28.46,16.62,-15.34,0.28,0.46,0.81,-1.06,0.96,-0.13,28.17,1.41,25.47,0.02,0.47,0.88,-0.09,-1.08,-0.82
787,1900-01-01 12:01:10.408,28.56,16.63,-15.37,0.28,0.46,0.8,-1.07,0.83,0.22,28.2,1.61,25.51,0.03,0.47,0.88,-0.37,-0.21,-0.9
788,1900-01-01 12:01:10.439,28.32,16.57,-15.34,0.27,0.46,0.8,-1.71,1.3,0.15,28.12,1.43,25.53,0.02,0.47,0.88,-0.8,-0.15,-0.97
789,1900-01-01 12:01:10.486,28.58,16.68,-15.33,0.28,0.46,0.8,-1.6,1.45,-0.18,28.34,1.46,25.54,0.03,0.47,0.87,-0.66,-0.47,-0.79
790,1900-01-01 12:01:10.637,28.32,16.7,-15.36,0.28,0.46,0.8,-1.44,1.16,0.14,28.25,1.77,25.58,0.03,0.48,0.88,-0.82,-0.08,-1.08
791,1900-01-01 12:01:10.667,28.24,16.67,-15.35,0.28,0.45,0.8,-1.65,1.32,0.12,28.17,1.4,25.57,0.02,0.47,0.88,-0.69,-0.34,-0.76
792,1900-01-01 12:01:10.749,28.1,16.73,-15.34,0.28,0.45,0.8,-1.72,1.14,0.31,28.07,1.59,25.61,0.03,0.47,0.88,-0.78,-0.13,-0.85
793,1900-01-01 12:01:10.841,28.44,16.66,-15.3,0.28,0.46,0.8,-1.11,0.99,0.12,28.28,1.47,25.64,0.03,0.47,0.88,-0.21,-0.73,-0.68
794,1900-01-01 12:01:10.902,28.38,16.66,-15.29,0.28,0.46,0.8,-1.23,0.76,0.18,28.23,1.47,25.69,0.03,0.47,0.88,-0.56,-0.27,-1.04
795,1900-01-01 12:01:11.001,28.23,16.84,-15.27,0.28,0.46,0.8,-0.93,1.02,-0.11,28.07,1.68,25.69,0.03,0.47,0.88,-0.21,-0.44,-1.03
796,1900-01-01 12:01:11.031,28.1,16.86,-15.3,0.28,0.45,0.8,-1.05,1.09,0.05,28.17,1.48,25.69,0.03,0.47,0.88,-0.42,-0.27,-1.06
797,1900-01-01 12:01:11.125,28.28,16.8,-15.3,0.28,0.46,0.8,-0.99,1.21,-0.07,28.42,1.6,25.69,0.03,0.48,0.88,-0.15,-0.47,-0.82
798,1900-01-01 12:01:11.182,28.34,16.88,-15.32,0.28,0.45,0.79,-0.63,0.81,-0.02,28.12,1.56,25.72,0.03,0.47,0.88,-0.12,-0.24,-1.05
799,1900-01-01 12:01:11.282,28.43,16.86,-15.33,0.28,0.46,0.8,-0.58,1.05,-0.12,28.23,1.42,25.72,0.02,0.47,0.88,0.17,-0.86,-0.81
800,1900-01-01 12:01:11.354,28.33,17.31,-15.36,0.29,0.46,0.8,-1.07,0.78,-0.02,28.55,1.91,25.76,0.03,0.48,0.88,0.02,-0.79,-0.89
801,1900-01-01 12:01:11.469,28.5,16.78,-15.37,0.28,0.46,0.8,-1.16,1.03,0.11,28.39,1.49,25.78,0.03,0.47,0.87,-0.36,-0.41,-0.99
802,1900-01-01 12:01:11.538,28.49,17.22,-15.36,0.28,0.46,0.8,-1.19,1.17,0.13,28.77,1.95,25.78,0.03,0.48,0.88,-0.44,-0.28,-1.03
803,1900-01-01 12:01:11.570,28.5,17.06,-15.35,0.28,0.46,0.8,-1.11,1.09,0.1,28.73,1.72,25.79,0.03,0.48,0.88,-0.62,-0.37,-0.93
804,1900-01-01 12:01:11.658,28.5,17.19,-15.34,0.28,0.46,0.79,-1.83,1.22,0.24,28.73,1.68,25.8,0.03,0.48,0.87,-0.9,-0.27,-0.82
805,1900-01-01 12:01:11.732,28.44,17.0,-15.31,0.28,0.46,0.8,-1.34,1.2,0.08,28.32,1.65,25.84,0.03,0.47,0.88,-0.56,-0.45,-0.84
806,1900-01-01 12:01:11.833,28.3,17.22,-15.31,0.28,0.46,0.8,-1.31,1.21,0.1,28.38,1.88,25.87,0.03,0.47,0.88,-0.73,-0.38,-1.04
807,1900-01-01 12:01:11.901,28.39,17.12,-15.3,0.28,0.46,0.8,-1.34,1.39,0.01,28.63,1.67,25.87,0.03,0.48,0.88,-0.52,-0.44,-0.91
808,1900-01-01 12:01:11.966,28.6,17.35,-15.31,0.29,0.46,0.8,-1.46,1.24,0.15,28.67,1.83,25.89,0.03,0.48,0.88,-0.63,-0.21,-0.9
809,1900-01-01 12:01:12.014,28.41,17.13,-15.3,0.28,0.46,0.8,-1.09,1.32,0.02,28.41,1.71,25.91,0.03,0.47,0.88,-0.5,-0.23,-1.03
810,1900-01-01 12:01:12.157,28.21,17.05,-15.3,0.28,0.46,0.8,-1.39,1.54,0.15,28.43,1.67,25.91,0.03,0.47,0.88,-0.82,-0.15,-0.87
811,1900-01-01 12:01:12.200,28.35,17.04,-15.29,0.28,0.45,0.79,-1.15,1.45,0.18,28.32,1.66,25.93,0.03,0.47,0.87,-0.92,-0.09,-0.82
812,1900-01-01 12:01:12.254,28.53,17.5,-15.27,0.29,0.46,0.8,-1.47,1.23,0.21,28.56,2.04,25.96,0.04,0.48,0.88,-0.67,-0.6,-0.82
813,1900-01-01 12:01:12.336,28.05,17.14,-15.25,0.28,0.45,0.8,-1.38,1.15,0.4,28.36,1.81,26.0,0.03,0.48,0.88,-1.16,0.17,-1.31
814,1900-01-01 12:01:12.446,28.18,17.18,-15.2,0.28,0.45,0.8,-1.18,1.5,-0.25,28.18,1.51,25.96,0.03,0.47,0.88,-0.76,0.05,-1.31
815,1900-01-01 12:01:12.508,28.16,17.17,-15.24,0.29,0.46,0.8,-1.53,1.44,-0.05,28.43,1.65,25.91,0.03,0.48,0.88,-0.84,0.09,-1.03
816,1900-01-01 12:01:12.572,28.22,16.93,-15.26,0.28,0.45,0.8,-1.43,1.73,-0.06,28.16,1.38,25.92,0.02,0.47,0.87,-0.82,0.1,-0.94
817,1900-01-01 12:01:12.686,28.25,16.97,-15.28,0.28,0.45,0.79,-1.08,1.47,-0.14,28.07,1.46,25.93,0.03,0.47,0.88,-0.49,-0.2,-0.75
818,1900-01-01 12:01:12.718,28.21,16.76,-15.31,0.28,0.45,0.8,-0.92,1.71,-0.58,28.0,1.33,25.97,0.02,0.46,0.87,0.66,-1.85,-0.36
819,1900-01-01 12:01:12.803,28.7,17.14,-15.4,0.29,0.47,0.8,-1.18,1.03,0.15,28.88,2.01,26.08,0.04,0.49,0.88,0.18,-1.1,-0.52
820,1900-01-01 12:01:12.862,28.44,16.91,-15.39,0.28,0.46,0.8,-0.85,0.82,0.31,28.56,1.9,26.16,0.03,0.48,0.87,-0.2,-0.69,-0.94
821,1900-01-01 12:01:12.951,28.55,17.03,-15.35,0.28,0.46,0.8,-1.18,0.93,0.0,28.58,1.9,26.17,0.03,0.48,0.88,-0.16,-0.46,-0.85
822,1900-01-01 12:01:13.016,28.51,17.04,-15.36,0.28,0.45,0.79,-1.02,0.92,-0.15,28.68,1.79,26.2,0.03,0.48,0.87,-0.25,-0.31,-0.98
823,1900-01-01 12:01:13.101,28.51,16.92,-15.39,0.28,0.46,0.8,-0.7,1.36,-0.5,28.75,1.97,26.21,0.03,0.48,0.87,1.16,-2.02,-0.47
824,1900-01-01 12:01:13.198,28.58,17.23,-15.48,0.29,0.46,0.8,-0.4,0.76,-0.3,29.21,2.39,26.29,0.04,0.49,0.88,0.73,-1.15,-0.82
825,1900-01-01 12:01:13.264,28.71,17.09,-15.53,0.29,0.47,0.81,-0.97,1.35,-0.24,29.31,2.45,26.33,0.04,0.49,0.87,0.27,-0.7,-1.02
826,1900-01-01 12:01:13.346,28.64,17.03,-15.57,0.28,0.46,0.79,-1.89,1.67,0.1,29.18,2.4,26.33,0.04,0.49,0.87,-0.89,0.35,-1.21
827,1900-01-01 12:01:13.429,28.58,16.95,-15.57,0.28,0.46,0.8,-1.63,2.13,-0.24,29.09,2.16,26.3,0.04,0.49,0.87,-0.51,-0.18,-0.98
828,1900-01-01 12:01:13.513,28.78,16.87,-15.61,0.28,0.46,0.79,-1.63,1.51,0.13,29.37,2.22,26.31,0.04,0.49,0.87,-0.64,-0.26,-0.93
829,1900-01-01 12:01:13.550,28.63,16.96,-15.6,0.28,0.46,0.8,-1.21,0.95,0.15,29.34,2.22,26.33,0.04,0.49,0.87,-0.52,-0.18,-1.21
830,1900-01-01 12:01:13.644,28.32,16.83,-15.59,0.28,0.46,0.8,-0.94,1.13,-0.32,29.05,1.93,26.3,0.03,0.48,0.87,0.01,-0.63,-0.86
831,1900-01-01 12:01:13.762,28.26,17.15,-15.65,0.29,0.46,0.81,-1.11,1.01,0.24,29.37,2.48,26.33,0.04,0.5,0.88,-0.49,0.13,-1.18
832,1900-01-01 12:01:13.790,28.6,16.9,-15.62,0.28,0.46,0.79,-1.19,1.05,0.38,29.3,2.09,26.31,0.04,0.49,0.86,-0.47,-0.07,-0.75
833,1900-01-01 12:01:13.878,28.99,17.03,-15.57,0.28,0.47,0.79,-0.85,0.74,0.31,29.43,1.99,26.35,0.03,0.49,0.87,-0.12,-0.35,-0.7
834,1900-01-01 12:01:13.946,28.92,16.99,-15.53,0.28,0.46,0.79,-0.68,0.55,-0.03,29.49,2.14,26.4,0.04,0.49,0.86,0.21,-0.84,-0.58
835,1900-01-01 12:01:14.014,28.77,17.19,-15.54,0.29,0.47,0.8,-0.63,0.69,-0.1,29.75,2.36,26.47,0.04,0.5,0.87,0.05,-0.75,-0.79
836,1900-01-01 12:01:14.112,28.5,17.39,-15.57,0.29,0.46,0.8,-0.87,1.04,0.18,29.45,2.59,26.51,0.05,0.49,0.87,-0.15,-0.63,-0.62
837,1900-01-01 12:01:14.179,29.21,17.54,-15.55,0.29,0.47,0.79,-1.17,1.05,0.08,30.25,2.48,26.57,0.04,0.5,0.86,-0.38,-0.66,-0.72
838,1900-01-01 12:01:14.261,29.21,17.18,-15.54,0.28,0.47,0.79,-0.97,0.77,0.12,29.62,2.39,26.62,0.04,0.49,0.86,-0.41,-0.19,-1.0
839,1900-01-01 12:01:14.343,29.04,17.56,-15.53,0.29,0.47,0.8,-1.04,0.94,-0.15,29.63,2.53,26.63,0.04,0.49,0.87,-0.05,-0.82,-0.76
840,1900-01-01 12:01:14.427,29.1,17.44,-15.56,0.29,0.47,0.79,-1.24,0.93,0.2,29.94,2.66,26.67,0.05,0.5,0.86,-0.68,-0.05,-1.11
841,1900-01-01 12:01:14.488,29.12,17.59,-15.54,0.29,0.47,0.79,-1.15,1.17,0.02,29.89,2.51,26.66,0.04,0.5,0.86,-0.6,0.0,-1.09
842,1900-01-01 12:01:14.534,28.98,17.52,-15.55,0.29,0.46,0.79,-1.05,1.17,-0.09,29.68,2.35,26.65,0.04,0.49,0.86,-0.66,-0.2,-1.12
843,1900-01-01 12:01:14.612,29.13,17.72,-15.57,0.29,0.47,0.79,-0.97,1.34,-0.05,29.96,2.49,26.64,0.04,0.5,0.86,-0.46,-0.44,-1.11
844,1900-01-01 12:01:14.763,29.12,17.59,-15.59,0.29,0.47,0.79,-1.6,1.65,0.23,30.03,2.5,26.63,0.04,0.5,0.86,-0.84,0.05,-1.02
845,1900-01-01 12:01:14.763,29.41,17.34,-15.56,0.28,0.47,0.78,-1.7,1.78,-0.05,29.89,2.14,26.63,0.04,0.49,0.86,-0.82,-0.21,-0.79
846,1900-01-01 12:01:14.861,29.21,17.5,-15.58,0.29,0.47,0.79,-1.51,1.39,0.02,29.85,2.35,26.67,0.04,0.5,0.87,-0.76,-0.37,-0.89
847,1900-01-01 12:01:14.927,29.18,17.32,-15.58,0.29,0.47,0.79,-1.15,1.18,0.08,29.57,2.27,26.69,0.04,0.49,0.87,-0.48,-0.33,-0.92
848,1900-01-01 12:01:15.026,29.37,17.42,-15.58,0.29,0.47,0.78,-0.73,0.99,0.27,29.9,2.32,26.71,0.04,0.5,0.86,-0.3,-0.47,-0.79
849,1900-01-01 12:01:15.094,29.25,17.4,-15.54,0.29,0.47,0.79,0.01,0.56,0.15,29.74,2.29,26.75,0.04,0.49,0.86,0.4,-1.25,-0.6
850,1900-01-01 12:01:15.176,29.21,17.82,-15.53,0.3,0.47,0.79,-0.06,0.32,0.17,30.09,2.76,26.81,0.05,0.5,0.87,0.15,-0.69,-0.92
851,1900-01-01 12:01:15.256,29.55,17.84,-15.51,0.3,0.48,0.79,-0.52,0.93,-0.05,30.08,2.58,26.83,0.04,0.5,0.86,0.0,-0.46,-0.95
852,1900-01-01 12:01:15.321,29.7,17.84,-15.53,0.3,0.48,0.79,-0.74,1.21,0.16,30.32,2.69,26.85,0.05,0.5,0.86,-0.4,0.1,-1.25
853,1900-01-01 12:01:15.431,29.4,17.79,-15.51,0.3,0.48,0.79,-1.28,1.49,0.15,29.99,2.56,26.81,0.04,0.5,0.86,-0.94,0.37,-1.39
854,1900-01-01 12:01:15.466,29.6,17.67,-15.5,0.29,0.47,0.78,-1.4,1.34,0.15,30.01,2.21,26.76,0.04,0.5,0.86,-1.16,0.17,-1.24
855,1900-01-01 12:01:15.559,29.56,17.77,-15.49,0.29,0.48,0.79,-1.05,0.97,-0.18,30.0,2.3,26.73,0.04,0.5,0.86,-0.3,-0.6,-0.96
856,1900-01-01 12:01:15.613,29.46,17.82,-15.52,0.29,0.47,0.78,-0.56,0.75,-0.04,29.78,2.37,26.74,0.04,0.49,0.86,-0.16,-0.36,-1.05
857,1900-01-01 12:01:15.698,29.74,17.89,-15.53,0.3,0.48,0.78,-0.89,0.88,0.01,30.2,2.3,26.74,0.04,0.5,0.86,-0.22,-0.59,-0.84
858,1900-01-01 12:01:15.767,29.92,18.02,-15.54,0.3,0.48,0.78,-0.66,0.67,0.03,30.24,2.46,26.77,0.04,0.5,0.86,-0.09,-0.37,-0.9
859,1900-01-01 12:01:15.862,29.62,17.88,-15.55,0.3,0.48,0.78,-0.58,0.92,-0.19,30.04,2.33,26.79,0.04,0.5,0.86,0.06,-0.69,-0.85
860,1900-01-01 12:01:15.938,29.88,18.31,-15.58,0.3,0.48,0.78,-1.26,0.73,0.21,30.57,2.72,26.82,0.05,0.51,0.86,-0.29,-0.29,-0.86
861,1900-01-01 12:01:16.026,29.86,18.09,-15.56,0.3,0.48,0.78,-1.42,1.05,-0.03,30.34,2.44,26.84,0.04,0.5,0.86,-0.68,0.0,-1.21
862,1900-01-01 12:01:16.094,29.83,18.22,-15.57,0.3,0.48,0.78,-1.61,1.19,0.0,30.28,2.33,26.82,0.04,0.5,0.86,-0.7,-0.11,-0.93
863,1900-01-01 12:01:16.165,29.76,18.18,-15.58,0.3,0.48,0.78,-1.22,1.08,0.02,30.43,2.32,26.83,0.04,0.5,0.86,-0.37,-0.57,-0.89
864,1900-01-01 12:01:16.261,30.02,18.13,-15.59,0.3,0.48,0.78,-1.33,1.23,0.16,30.38,2.33,26.86,0.04,0.5,0.86,-0.66,-0.21,-0.91
865,1900-01-01 12:01:16.303,29.82,18.06,-15.57,0.3,0.48,0.78,-1.52,1.37,-0.27,30.44,2.32,26.87,0.04,0.5,0.86,-0.59,-0.52,-1.05
866,1900-01-01 12:01:16.396,29.66,18.32,-15.62,0.31,0.48,0.79,-1.91,1.18,0.14,30.31,2.8,26.87,0.05,0.51,0.87,-1.04,-0.76,-1.83
867,1900-01-01 12:01:16.445,29.51,18.33,-15.61,0.3,0.47,0.78,-2.29,0.69,0.56,30.03,2.36,26.75,0.04,0.5,0.86,-3.18,1.76,-1.06
868,1900-01-01 12:01:16.527,29.34,18.41,-15.53,0.3,0.47,0.77,-1.94,1.09,0.59,29.53,1.89,26.75,0.03,0.49,0.86,-1.75,0.79,-0.93
869,1900-01-01 12:01:16.593,29.62,18.36,-15.45,0.31,0.48,0.79,-1.44,1.18,0.33,29.95,1.94,26.76,0.03,0.5,0.86,-0.64,-0.21,-0.75
870,1900-01-01 12:01:16.678,29.57,18.14,-15.41,0.3,0.47,0.78,-1.55,1.13,-0.03,29.9,1.69,26.81,0.03,0.5,0.86,-0.68,0.08,-1.16
871,1900-01-01 12:01:16.775,29.16,18.82,-15.42,0.31,0.47,0.78,-1.3,0.53,-0.07,29.43,2.03,26.79,0.04,0.49,0.87,-2.29,1.22,-0.89
872,1900-01-01 12:01:16.855,28.73,18.43,-15.44,0.3,0.46,0.78,-1.34,1.6,-0.22,29.0,1.61,26.81,0.03,0.48,0.87,-0.75,0.31,-1.11
873,1900-01-01 12:01:16.944,29.84,18.54,-15.48,0.31,0.48,0.78,-1.37,1.39,0.35,29.82,1.66,26.8,0.03,0.49,0.86,-0.15,-0.99,-0.26
874,1900-01-01 12:01:17.010,29.49,18.49,-15.44,0.31,0.48,0.79,-1.02,0.86,0.01,29.58,2.03,26.92,0.04,0.5,0.87,-0.26,-0.43,-0.93
875,1900-01-01 12:01:17.096,29.32,18.32,-15.45,0.3,0.47,0.78,-1.49,1.15,-0.25,29.52,1.48,26.94,0.03,0.49,0.86,-0.78,-0.22,-0.93
876,1900-01-01 12:01:17.143,28.37,18.99,-15.49,0.32,0.46,0.79,-1.08,1.05,0.4,28.94,2.32,26.95,0.04,0.49,0.88,-0.84,-0.15,-1.05
877,1900-01-01 12:01:17.259,29.75,18.27,-15.44,0.3,0.48,0.79,-2.01,1.5,0.49,30.02,1.43,26.95,0.02,0.5,0.86,-0.95,0.47,-0.82
878,1900-01-01 12:01:17.285,29.39,18.82,-15.37,0.31,0.47,0.77,-1.47,1.24,0.0,29.39,1.54,26.98,0.03,0.49,0.86,-0.84,0.46,-1.12
879,1900-01-01 12:01:17.374,28.9,18.55,-15.38,0.3,0.46,0.78,-1.02,1.02,-0.17,29.3,1.37,26.97,0.02,0.49,0.86,-0.34,-0.58,-1.02
880,1900-01-01 12:01:17.468,29.06,18.51,-15.42,0.31,0.47,0.79,-1.1,1.01,0.49,29.31,1.59,26.97,0.03,0.49,0.87,-0.5,-0.37,-0.66
881,1900-01-01 12:01:17.520,29.65,18.48,-15.35,0.31,0.48,0.78,-1.26,1.08,-0.04,29.75,1.46,27.03,0.03,0.49,0.86,-0.31,-0.2,-0.76
882,1900-01-01 12:01:17.662,28.89,18.65,-15.36,0.3,0.46,0.78,-1.12,1.15,0.24,29.75,1.4,27.07,0.02,0.49,0.86,-0.82,-0.05,-1.0
883,1900-01-01 12:01:17.704,29.41,18.96,-15.34,0.32,0.48,0.8,-1.12,1.21,0.66,29.69,1.88,27.08,0.03,0.5,0.88,-0.34,-0.44,-0.07
884,1900-01-01 12:01:17.749,28.78,18.72,-15.24,0.31,0.46,0.79,-1.1,0.8,-0.18,28.21,2.0,27.23,0.03,0.47,0.88,-0.39,0.28,-1.32
885,1900-01-01 12:01:17.848,29.29,18.55,-15.28,0.31,0.47,0.78,-1.51,1.39,-0.31,29.55,1.15,27.19,0.02,0.49,0.86,-0.83,0.21,-1.61
886,1900-01-01 12:01:17.933,28.01,19.08,-15.33,0.31,0.45,0.79,-1.35,1.54,-0.27,28.21,1.79,27.1,0.03,0.47,0.88,-0.73,-0.44,-1.11
887,1900-01-01 12:01:18.013,28.52,18.77,-15.39,0.31,0.46,0.78,-1.44,1.79,0.46,29.0,1.58,27.09,0.03,0.48,0.87,-1.25,0.08,-0.91
888,1900-01-01 12:01:18.078,29.36,18.95,-15.32,0.31,0.47,0.78,-1.39,1.62,-0.24,29.45,1.26,27.11,0.02,0.49,0.86,-0.52,-0.48,-0.69
889,1900-01-01 12:01:18.124,29.38,18.37,-15.37,0.3,0.47,0.78,-0.85,1.12,-0.21,29.89,1.06,27.16,0.02,0.5,0.86,-0.26,-0.38,-1.37
890,1900-01-01 12:01:18.277,28.8,18.64,-15.41,0.31,0.47,0.79,-1.24,1.69,0.08,29.2,1.44,27.11,0.03,0.49,0.87,-0.4,-0.42,-0.69
891,1900-01-01 12:01:18.277,29.26,18.66,-15.4,0.31,0.47,0.78,-1.35,1.35,0.21,29.32,1.45,27.16,0.03,0.49,0.87,-0.6,0.24,-0.89
892,1900-01-01 12:01:18.413,29.11,18.54,-15.38,0.31,0.47,0.78,-1.05,1.3,-0.08,29.25,1.25,27.18,0.02,0.48,0.87,-0.44,-0.31,-1.02
893,1900-01-01 12:01:18.453,28.85,18.74,-15.4,0.31,0.46,0.78,-1.08,1.27,0.02,29.02,1.49,27.19,0.03,0.48,0.87,-0.5,-0.36,-0.89
894,1900-01-01 12:01:18.518,29.13,18.78,-15.41,0.31,0.48,0.79,-1.28,1.21,0.2,29.64,1.4,27.21,0.02,0.5,0.88,-0.42,-0.21,-0.76
895,1900-01-01 12:01:18.615,29.44,18.24,-15.39,0.3,0.47,0.78,-1.07,1.25,0.25,29.39,0.95,27.25,0.02,0.49,0.86,-0.36,0.13,-0.79
896,1900-01-01 12:01:18.676,29.1,18.68,-15.36,0.31,0.47,0.79,-1.37,1.23,0.18,29.53,1.31,27.29,0.02,0.49,0.87,-0.66,0.09,-1.08
897,1900-01-01 12:01:18.762,28.94,18.41,-15.34,0.3,0.46,0.78,-1.41,1.63,0.08,29.18,0.98,27.28,0.02,0.48,0.86,-0.81,-0.18,-0.69
898,1900-01-01 12:01:18.844,29.0,18.89,-15.33,0.31,0.47,0.78,-1.1,1.28,-0.02,29.35,1.5,27.34,0.03,0.49,0.87,-0.34,-0.92,-0.37
899,1900-01-01 12:01:18.928,29.42,18.63,-15.35,0.31,0.47,0.78,-1.32,1.04,-0.02,29.76,1.51,27.44,0.03,0.5,0.87,-0.22,-1.61,-0.59
900,1900-01-01 12:01:18.966,29.23,18.5,-15.36,0.31,0.47,0.79,-1.24,1.24,-0.34,29.77,1.4,27.51,0.02,0.49,0.86,-0.11,-0.71,-0.85
901,1900-01-01 12:01:19.060,28.92,18.69,-15.42,0.31,0.46,0.78,-1.04,1.26,0.07,29.44,1.74,27.53,0.03,0.49,0.87,-0.27,-0.49,-0.76
902,1900-01-01 12:01:19.154,29.29,18.91,-15.42,0.31,0.47,0.79,-0.87,0.87,0.47,29.78,1.88,27.58,0.03,0.5,0.87,-0.34,-0.74,-0.45
903,1900-01-01 12:01:19.201,29.52,18.54,-15.35,0.31,0.48,0.78,-1.36,1.06,-0.11,29.65,1.71,27.67,0.03,0.49,0.87,-0.32,-0.42,-0.92
904,1900-01-01 12:01:19.292,29.13,18.85,-15.38,0.31,0.47,0.79,-0.66,1.14,-0.66,29.57,1.94,27.68,0.03,0.49,0.87,0.04,0.04,-1.53
905,1900-01-01 12:01:19.427,28.58,18.78,-15.49,0.3,0.45,0.77,-0.52,0.94,0.15,29.12,1.65,27.61,0.03,0.48,0.86,-0.09,-0.53,-0.68
906,1900-01-01 12:01:19.427,29.53,19.1,-15.47,0.32,0.48,0.79,-0.24,0.45,0.52,30.24,2.2,27.66,0.04,0.51,0.87,0.44,-0.49,-0.57
907,1900-01-01 12:01:19.515,31.29,17.9,-15.4,0.3,0.5,0.77,-0.29,0.85,-0.08,31.46,0.51,27.73,0.01,0.52,0.85,1.08,-0.29,-0.89
908,1900-01-01 12:01:19.597,29.22,19.23,-15.42,0.32,0.48,0.79,-1.48,1.47,-0.15,30.3,2.16,27.76,0.04,0.51,0.87,-0.39,0.08,-1.11
909,1900-01-01 12:01:19.678,29.49,18.78,-15.45,0.31,0.48,0.78,-1.35,1.17,0.82,30.16,1.7,27.74,0.03,0.5,0.87,-0.75,0.21,-0.87
910,1900-01-01 12:01:19.761,29.14,18.83,-15.34,0.31,0.46,0.77,-1.66,1.41,-0.13,28.97,1.76,27.77,0.03,0.48,0.86,-0.71,0.37,-1.13
911,1900-01-01 12:01:19.844,29.7,19.42,-15.37,0.32,0.48,0.78,-1.21,1.0,-0.63,30.49,2.08,27.76,0.04,0.51,0.87,-0.04,-0.17,-1.4
912,1900-01-01 12:01:19.899,28.99,19.08,-15.47,0.31,0.46,0.78,-1.37,1.04,0.03,30.04,1.54,27.7,0.03,0.5,0.86,-0.78,-0.2,-1.51
913,1900-01-01 12:01:19.991,30.58,18.23,-15.48,0.3,0.49,0.78,-1.37,1.48,0.63,31.1,0.74,27.63,0.01,0.52,0.86,-0.54,0.45,-0.56
914,1900-01-01 12:01:20.038,30.73,18.37,-15.39,0.3,0.49,0.77,-0.83,0.91,0.15,30.88,0.6,27.7,0.01,0.51,0.85,-0.01,-0.16,-0.38
915,1900-01-01 12:01:20.132,29.12,19.32,-15.37,0.32,0.48,0.79,-0.82,0.44,0.4,30.14,1.68,27.8,0.03,0.51,0.87,-0.31,-0.41,-0.7
916,1900-01-01 12:01:20.257,28.75,19.3,-15.32,0.32,0.47,0.79,-1.02,0.88,-0.12,29.27,1.99,27.85,0.03,0.49,0.88,-0.02,-0.2,-1.17
917,1900-01-01 12:01:20.283,29.95,18.69,-15.35,0.31,0.48,0.78,-1.49,1.23,-0.14,30.16,1.33,27.83,0.02,0.5,0.86,-0.35,0.23,-1.42
918,1900-01-01 12:01:20.344,29.89,18.49,-15.38,0.31,0.48,0.78,-1.34,1.17,-0.18,30.33,0.68,27.77,0.01,0.51,0.86,-0.43,-0.26,-0.95
919,1900-01-01 12:01:20.425,28.96,18.81,-15.41,0.31,0.46,0.78,-1.33,1.53,0.11,29.32,1.17,27.79,0.02,0.48,0.86,-1.06,-0.59,-0.4
920,1900-01-01 12:01:20.525,28.9,19.56,-15.4,0.33,0.47,0.79,-1.05,0.92,-0.36,29.51,2.08,27.88,0.04,0.5,0.88,-0.2,-0.98,-0.7
921,1900-01-01 12:01:20.606,28.59,19.39,-15.47,0.32,0.46,0.78,-1.42,1.18,0.0,29.89,1.72,27.94,0.03,0.5,0.86,-1.21,-0.34,-1.5
922,1900-01-01 12:01:20.691,29.84,18.79,-15.48,0.31,0.48,0.78,-1.68,1.69,-0.02,30.8,0.98,27.86,0.02,0.51,0.86,-0.49,-0.36,-0.57
923,1900-01-01 12:01:20.759,29.7,19.15,-15.49,0.32,0.48,0.77,-1.33,1.41,0.27,30.44,1.28,27.93,0.02,0.5,0.86,-0.77,-0.15,-0.79
924,1900-01-01 12:01:20.831,29.88,19.07,-15.46,0.32,0.49,0.78,-1.05,0.9,-0.04,30.57,1.5,27.97,0.03,0.51,0.87,-0.27,-0.37,-1.08
925,1900-01-01 12:01:20.877,29.07,18.96,-15.47,0.31,0.47,0.78,-1.47,1.62,0.14,29.82,1.02,27.97,0.02,0.49,0.86,-1.27,-0.15,-0.99
926,1900-01-01 12:01:20.969,29.55,19.22,-15.46,0.32,0.48,0.78,-1.5,1.5,0.07,30.13,1.55,27.97,0.03,0.5,0.87,-0.64,-0.06,-0.75
927,1900-01-01 12:01:21.063,28.92,18.97,-15.45,0.31,0.46,0.78,-1.27,1.51,0.2,29.46,1.26,28.02,0.02,0.49,0.86,-1.33,-0.08,-1.07
928,1900-01-01 12:01:21.110,29.68,19.08,-15.43,0.32,0.48,0.78,-1.3,1.31,-0.02,30.3,1.1,28.01,0.02,0.5,0.86,-0.38,-0.25,-0.82
929,1900-01-01 12:01:21.203,29.29,19.02,-15.45,0.31,0.47,0.78,-1.03,1.32,-0.13,29.93,1.28,28.04,0.02,0.5,0.86,-0.65,-0.59,-0.82
930,1900-01-01 12:01:21.261,29.6,18.84,-15.47,0.31,0.47,0.78,-1.11,1.44,-0.05,30.12,1.0,28.08,0.02,0.5,0.86,-0.58,-0.31,-0.88
931,1900-01-01 12:01:21.356,29.5,19.13,-15.49,0.32,0.48,0.78,-1.03,1.2,-0.05,29.93,1.49,28.1,0.03,0.5,0.87,-0.54,-0.37,-0.93
932,1900-01-01 12:01:21.436,29.47,18.97,-15.5,0.31,0.47,0.78,-0.85,1.24,0.08,29.91,1.18,28.12,0.02,0.5,0.86,-0.48,-0.24,-0.89
933,1900-01-01 12:01:21.511,29.58,19.07,-15.5,0.32,0.48,0.78,-0.79,1.22,0.0,29.92,1.41,28.14,0.02,0.5,0.86,-0.34,-0.4,-0.77
934,1900-01-01 12:01:21.618,29.48,19.15,-15.51,0.32,0.47,0.78,-0.75,1.28,0.05,30.11,1.54,28.18,0.03,0.5,0.86,-0.4,-0.28,-0.84
935,1900-01-01 12:01:21.686,29.78,19.01,-15.51,0.31,0.48,0.78,-1.09,0.92,0.18,30.18,1.23,28.21,0.02,0.5,0.86,-0.46,-0.27,-0.87
936,1900-01-01 12:01:21.717,30.05,18.96,-15.49,0.31,0.49,0.78,-0.85,1.38,-0.08,29.94,1.18,28.23,0.02,0.5,0.86,-0.05,-0.13,-0.77
937,1900-01-01 12:01:21.811,29.65,19.03,-15.51,0.31,0.48,0.78,-1.34,1.4,0.16,30.24,1.33,28.28,0.02,0.5,0.86,-0.85,-0.11,-0.92
938,1900-01-01 12:01:21.905,29.81,19.05,-15.5,0.31,0.48,0.77,-1.25,1.35,-0.13,30.26,1.25,28.29,0.02,0.5,0.86,-0.5,-0.62,-0.69
939,1900-01-01 12:01:21.952,29.54,19.09,-15.53,0.31,0.47,0.78,-0.95,0.93,0.06,30.37,1.36,28.34,0.02,0.5,0.86,-0.37,-0.39,-0.92
940,1900-01-01 12:01:22.046,29.61,18.92,-15.52,0.31,0.48,0.78,-1.12,1.26,-0.1,30.23,1.25,28.36,0.02,0.5,0.86,-0.27,-0.59,-0.75
941,1900-01-01 12:01:22.120,30.04,19.12,-15.55,0.32,0.48,0.77,-0.98,1.15,-0.08,30.45,1.33,28.41,0.02,0.5,0.86,-0.37,-0.44,-0.81
942,1900-01-01 12:01:22.225,29.72,19.2,-15.57,0.32,0.48,0.78,-1.13,0.95,-0.07,30.32,1.59,28.44,0.03,0.5,0.86,-0.17,-0.56,-0.85
943,1900-01-01 12:01:22.292,29.7,19.32,-15.59,0.32,0.48,0.78,-1.15,0.95,0.03,30.24,1.52,28.47,0.03,0.5,0.86,-0.31,-0.32,-0.96
944,1900-01-01 12:01:22.326,29.8,18.92,-15.59,0.31,0.48,0.77,-1.11,1.15,-0.16,30.2,1.24,28.48,0.02,0.5,0.86,-0.39,-0.44,-0.95
945,1900-01-01 12:01:22.420,29.73,19.23,-15.63,0.32,0.48,0.78,-0.92,1.04,-0.28,30.43,1.57,28.49,0.03,0.51,0.86,-0.21,-0.5,-1.05
946,1900-01-01 12:01:22.512,29.75,18.94,-15.68,0.31,0.48,0.77,-1.34,1.4,0.0,30.35,1.39,28.49,0.02,0.5,0.86,-0.82,-0.02,-1.15
947,1900-01-01 12:01:22.559,29.83,19.16,-15.69,0.31,0.48,0.77,-1.44,1.38,-0.08,30.22,1.43,28.47,0.02,0.5,0.86,-0.63,-0.37,-0.88
948,1900-01-01 12:01:22.653,29.72,19.33,-15.71,0.32,0.48,0.78,-1.23,1.07,-0.17,30.47,1.55,28.5,0.03,0.51,0.86,-0.54,-0.56,-1.02
949,1900-01-01 12:01:22.736,30.07,18.94,-15.74,0.31,0.48,0.77,-1.24,1.2,0.11,30.54,1.13,28.5,0.02,0.5,0.85,-0.58,-0.18,-1.03
950,1900-01-01 12:01:22.817,29.89,19.27,-15.73,0.32,0.48,0.77,-1.26,1.04,0.1,30.46,1.44,28.5,0.03,0.51,0.86,-0.44,-0.24,-0.89
951,1900-01-01 12:01:22.898,30.08,19.12,-15.73,0.32,0.48,0.77,-1.59,0.96,0.01,30.5,1.34,28.52,0.02,0.5,0.85,-0.56,-0.5,-0.79
952,1900-01-01 12:01:22.978,29.46,19.41,-15.73,0.32,0.48,0.78,-1.42,1.12,-0.05,30.28,1.67,28.56,0.03,0.51,0.87,-0.53,-0.29,-1.02
