Time,Pitch, falcon_x, falcon_y, falcon_z,Roll1,Pitch1,Yaw1,AccX1,AccY1,AccZ1,RotX1,RotY1,RotZ1
1900-01-01 16:48:28.800,13.897000534992952,-0.2963112,-0.0438771,0.13716140000000002,45.510000000000005,32.425,30.770000000000003,0.55,0.735,0.46499999999999997,-0.8899999999999999,0.79,-0.655
1900-01-01 16:48:29.100,13.415022939645926,-0.2561018181818182,-0.003231338181818182,0.10637445454545456,45.44,33.177499999999995,30.439999999999998,0.55,0.7175,0.445,0.08750000000000005,-2.025,-1.6425
1900-01-01 16:48:29.400,13.607950928957175,-0.1809423181818182,0.01147438818181818,0.10367282727272728,45.7325,33.075,30.3125,0.55,0.72,0.44,-0.8724999999999999,-0.9675,-1.28
1900-01-01 16:48:29.700,12.42966352883825,0.072846506,-0.022770437999999997,0.1326708,45.7175,33.0175,30.1075,0.5475000000000001,0.72,0.44,-1.7025000000000001,-1.2525,-1.465
1900-01-01 16:48:30.000,10.46513428337403,0.3695696363636364,-0.22917381818181817,0.14914763636363637,45.8275,32.955,29.4225,0.55,0.725,0.44,-1.375,-0.47000000000000003,-2.355
1900-01-01 16:48:30.300,10.646150955047625,0.6235076363636364,-0.24797463636363634,0.16214936363636365,45.9775,32.8375,29.3425,0.5425,0.7175,0.435,0.1375,-0.7250000000000001,-0.2275
1900-01-01 16:48:30.600,10.066406072067906,0.6670189090909091,-0.2203777272727273,0.16607081818181818,45.99,32.99333333333333,29.656666666666666,0.55,0.7233333333333333,0.43333333333333335,0.003333333333333355,0.17333333333333334,-0.9433333333333334
1900-01-01 16:48:30.900,9.852354308257791,0.6633465454545454,-0.22014845454545454,0.16421154545454544,46.098,32.97,29.704,0.542,0.722,0.43,-0.018000000000000016,-0.19,-0.776
1900-01-01 16:48:31.200,9.955635080550714,0.6366181818181817,-0.21371590909090907,0.1594240909090909,45.94333333333333,33.126666666666665,29.953333333333333,0.5533333333333333,0.7266666666666666,0.4366666666666667,0.0366666666666667,-0.35000000000000003,-0.2833333333333333
1900-01-01 16:48:31.500,10.50876601166735,0.554603090909091,0.0017454754545454545,0.1743769090909091,45.4775,33.675,30.3125,0.5525,0.7075,0.4275,-2.015,-0.4475,-0.2575
1900-01-01 16:48:31.800,11.043160686408925,0.5848425454545455,0.07056432727272727,0.14549936363636362,45.485,33.4875,30.5225,0.555,0.715,0.435,-1.315,-0.7275,-1.6224999999999998
1900-01-01 16:48:32.100,11.15718592618185,0.6837150909090909,0.09707053636363637,0.12385463636363636,45.4125,33.555,30.29,0.555,0.7175,0.4375,-1.3050000000000002,-0.485,-0.8025
1900-01-01 16:48:32.400,11.27348826425345,0.767198909090909,0.11670275454545455,0.08399270909090908,45.730000000000004,33.0925,30.35,0.5475000000000001,0.7175,0.435,0.034999999999999976,0.10999999999999999,-1.9325
1900-01-01 16:48:32.700,9.991796171314913,0.7694675833333333,0.10266215666666667,0.080856925,45.7475,33.765,30.2425,0.5625,0.725,0.4275,0.62,-0.9125,0.7625000000000001
1900-01-01 16:48:33.000,10.285991641291513,0.719379,0.33593127272727275,0.16491545454545456,45.307500000000005,34.307500000000005,31.315,0.5675,0.715,0.4225,-0.6375000000000001,0.24,-0.057499999999999996
1900-01-01 16:48:33.300,11.1001635471143,0.7033061818181818,0.4200600909090909,0.19301163636363636,45.245,34.1275,31.6875,0.565,0.7175,0.43,-0.955,-0.09500000000000001,-0.79
1900-01-01 16:48:33.600,9.997712370645097,0.6893259090909091,0.4187843636363636,0.1974159090909091,45.105,34.55,31.95,0.5725,0.7124999999999999,0.425,-0.345,0.0325,-0.02999999999999999
1900-01-01 16:48:33.900,9.604701894699668,0.48911754545454544,0.45067681818181815,0.17747381818181818,44.0325,35.615,32.695,0.5874999999999999,0.7,0.425,0.4675,1.555,0.6825
1900-01-01 16:48:34.200,11.665701945662224,0.20574383636363638,0.6909385454545455,0.25691772727272727,44.480000000000004,34.48,33.735,0.5675,0.7024999999999999,0.435,0.635,2.1525,0.18250000000000002
1900-01-01 16:48:34.500,12.0500601245298,0.014125937272727273,0.8630314545454546,0.27584627272727275,43.675,34.88,34.394999999999996,0.575,0.6925,0.445,-0.79,1.2525,-0.16
1900-01-01 16:48:34.800,14.201290550132855,-0.039026200000000004,1.0119202727272727,0.2544044545454546,43.60333333333333,33.596666666666664,34.446666666666665,0.5733333333333333,0.71,0.48333333333333334,-2.17,-1.6466666666666667,-1.41
1900-01-01 16:48:35.100,12.7950236165197,-0.052748409090909096,1.0500472727272727,0.24190390909090909,43.0,34.774,34.321999999999996,0.5700000000000001,0.682,0.45599999999999996,-1.544,0.37599999999999983,-1.532
1900-01-01 16:48:35.400,13.011925438487934,-0.022085457090909092,0.9859410909090909,0.19607818181818182,43.93666666666667,34.04333333333333,33.99333333333333,0.5533333333333333,0.6866666666666666,0.45,0.5866666666666666,-0.6866666666666666,-2.74
1900-01-01 16:48:35.700,12.9664319477624,0.0600236875,0.6444458333333333,0.091508325,43.735,34.465,32.945,0.58,0.7075,0.4575,-2.07,-3.8725,-2.8475
1900-01-01 16:48:36.000,10.972124477446876,0.143216,0.36314854545454545,0.14884563636363637,43.926,34.742000000000004,32.466,0.572,0.696,0.442,-1.454,-1.226,-0.764
1900-01-01 16:48:36.300,11.215012296447767,0.2270108181818182,0.30545754545454545,0.16212972727272726,43.98333333333333,34.473333333333336,32.53666666666667,0.57,0.6999999999999998,0.45,-0.09333333333333334,-0.42333333333333334,-0.73
1900-01-01 16:48:36.600,10.321033075790933,0.27081958333333334,0.26991325,0.16603991666666665,44.1025,34.8275,32.6525,0.575,0.7,0.44,-0.052500000000000005,-0.33,-0.89
1900-01-01 16:48:36.900,10.234340050013643,0.27508327272727273,0.25627099999999997,0.16288654545454545,44.1875,34.6675,32.7225,0.57,0.7,0.44,-0.2875,-0.085,-1.0075
1900-01-01 16:48:37.200,9.97609845136231,0.2735421818181818,0.24444963636363637,0.16122718181818183,44.3725,34.57,32.6725,0.57,0.7024999999999999,0.4375,-0.5325,0.24,-1.075
1900-01-01 16:48:37.500,9.4995316709395,0.2679780909090909,0.23300581818181818,0.16201554545454544,44.47,34.4725,32.74,0.57,0.7024999999999999,0.4375,-0.0475,-0.2675,-0.8075
1900-01-01 16:48:37.800,9.47554814327465,0.25258833333333336,0.21760516666666666,0.16776175000000002,44.4,34.515,32.9,0.57,0.7,0.4375,-0.185,-0.235,-0.7324999999999999
1900-01-01 16:48:38.100,9.168689202089583,0.2448301818181818,0.2098417272727273,0.17068709090909093,44.4925,34.6875,33.0825,0.57,0.705,0.4325,-0.48750000000000004,-0.2925,-0.785
1900-01-01 16:48:38.400,8.316161660463372,0.24396836363636362,0.20260090909090908,0.169489,44.61,34.8,33.2675,0.575,0.7075,0.43,-0.195,-0.17250000000000001,-0.725
1900-01-01 16:48:38.700,8.034329889830476,0.24126081818181816,0.19693763636363634,0.16794354545454546,44.7675,34.575,33.402499999999996,0.57,0.71,0.4325,-0.07250000000000001,-0.020000000000000004,-0.935
1900-01-01 16:48:39.000,7.47042431881724,0.2509969166666667,0.15957758333333333,0.15473016666666667,45.1,34.49333333333333,33.36666666666667,0.5666666666666667,0.7133333333333333,0.42333333333333334,0.36000000000000004,-0.6,-1.4633333333333336
1900-01-01 16:48:39.300,5.63489012145602,0.28204563636363633,0.04717680272727273,0.11690754545454546,46.128,34.538,33.128,0.568,0.722,0.4,0.826,-0.26000000000000006,-1.7579999999999998
1900-01-01 16:48:39.600,0.4874573658905397,0.30338099999999996,-0.04908493636363636,0.08925605454545454,47.79,35.23,32.75666666666667,0.59,0.7533333333333333,0.35000000000000003,7.813333333333333,-8.923333333333334,-0.05999999999999999
1900-01-01 16:48:39.900,-0.7960168509464909,0.3161956363636364,-0.08883391818181817,0.10056106363636363,46.702,35.384,33.166,0.582,0.732,0.368,-7.814,0.752,-0.5519999999999999
1900-01-01 16:48:40.200,-2.4182205850307548,0.3884655454545454,-0.2226582727272727,0.09761366363636363,44.68666666666667,35.99,33.63333333333333,0.6,0.7133333333333333,0.4066666666666667,-2.53,0.26666666666666666,-0.31666666666666665
1900-01-01 16:48:40.500,-3.3150437802898725,0.4632925454545455,-0.3167467272727273,0.13053545454545454,44.55,35.4075,33.55,0.58,0.7,0.415,-1.2825,-0.07500000000000001,-2.5949999999999998
1900-01-01 16:48:40.800,-5.546337474550352,0.4932463636363636,-0.3500653636363636,0.12602227272727273,45.44,35.7325,32.947500000000005,0.5825,0.7124999999999999,0.39,2.5775,-2.73,-0.18999999999999997
1900-01-01 16:48:41.100,-4.216705713516685,0.510090909090909,-0.2540937272727273,0.17184836363636363,45.715,36.065,33.5175,0.5974999999999999,0.725,0.3825,-0.38749999999999996,-0.4875,0.42
1900-01-01 16:48:41.400,-4.203918880326545,0.5459438333333333,-0.08299295,0.26550708333333334,45.355000000000004,36.6125,34.38,0.6,0.715,0.37,-0.6025,-0.15500000000000003,-0.765
1900-01-01 16:48:41.700,-3.6655639565528073,0.4845229090909091,-0.08084794545454545,0.23149063636363634,44.845,36.8375,34.667500000000004,0.605,0.7124999999999999,0.3825,0.11000000000000001,0.1925,0.020000000000000007
1900-01-01 16:48:42.000,-2.3890428504375802,0.48353772727272726,0.0054129018181818195,0.14392591818181819,45.2325,37.0225,34.965,0.6074999999999999,0.715,0.3675,-0.9575,-0.3225,-1.9975
1900-01-01 16:48:42.300,-0.9363553685451133,0.6643860833333334,-0.012297849750000001,0.09097630833333333,45.74,36.019999999999996,34.417500000000004,0.59,0.7224999999999999,0.3775,-0.4675,-0.4175,-1.5375
1900-01-01 16:48:42.600,-2.30812981581779,0.7773740909090908,-0.13600153636363635,0.05070435454545454,45.583333333333336,36.330000000000005,34.13333333333333,0.5966666666666667,0.7200000000000001,0.37333333333333335,0.12,-0.27999999999999997,-1.1533333333333333
1900-01-01 16:48:42.900,-2.3628151347759427,0.7669001818181819,-0.17952154545454546,0.02920511818181818,46.0525,36.1725,34.0725,0.5925,0.725,0.3675,-0.0675,-0.3775,-1.3925
1900-01-01 16:48:43.200,-0.7501369736251225,0.5598533636363636,-0.03838074727272727,0.05512948181818182,46.0,36.11,34.176,0.594,0.724,0.368,0.132,0.08,-0.384
1900-01-01 16:48:43.500,0.48942476966921156,0.4275245833333334,0.05131451666666667,0.04345035833333333,46.21333333333333,36.26,34.553333333333335,0.5933333333333333,0.7266666666666666,0.3633333333333333,0.62,-0.33,-0.61
1900-01-01 16:48:43.800,0.34575240691884657,0.3968748181818182,0.08023996363636364,0.04515432727272727,46.3,36.442499999999995,34.567499999999995,0.6,0.7275,0.355,-0.55,-0.16749999999999998,-1.1125
1900-01-01 16:48:44.100,1.761254637959583,0.3415666363636363,0.1191892909090909,0.06102942727272727,46.1075,36.08,34.5125,0.5925,0.7275,0.37,-1.8825,0.35250000000000004,-1.3125
1900-01-01 16:48:44.400,1.5894975727949132,0.3797759,0.05519521000000001,0.10801583,45.0125,36.08,34.415,0.5925,0.71,0.3925,-2.94,-0.265,-0.9675
1900-01-01 16:48:44.700,1.110289023486155,0.47426016666666665,0.021119149166666667,0.14328708333333331,45.1275,35.8125,34.405,0.59,0.71,0.395,-0.4875,-0.2425,-1.05
1900-01-01 16:48:45.000,0.9111830777718093,0.4882148181818182,-0.004178447272727273,0.13787463636363637,45.32,35.6925,34.4225,0.59,0.7175,0.3975,-0.13749999999999998,-0.07,-0.95
1900-01-01 16:48:45.300,0.5455895779074723,0.4889244,-0.00688757,0.1370337,45.4375,35.7425,34.495,0.5874999999999999,0.715,0.39,-0.10500000000000001,-0.25,-0.9950000000000001
1900-01-01 16:48:45.600,0.5771242662963968,0.4787010909090909,-0.020179663636363636,0.12541509090909092,45.54,35.7225,34.425,0.5874999999999999,0.7175,0.39,-0.024999999999999994,-0.4625,-1.2825
1900-01-01 16:48:45.900,1.18237392730351,0.47058672727272727,-0.025440218181818183,0.11860309090909092,45.8275,35.445,34.36,0.585,0.725,0.39,-0.845,-0.46249999999999997,-0.81
1900-01-01 16:48:46.200,0.3517306471319023,0.4730624545454546,-0.0398838,0.11491018181818181,45.46,36.0125,34.6,0.59,0.715,0.3825,-0.8099999999999999,-0.2425,-0.825
1900-01-01 16:48:46.500,0.7009736923397691,0.47393809090909095,-0.04963444545454545,0.11286945454545454,45.5875,35.644999999999996,34.589999999999996,0.5874999999999999,0.72,0.39,-0.6950000000000001,0.0325,-1.095
1900-01-01 16:48:46.800,1.1411689534080456,0.46992211111111115,-0.05679422222222222,0.11391566666666668,45.70666666666667,35.56666666666667,34.53333333333333,0.5866666666666666,0.7233333333333333,0.3933333333333333,-1.0033333333333332,-0.13999999999999999,-0.77
1900-01-01 16:48:47.100,0.8779578860109251,0.46660408333333336,-0.06820938333333333,0.11392358333333334,45.745999999999995,35.477999999999994,34.658,0.582,0.72,0.388,-0.43600000000000005,-0.404,-1.1179999999999999
1900-01-01 16:48:47.400,0.7176502780959743,0.46364418181818184,-0.0766615,0.11211390909090908,45.60666666666666,35.623333333333335,34.693333333333335,0.5866666666666666,0.7200000000000001,0.38999999999999996,-0.48333333333333334,-0.17333333333333334,-0.7133333333333334
1900-01-01 16:48:47.700,1.903538220384005,0.44227236363636363,-0.06493922727272727,0.10107379999999999,45.7575,35.3675,34.6325,0.58,0.72,0.39,0.215,-0.24000000000000002,-1.5475
1900-01-01 16:48:48.000,2.5817950667772127,0.3679696363636364,-0.04205317272727272,0.06891937272727272,46.61,35.0725,34.457499999999996,0.58,0.7324999999999999,0.3775,-0.3925,-0.11,-1.46
1900-01-01 16:48:48.300,5.755169907660545,0.28587327272727275,0.05199822545454546,0.0687830909090909,45.84,35.0275,34.0625,0.5925,0.7375,0.4075,-2.9,0.1225,-0.5
1900-01-01 16:48:48.600,7.609693187746243,0.30472699999999997,0.45481200000000005,0.22816772727272727,44.9375,35.317499999999995,35.165,0.5774999999999999,0.705,0.4075,-2.55,0.03250000000000003,1.045
1900-01-01 16:48:48.900,7.138312664745495,0.365805,0.7054150833333334,0.24310116666666667,43.5575,36.2675,36.06,0.595,0.6924999999999999,0.4175,-0.48,-0.4275,-0.135
1900-01-01 16:48:49.200,6.68848174384846,0.3540970909090909,0.7756571818181818,0.2175621818181818,43.455,36.495,36.4325,0.6,0.695,0.42,-0.007500000000000008,-0.1275,-0.7825
1900-01-01 16:48:49.500,6.430432846043487,0.332415,0.7839485454545454,0.2089320909090909,43.73,36.4825,36.572500000000005,0.6,0.695,0.4125,-0.12,-0.11249999999999999,-0.81
1900-01-01 16:48:49.800,6.354286440090323,0.28868163636363636,0.7953614545454546,0.193332,43.68,36.5,36.666666666666664,0.6,0.6933333333333334,0.41333333333333333,0.20333333333333334,-0.07666666666666667,-0.9433333333333334
1900-01-01 16:48:50.100,6.421023239662693,0.26334654545454544,0.8010977272727273,0.18396290909090907,43.864,36.446,36.758,0.598,0.698,0.41200000000000003,0.33399999999999996,0.098,-0.782
1900-01-01 16:48:50.400,6.25939638527454,0.2324307272727273,0.8007402727272729,0.16821809090909093,44.1375,36.3325,36.8825,0.5974999999999999,0.7,0.4075,-0.525,-0.3475,-1.1099999999999999
1900-01-01 16:48:50.700,6.210654810505742,0.23169399999999998,0.80076,0.167863,44.052499999999995,36.3,36.885,0.595,0.7024999999999999,0.41,-1.6475,-0.0925,-0.9125000000000001
1900-01-01 16:48:51.000,6.26756435859383,0.23090654545454548,0.8037018181818183,0.16927545454545456,43.96666666666667,36.23,36.92333333333334,0.5933333333333333,0.6999999999999998,0.41333333333333333,-0.5399999999999999,0.039999999999999994,-1.0066666666666666
1900-01-01 16:48:51.300,6.088623194085532,0.22087418181818183,0.8117697272727273,0.1692530909090909,44.034,36.166,36.96,0.594,0.698,0.41200000000000003,0.018000000000000016,-0.354,-0.954
1900-01-01 16:48:51.600,6.273665295475997,0.25178,0.6987535,0.09850735,44.6,35.806666666666665,36.88333333333333,0.5833333333333334,0.7066666666666667,0.4066666666666667,-0.6366666666666666,-0.38999999999999996,-2.296666666666667
1900-01-01 16:48:51.900,8.523127635503474,0.44493618181818184,0.42160390909090906,-0.008596395454545455,45.38,34.5225,35.585,0.575,0.7175,0.4175,-1.1800000000000002,-0.6074999999999999,-4.155
1900-01-01 16:48:52.200,7.442466335881825,0.70699875,0.08477128083333334,-0.03019989166666667,46.2475,33.597500000000004,34.1,0.5525,0.7224999999999999,0.4125,-1.4849999999999999,-0.6975,-3.05
1900-01-01 16:48:52.500,7.0124745006621545,0.8099794545454546,-0.15311845454545456,-0.06961693636363636,46.8875,33.1675,32.9725,0.5525,0.7375,0.4125,-0.41500000000000004,-0.48,-1.6725
1900-01-01 16:48:52.800,8.695486528829573,0.8077621818181818,-0.2664533636363636,-0.014033438727272729,47.245,33.235,33.06,0.5575,0.7424999999999999,0.405,-3.3075,-2.08,-0.3775
1900-01-01 16:48:53.100,8.464264136906618,0.7763696363636363,-0.24244863636363637,0.015133827272727274,46.2275,34.1675,33.4625,0.565,0.73,0.4075,1.145,0.9400000000000001,0.05250000000000002
1900-01-01 16:48:53.400,7.513241621730497,0.7146206666666667,-0.08153605,0.0434761,45.8425,33.935,33.8275,0.5575000000000001,0.7175,0.41500000000000004,-1.745,0.23749999999999993,-0.8675
1900-01-01 16:48:53.700,8.463865741372157,0.6846061818181819,-0.06954390909090909,0.05161416363636364,46.025,33.9775,34.1625,0.56,0.7224999999999999,0.4125,-0.305,-0.1200000000000001,-0.5125
1900-01-01 16:48:54.000,7.27783920267979,0.5753269999999999,-0.04873962,0.09424086000000001,45.8325,34.345,34.65,0.5725,0.7324999999999999,0.415,1.1025,4.18,1.405
1900-01-01 16:48:54.300,8.437461312298124,0.12280297818181816,0.27780375454545453,0.2746410909090909,44.2425,34.4825,36.7625,0.565,0.695,0.44,-0.47,0.6925,2.2025
1900-01-01 16:48:54.600,9.52660137000862,-0.13364572727272728,0.6479862727272727,0.38756345454545454,43.7225,35.095,38.0475,0.58,0.6924999999999999,0.44,-1.8199999999999998,-0.605,-0.5025
1900-01-01 16:48:54.900,10.14862066257384,0.05923419818181818,0.8113354545454545,0.4276290909090909,43.20666666666667,35.06666666666667,37.916666666666664,0.5866666666666667,0.6999999999999998,0.4566666666666667,-2.5066666666666664,-2.08,-2.42
1900-01-01 16:48:55.200,8.442598102559547,0.19247936363636364,0.9280789090909092,0.3744962727272727,42.918,36.144,38.094,0.588,0.682,0.434,-0.2760000000000001,-0.5700000000000001,0.41200000000000003
1900-01-01 16:48:55.500,9.825156980823676,0.15116445454545455,1.034412090909091,0.26509363636363636,42.32,36.32666666666667,38.68333333333333,0.6,0.68,0.44333333333333336,-0.2466666666666667,-0.4366666666666666,-1.19
1900-01-01 16:48:55.800,10.354822113358752,0.2286438,0.9292817,0.1973093,43.2575,35.292500000000004,38.0625,0.5825,0.6875,0.445,-1.3175000000000001,-0.84,-3.6625
1900-01-01 16:48:56.100,9.537166773783165,0.5426403333333333,0.584851,0.14959875,44.03,35.02,36.3525,0.58,0.7024999999999999,0.4375,-1.9125,-1.985,-2.9475
1900-01-01 16:48:56.400,10.25527914285324,0.6822435454545455,0.34912054545454546,0.12803445454545456,44.802499999999995,33.975,35.55,0.565,0.71,0.4425,0.2425,-0.12249999999999997,-1.9275
1900-01-01 16:48:56.700,10.088487626323445,0.6862283636363636,0.20545890909090908,0.11233027272727272,44.9475,33.9075,35.2025,0.56,0.71,0.4375,-0.5525,-0.29500000000000004,-1.1125
1900-01-01 16:48:57.000,9.25951041427145,0.6674518,0.10343819000000001,0.14935130000000002,45.3475,33.78,35.4125,0.56,0.7175,0.4325,0.5775000000000001,0.47,0.175
1900-01-01 16:48:57.300,8.109758281175047,0.3501646363636363,-0.03741669609090909,0.1478470909090909,45.160000000000004,34.2025,36.24,0.565,0.7124999999999999,0.425,1.44,0.9275,0.10500000000000001
1900-01-01 16:48:57.600,8.16625689054232,-0.0006402545454545456,-0.0892147,0.14331936363636363,45.18,34.2425,36.6875,0.565,0.71,0.425,-1.2275,0.5225,-1.0075
1900-01-01 16:48:57.900,10.68030646380122,-0.11334791818181818,0.022405028181818182,0.16696945454545453,45.345,33.4125,36.4,0.5525,0.7175,0.4375,0.10749999999999998,0.755,-1.1525
1900-01-01 16:48:58.200,9.572337553143653,-0.12099336363636364,0.06752634545454544,0.16021972727272726,45.32,33.98,36.343333333333334,0.56,0.7066666666666667,0.4266666666666667,-1.1700000000000002,-1.2233333333333334,-1.7033333333333331
1900-01-01 16:48:58.500,10.547212651403951,-0.08533642727272728,0.05966201818181818,0.15214745454545453,45.302,33.396,36.134,0.554,0.718,0.442,-1.736,-0.6880000000000001,-1.436
1900-01-01 16:48:58.800,9.484680758229151,0.06591940181818182,-0.007108526363636364,0.17236200000000002,45.46666666666667,33.38666666666666,35.85333333333333,0.5533333333333333,0.7166666666666667,0.44,-0.2966666666666667,-0.9366666666666666,-1.2566666666666666
1900-01-01 16:48:59.100,8.972683143205163,0.23912008333333334,-0.06288529999999999,0.18910324999999997,45.405,33.49,35.8525,0.55,0.7124999999999999,0.4375,-0.7525,-0.8275,-0.955
1900-01-01 16:48:59.400,9.128117903722995,0.36856463636363634,-0.04841693636363636,0.20342063636363636,45.0475,33.5525,35.885,0.555,0.715,0.445,-2.3275,-0.5225,-0.9175
1900-01-01 16:48:59.700,8.685708612545657,0.404063,-0.04587482727272727,0.20514654545454547,44.8675,33.5475,35.9925,0.5575000000000001,0.71,0.445,-0.5475,-0.225,-0.86
1900-01-01 16:49:00.000,8.174117824558927,0.40732263636363636,-0.058889672727272725,0.2010071818181818,44.805,33.75,36.1075,0.5575000000000001,0.71,0.4425,0.0825,-0.05,-0.77
1900-01-01 16:49:00.300,8.28770240985857,0.39651036363636366,-0.05838737272727273,0.19537972727272726,44.835,33.45,36.1975,0.555,0.71,0.45,-0.375,0.215,-0.885
1900-01-01 16:49:00.600,7.563779604763043,0.3884358181818182,-0.0523582,0.1937477272727273,45.1375,33.644999999999996,36.4025,0.555,0.7124999999999999,0.4375,0.06999999999999999,-0.045000000000000005,-0.6125
1900-01-01 16:49:00.900,7.00711477469074,0.37702949999999996,-0.049380150000000005,0.1889708333333333,45.207499999999996,33.7175,36.6525,0.56,0.715,0.4375,-0.125,-0.53,-0.7775000000000001
1900-01-01 16:49:01.200,7.02339818930719,0.3662698181818182,-0.05122072727272728,0.18441545454545458,45.285,33.644999999999996,36.71,0.56,0.715,0.4375,-0.4,-0.3875,-0.9524999999999999
1900-01-01 16:49:01.500,6.76289621011992,0.35494963636363636,-0.04837441818181818,0.1798779090909091,45.1825,33.894999999999996,36.7875,0.56,0.7124999999999999,0.435,-0.61,-0.34249999999999997,-1.05
1900-01-01 16:49:01.800,7.135527524526518,0.3540144545454545,-0.04683514545454546,0.180079,45.39,33.675,36.7625,0.5575000000000001,0.7175,0.4325,-0.31,-0.215,-0.9650000000000001
1900-01-01 16:49:02.100,7.25426121628506,0.34735272727272726,-0.044314954545454546,0.17769372727272728,45.406666666666666,33.70333333333333,36.82333333333333,0.56,0.7166666666666667,0.43333333333333335,-0.43333333333333335,-0.13333333333333333,-0.8766666666666666
1900-01-01 16:49:02.400,7.130898921285288,0.3213890833333333,-0.037363175,0.16719883333333332,45.577999999999996,33.634,36.92,0.56,0.72,0.43,-0.32199999999999995,-0.02799999999999999,-0.966
1900-01-01 16:49:02.700,7.696196600361986,0.28749800000000003,-0.030862399999999998,0.15154236363636364,45.47666666666667,33.29333333333333,36.846666666666664,0.5533333333333333,0.7200000000000001,0.4366666666666667,-1.3933333333333333,0.6933333333333334,-1.6166666666666665
1900-01-01 16:49:03.000,7.548543073640877,0.2731039090909091,-0.043737118181818184,0.11968927272727271,45.6325,33.2875,36.557500000000005,0.55,0.71,0.43,-0.8300000000000001,-2.8025,-1.3599999999999999
1900-01-01 16:49:03.300,6.668778393077895,0.27497936363636366,-0.10849895454545454,0.08750417272727272,45.8925,33.457499999999996,36.18,0.555,0.725,0.425,-0.5825,-0.8975,-1.98
1900-01-01 16:49:03.600,7.1272745670341,0.27942463636363635,-0.13490181818181818,0.07938045454545455,46.445,33.332499999999996,35.91,0.5525,0.7275,0.4175,0.024999999999999994,-0.10750000000000001,-0.8999999999999999
1900-01-01 16:49:03.900,6.960893171736562,0.2848106666666667,-0.15947758333333334,0.07285950833333334,46.3025,33.43,35.9925,0.555,0.7275,0.4175,-0.09249999999999999,-0.2175,-0.77
1900-01-01 16:49:04.200,6.633762217872962,0.2846241,-0.1610721,0.07274655000000001,46.6125,33.4325,36.1825,0.5525,0.7324999999999999,0.4125,-0.0325,-0.035,-0.76
1900-01-01 16:49:04.500,6.56825226979655,0.27899854545454544,-0.16674590909090908,0.07518428181818182,46.7325,33.3,36.3025,0.55,0.7324999999999999,0.4125,-0.35000000000000003,0.1975,-0.99
1900-01-01 16:49:04.800,6.348702656327252,0.27725436363636363,-0.16850354545454546,0.0759424090909091,46.765,33.3,36.322500000000005,0.55,0.73,0.41,-0.145,-0.057499999999999996,-0.945
1900-01-01 16:49:05.100,6.318599896968225,0.27464063636363634,-0.1711391818181818,0.07708263636363637,46.9725,33.265,36.4075,0.55,0.735,0.4075,-0.30000000000000004,-0.375,-0.86
1900-01-01 16:49:05.400,6.35171544229794,0.2652953,-0.18056109999999997,0.0811767,47.04,33.126666666666665,36.47,0.55,0.7366666666666667,0.41,-0.62,-0.15,-1.0233333333333334
1900-01-01 16:49:05.700,6.212927355245216,0.26303381818181815,-0.18284081818181816,0.0821727,47.106,33.148,36.506,0.55,0.74,0.41,-0.62,-0.29,-0.9780000000000001
1900-01-01 16:49:06.000,5.95811595446818,0.2626466363636364,-0.1847960909090909,0.08155554545454545,47.22,33.156666666666666,36.5,0.55,0.7366666666666667,0.4033333333333333,-0.7433333333333333,-0.47000000000000003,-1.1633333333333333
1900-01-01 16:49:06.300,5.810980845984555,0.26361863636363636,-0.1938869090909091,0.07825658181818182,47.08,33.0775,36.445,0.545,0.735,0.4075,-0.58,-0.2775,-1.1125
1900-01-01 16:49:06.600,5.6999196731999575,0.27427608333333336,-0.23419308333333333,0.06700000833333333,47.2025,33.0125,36.3975,0.5475000000000001,0.7375,0.4075,-0.5975,-0.39,-0.8875
1900-01-01 16:49:06.900,5.320517509268865,0.28062909090909094,-0.25823854545454544,0.06045954545454545,47.16,33.1725,36.455,0.55,0.7375,0.405,-0.32,-0.5125,-1.1575
1900-01-01 16:49:07.200,5.548154803769237,0.28520636363636365,-0.27556763636363635,0.05580823636363636,47.292500000000004,32.98,36.3925,0.5475000000000001,0.7375,0.405,-0.1975,-0.3325,-1.01
1900-01-01 16:49:07.500,5.319728417928113,0.2834950909090909,-0.27734445454545453,0.055809945454545457,47.485,32.97,36.41,0.5475000000000001,0.7424999999999999,0.4025,-0.3075,-0.53,-1.1175
1900-01-01 16:49:07.800,4.760123004953805,0.2359718181818182,-0.2901589090909091,0.056009027272727274,47.93,32.52,36.635,0.5475000000000001,0.755,0.4075,1.7475,-1.2525,1.44
1900-01-01 16:49:08.100,-1.678882397431467,0.2063275,-0.2769599166666667,0.05054466666666666,46.06,35.64,38.345,0.5825,0.72,0.3775,-0.33999999999999997,1.22,0.37249999999999994
1900-01-01 16:49:08.400,-3.852297221843184,0.1894942727272727,-0.2491921818181818,0.03469847272727273,46.76333333333333,34.72666666666667,38.736666666666665,0.5733333333333334,0.7366666666666667,0.3833333333333333,0.17666666666666664,3.61,-1.38
1900-01-01 16:49:08.700,-6.4730022978717585,0.176759,-0.19527436363636363,0.025832081818181817,45.876,35.32,39.148,0.58,0.718,0.386,-3.024,-4.3340000000000005,2.064
1900-01-01 16:49:09.000,-17.015850910362623,0.1294609909090909,-0.09480168181818181,0.011573435454545455,42.5875,39.02,42.144999999999996,0.6174999999999999,0.6675,0.375,0.445,-4.1899999999999995,1.72
1900-01-01 16:49:09.300,-16.580595359536336,0.056051636363636366,-0.028229672727272725,-0.013400901818181819,43.833333333333336,38.406666666666666,42.82333333333333,0.64,0.7166666666666667,0.38000000000000006,9.803333333333333,5.363333333333332,-0.3599999999999999
1900-01-01 16:49:09.600,-11.166976736102223,0.02925549090909091,0.060448869999999995,0.008904848181818182,45.682,38.326,42.424,0.626,0.724,0.32599999999999996,-1.0399999999999998,1.2799999999999998,-1.754
1900-01-01 16:49:09.900,-10.483869343609447,0.005560326636363636,0.16032136363636365,0.07578423636363636,44.68666666666667,38.46333333333333,42.57666666666666,0.6266666666666666,0.71,0.3466666666666667,-3.1733333333333333,-0.3400000000000001,-0.24333333333333332
1900-01-01 16:49:10.200,-11.333588630627082,0.11580606909090908,0.16004836363636363,0.17514436363636363,43.6725,38.917500000000004,43.1275,0.6325000000000001,0.6975,0.36,-0.15999999999999998,1.5225,0.4275
1900-01-01 16:49:10.500,-12.82135983622245,0.27011418181818186,0.16051154545454546,0.2413268181818182,43.895,39.225,43.73,0.635,0.6975,0.34750000000000003,0.35250000000000004,-0.5675000000000001,-0.4075
1900-01-01 16:49:10.800,-12.7295112689368,0.24018272727272727,0.14963981818181818,0.21052754545454544,43.3425,39.5975,44.8925,0.645,0.695,0.3525,0.37750000000000006,0.38,1.1
1900-01-01 16:49:11.100,-15.12000558040205,0.2736363636363636,0.04122226727272727,0.17487790909090908,42.225,41.0875,45.94,0.665,0.68,0.345,-1.2225,-2.085,0.28500000000000003
1900-01-01 16:49:11.400,-17.757311747416676,0.37842575000000006,-0.16788719166666666,0.153979,42.230000000000004,41.43,46.28,0.665,0.675,0.335,1.03,-0.6625,-0.0024999999999999883
1900-01-01 16:49:11.700,-19.2708782816045,0.4322148181818182,-0.313855,0.14893527272727272,42.38,42.0525,46.775,0.6825,0.685,0.3175,0.6,-0.15749999999999997,-1.5775000000000001
1900-01-01 16:49:12.000,-18.535527312363474,0.4299082727272727,-0.3524273636363636,0.14691154545454546,42.8725,41.4375,46.47,0.67,0.69,0.3225,-1.2125,0.36249999999999993,-1.5775000000000001
1900-01-01 16:49:12.300,-17.57539649570805,0.3970620909090909,-0.32533881818181815,0.13534627272727273,42.5975,41.075,46.06,0.6625,0.68,0.3325,-1.655,-0.47000000000000003,-0.865
1900-01-01 16:49:12.600,-17.97142439835885,0.3578558333333333,-0.26476,0.11798036666666667,42.6875,41.35,46.417500000000004,0.665,0.685,0.325,-0.2725000000000001,-0.9975,-0.05499999999999998
1900-01-01 16:49:12.900,-17.772859765164903,0.306499,-0.2598801818181818,0.08381945454545454,41.6375,41.949999999999996,46.9225,0.6725000000000001,0.6725,0.3375,-1.5899999999999999,-0.1975,-1.0125000000000002
1900-01-01 16:49:13.200,-17.3958590780491,0.32818016666666666,-0.29409466666666667,0.08814155833333333,42.7,41.2925,46.6,0.6675,0.685,0.325,0.295,-0.6725,-1.8075
1900-01-01 16:49:13.500,-16.951671195932775,0.3656007272727273,-0.32239727272727275,0.11146254545454547,43.120000000000005,41.2175,46.45,0.6675,0.6925,0.3175,0.6675000000000001,-0.9675,-1.22
1900-01-01 16:49:13.800,-16.142341766756925,0.39675772727272735,-0.34244518181818184,0.1303998181818182,43.6725,40.55,45.885,0.6575,0.6975,0.32,-2.6574999999999998,0.8975,-3.5575
1900-01-01 16:49:14.100,-14.5041998561962,0.38943009090909086,-0.34414700000000004,0.14372427272727273,44.300000000000004,39.25333333333334,44.623333333333335,0.6333333333333333,0.6966666666666667,0.33666666666666667,-1.1933333333333334,-0.4466666666666666,-1.4266666666666667
1900-01-01 16:49:14.400,-14.218381212604958,0.4013577272727273,-0.30736036363636365,0.16263245454545452,44.216,39.482,44.858,0.642,0.708,0.334,-0.538,-0.324,-0.44399999999999995
1900-01-01 16:49:14.700,-13.372375234969335,0.384728,-0.199927725,0.19814216666666665,44.04,39.50333333333333,44.88333333333333,0.64,0.7033333333333333,0.34,-0.47000000000000003,1.1133333333333333,-2.0033333333333334
1900-01-01 16:49:15.000,-9.930634818944847,0.3269048181818182,0.05533827181818182,0.2629321818181818,44.65,38.615,44.67,0.63,0.705,0.3425,-0.5425,0.10500000000000001,-0.5700000000000001
1900-01-01 16:49:15.300,-9.188925226759409,0.3026671818181818,0.14025572727272728,0.24080590909090907,44.4675,38.8875,44.7575,0.635,0.7075,0.3425,-0.2675,-0.265,-1.06
1900-01-01 16:49:15.600,-9.11314259099094,0.28172363636363634,0.152119,0.22973172727272725,44.535000000000004,38.82,44.8975,0.63,0.705,0.3425,-1.11,-0.35,-0.8724999999999999
1900-01-01 16:49:15.900,-8.949114114871712,0.25957845454545453,0.14422763636363636,0.21290445454545456,44.22,38.8525,44.8725,0.6325000000000001,0.7024999999999999,0.35,-0.8275,0.3075,-1.3175
1900-01-01 16:49:16.200,-8.820388673974724,0.25469325,0.14532875,0.21011,44.655,38.5225,44.74,0.63,0.71,0.3475,-0.10500000000000001,-0.095,-1.165
1900-01-01 16:49:16.500,-8.714045479776189,0.25279675,0.145453,0.21125841666666667,44.705,38.4625,44.635000000000005,0.6275,0.7075,0.3475,-0.6925,0.027500000000000007,-1.505
1900-01-01 16:49:16.800,-7.41798703378308,0.2613809090909091,0.17428754545454545,0.2003139090909091,45.155,37.7375,44.3425,0.6174999999999999,0.715,0.35250000000000004,-0.4525,0.6475,-0.98
1900-01-01 16:49:17.100,-6.50660429634048,0.45051318181818184,0.3571269090909091,0.14996718181818183,44.605000000000004,38.3525,44.5775,0.6225,0.7075,0.35,0.8025,-1.3900000000000001,-1.03
1900-01-01 16:49:17.400,-2.41069976663628,0.7306679166666666,0.7706261666666667,0.127616,46.04666666666666,37.51,44.42666666666667,0.6133333333333333,0.7266666666666666,0.33666666666666667,4.173333333333333,1.7566666666666668,-0.9966666666666667
1900-01-01 16:49:17.700,-2.007874687059608,0.756116909090909,0.9739284545454545,0.11060804545454546,45.827999999999996,37.972,44.944,0.62,0.722,0.33,-1.874,-0.40800000000000003,0.256
1900-01-01 16:49:18.000,-2.3433762328003733,0.72205975,0.9636616666666667,0.08446109166666667,45.339999999999996,38.13333333333333,45.586666666666666,0.62,0.7200000000000001,0.33666666666666667,-0.5533333333333333,-0.4766666666666666,-1.1466666666666667
1900-01-01 16:49:18.300,-2.4115388856866575,0.7329517272727273,0.9693160909090909,0.08280262727272727,45.277499999999996,38.26,45.3025,0.625,0.7175,0.34,-0.9775,-0.67,-1.2925
1900-01-01 16:49:18.600,-2.5286694724783074,0.7471871666666666,0.9299154166666667,0.06122945,45.0975,38.2175,45.292500000000004,0.6225,0.715,0.3425,-0.6325000000000001,0.0025000000000000577,-0.9375
1900-01-01 16:49:18.900,-2.6417836199708384,0.6769274545454546,0.8655523636363637,0.0651115,44.9225,38.7325,45.8775,0.635,0.715,0.33,-0.2500000000000002,-0.9475,-0.3175
1900-01-01 16:49:19.200,-2.5130202311234875,0.6928273333333332,0.8920688333333334,0.06242125833333333,45.2,38.41,45.61,0.63,0.7175,0.3375,-0.4875,0.08249999999999985,-1.3275
1900-01-01 16:49:19.500,-2.7016333583815424,0.7192343636363637,0.8852246363636364,0.05088613636363637,44.915,38.4225,45.6075,0.6275,0.71,0.34,-1.225,-0.565,-0.8475
1900-01-01 16:49:19.800,-3.5601814431687275,0.7182961666666667,0.8040182499999999,0.025497475000000002,44.4125,38.825,45.8425,0.635,0.7075,0.345,0.66,0.6525,-0.195
1900-01-01 16:49:20.100,-3.200151830852955,0.623746,0.7300448181818182,0.0367795,44.6025,38.9775,46.25,0.635,0.71,0.335,0.05250000000000003,-0.25250000000000006,-0.8875
1900-01-01 16:49:20.400,-2.6826608972376427,0.14788558083333334,0.483751,0.07163953333333332,43.53,39.675,46.3675,0.6375,0.69,0.3425,-3.2225,-0.40249999999999997,-0.48
1900-01-01 16:49:20.700,-4.1102855703607055,-0.4810587272727273,0.013985339090909094,0.15500518181818182,43.9625,38.735,46.785,0.6325000000000001,0.7,0.36,-2.0175,-0.03249999999999997,-0.05750000000000002
1900-01-01 16:49:21.000,-5.812503910151728,-0.9389589166666666,-0.3509574166666667,0.14168405,43.605000000000004,39.045,46.8225,0.6375,0.7,0.3625,-0.10499999999999998,0.6124999999999999,-2.3175
1900-01-01 16:49:21.300,-5.519932649872406,-1.1113618181818181,-0.4585165454545455,0.17253872727272726,43.97,38.49,46.346666666666664,0.6233333333333334,0.6966666666666667,0.3633333333333333,0.1333333333333334,0.31,-1.4433333333333334
1900-01-01 16:49:21.600,-4.445428101217516,-1.1131683333333333,-0.43098283333333337,0.17149308333333332,44.104,38.066,46.096000000000004,0.62,0.702,0.372,-1.084,-0.356,-0.834
1900-01-01 16:49:21.900,-4.616626902542153,-1.0695,-0.33860572727272725,0.14263672727272728,43.96666666666667,38.473333333333336,46.596666666666664,0.62,0.6933333333333334,0.36000000000000004,-0.18999999999999995,-0.5433333333333333,-0.49333333333333335
1900-01-01 16:49:22.200,-3.5945477232204675,-1.056289090909091,-0.29199263636363637,0.13631672727272728,44.035,38.1375,46.425,0.625,0.7024999999999999,0.3725,-0.28250000000000003,-0.6025,-1.5274999999999999
1900-01-01 16:49:22.500,-4.694948603139703,-1.0291084166666666,-0.2764285833333333,0.12778558333333334,44.235,38.1675,46.3425,0.6225,0.7024999999999999,0.365,-0.20750000000000002,-0.76,-1.0025
1900-01-01 16:49:22.800,-5.7458788194490324,-0.7883339090909091,-0.20961972727272726,0.17545054545454544,44.3725,37.965,46.235,0.6174999999999999,0.705,0.3675,0.6975,-0.9175,-1.63
1900-01-01 16:49:23.100,-6.841402487973667,-0.2992645272727273,-0.13404936363636363,0.3041749090909091,45.442499999999995,37.57,45.927499999999995,0.6125,0.7175,0.35,0.9975,-0.14249999999999996,-1.0
1900-01-01 16:49:23.400,-7.649508902862992,0.139218775,-0.056446377500000006,0.29366858333333334,46.144999999999996,37.9825,46.1825,0.6225,0.73,0.3225,1.47,-0.6424999999999998,-0.009999999999999995
1900-01-01 16:49:23.700,-7.40393448504709,0.2442489090909091,-0.05018447181818182,0.24165681818181817,46.0525,38.4075,46.595,0.63,0.7324999999999999,0.3125,0.71,-0.29500000000000004,-0.865
1900-01-01 16:49:24.000,-5.69905123189546,0.11737664545454546,-0.0904108,0.20450236363636362,45.7175,38.4,46.7975,0.62,0.7175,0.32,0.6,-0.34750000000000003,-1.0574999999999999
1900-01-01 16:49:24.300,-6.6114623809673025,-0.30445354545454545,-0.11154181818181819,0.1535660909090909,46.3775,38.582499999999996,46.8,0.6275,0.73,0.295,2.235,-0.265,-1.145
1900-01-01 16:49:24.600,-8.683540825120172,-0.6706099090909091,-0.11752636363636365,0.13161545454545454,48.2325,38.105,46.595,0.6174999999999999,0.75,0.25,6.8225,0.035,-1.3900000000000001
1900-01-01 16:49:24.900,-9.12745382826938,-1.12420325,-0.08729743333333334,0.10859541666666667,49.1525,38.0025,46.54,0.6174999999999999,0.76,0.22,-1.47,1.2375,-1.0075
1900-01-01 16:49:25.200,-7.336764211222503,-1.450574,-0.0173766639,0.0817642,48.6375,37.76,46.57,0.615,0.7575000000000001,0.2525,-2.745,1.7825,-1.0175
1900-01-01 16:49:25.500,-6.365206236793667,-1.6772418181818183,0.031400945454545456,0.06955455454545455,48.28666666666667,37.373333333333335,46.52333333333333,0.61,0.75,0.2733333333333334,-1.6533333333333333,0.7333333333333334,-0.77
1900-01-01 16:49:25.800,-6.369478856186264,-1.835825,0.05645563333333333,0.0628491,48.089999999999996,37.332,46.70399999999999,0.61,0.746,0.28,-0.8460000000000001,0.292,-0.764
1900-01-01 16:49:26.100,-6.77632759720683,-1.8742663636363637,0.048019345454545455,0.05501271818181818,48.03666666666667,37.446666666666665,46.81999999999999,0.6133333333333333,0.75,0.2833333333333334,-0.22,-0.11333333333333333,-0.68
1900-01-01 16:49:26.400,-6.456888217450585,-1.8686309090909092,0.03317108181818182,0.048854781818181814,48.016,37.362,47.038,0.608,0.748,0.28200000000000003,-0.16599999999999998,-0.246,-0.792
1900-01-01 16:49:26.700,-6.771595348920723,-1.8550550000000001,0.0183976,0.04380231666666667,47.96333333333333,37.666666666666664,47.21666666666667,0.6166666666666667,0.7466666666666667,0.2733333333333334,-0.006666666666666672,-0.45,-0.8066666666666666
1900-01-01 16:49:27.000,-6.408807480643718,-1.813644,0.009213482,0.040358319999999996,48.14,37.472500000000004,47.3275,0.61,0.7475,0.2725,-1.2425,0.034999999999999996,-1.245
1900-01-01 16:49:27.300,-6.688241055771545,-1.7580991666666668,0.031693124999999996,0.026167308333333333,48.105000000000004,37.45,47.17,0.6125,0.745,0.275,-1.0899999999999999,-0.1075,-1.3575
1900-01-01 16:49:27.600,-5.020419807221415,-1.5090663636363637,0.1940010909090909,0.03508892272727273,48.075,37.2,46.96,0.6125,0.755,0.2875,-1.995,-0.3625,-0.685
1900-01-01 16:49:27.900,-5.0473821958396226,-0.6777121818181818,0.4046863636363636,0.19225663636363635,47.185,37.019999999999996,47.13,0.6074999999999999,0.7375,0.3175,-7.2625,-0.9125,-0.845
1900-01-01 16:49:28.200,-7.067457867568457,0.24200765454545453,0.39609909090909085,0.20778872727272726,44.0675,37.8525,47.505,0.6125,0.695,0.37,-5.6425,-0.21750000000000003,-0.5825
1900-01-01 16:49:28.500,-7.7396660118516,0.7392464999999999,0.2632136,0.1915833,44.7425,37.4375,47.4225,0.615,0.7124999999999999,0.37,2.2424999999999997,-1.8025,-1.425
1900-01-01 16:49:28.800,-6.970990763540495,0.8492990000000001,0.24133936363636363,0.15473490909090912,45.0575,37.565,47.385,0.6125,0.7124999999999999,0.36,-0.4174999999999999,-0.9299999999999999,-0.805
1900-01-01 16:49:29.100,-8.252438873320445,0.8960217272727273,0.14183127272727272,0.11185487272727274,45.245000000000005,37.7275,47.415,0.615,0.715,0.3475,-0.4925,-1.2650000000000001,-1.345
1900-01-01 16:49:29.400,-9.840815839555846,0.9112787272727272,0.05533837272727273,0.0851526909090909,45.01,38.24666666666667,47.28,0.62,0.7133333333333333,0.34,1.3566666666666667,-0.24000000000000007,-1.0966666666666667
1900-01-01 16:49:29.700,-7.944604079924678,0.9705186666666666,0.07953965,0.083107125,46.388,37.718,47.12,0.614,0.728,0.32,1.568,-1.028,-1.458
1900-01-01 16:49:30.000,-4.960226660944003,1.062911818181818,0.2620164545454546,0.05912593636363636,47.54,37.303333333333335,46.85333333333333,0.61,0.7433333333333333,0.29666666666666663,1.7566666666666668,-0.49,-1.5466666666666669
1900-01-01 16:49:30.300,-5.333948452224606,1.0466627272727271,0.3254473636363637,0.059638890909090914,47.575,37.2275,46.75,0.61,0.7424999999999999,0.3,-2.48,-0.17749999999999988,-0.545
1900-01-01 16:49:30.600,-4.54857143654484,0.9537203636363636,0.34545818181818183,0.018899188090909094,47.175,37.41,46.97,0.6074999999999999,0.7375,0.305,-0.33249999999999996,-0.4750000000000001,-1.045
1900-01-01 16:49:30.900,-3.5910792734584875,0.7482531818181819,0.3895744545454546,0.006351840181818182,46.9425,37.345,46.9725,0.61,0.735,0.315,-1.6125,-0.20499999999999996,-1.02
1900-01-01 16:49:31.200,-2.5806925372627125,0.2716160909090909,0.3633542727272727,0.011406222727272729,47.105,37.400000000000006,47.035,0.61,0.7375,0.31,-0.04999999999999999,0.4125,-0.8375
1900-01-01 16:49:31.500,0.452254650971912,-0.21463556363636363,0.42490681818181825,-0.0013124256363636364,46.935,37.2175,47.1575,0.605,0.7375,0.32,-1.1275,-0.24250000000000005,-0.7000000000000001
1900-01-01 16:49:31.800,3.034647021177028,-0.5940506363636363,0.5775340909090909,-0.023055236363636364,47.085,37.225,47.25,0.61,0.7375,0.315,0.205,0.965,-1.03
1900-01-01 16:49:32.100,5.015269178222015,-0.8848062727272729,0.7521151818181818,-0.012162342727272728,46.735,36.8525,47.575,0.6025,0.7324999999999999,0.33,-1.215,2.2424999999999997,0.07250000000000001
1900-01-01 16:49:32.400,5.487524861717237,-1.1399663636363635,0.8592947272727273,-0.008612043636363637,46.120000000000005,36.87,48.156666666666666,0.6033333333333334,0.7233333333333333,0.3499999999999999,-1.2533333333333332,2.0966666666666667,0.04666666666666666
1900-01-01 16:49:32.700,5.663752278561996,-1.3170309090909091,0.8983844545454546,-0.0031362802727272726,45.302,36.9,48.678000000000004,0.604,0.712,0.368,-1.562,0.46799999999999997,-0.552
1900-01-01 16:49:33.000,5.247000600910287,-1.4192500000000001,0.8610394545454546,0.014521180909090908,44.583333333333336,37.160000000000004,48.91,0.61,0.7033333333333333,0.38000000000000006,-1.6966666666666665,-0.21,-0.9133333333333334
1900-01-01 16:49:33.300,4.809503234378098,-1.4623645454545455,0.80553,0.025708418181818182,44.656,37.034000000000006,48.988,0.61,0.71,0.38,-0.312,-0.354,-0.8560000000000001
1900-01-01 16:49:33.600,4.430131342512893,-1.4732518181818184,0.7855767272727273,0.02868519090909091,44.75666666666666,37.056666666666665,49.050000000000004,0.61,0.71,0.38000000000000006,-0.3,-0.043333333333333335,-1.0766666666666667
1900-01-01 16:49:33.900,4.60860671289362,-1.48361,0.7756783636363637,0.03444545454545455,44.815,36.9875,49.045,0.605,0.7075,0.38,-0.3525,-0.14,-1.0125
1900-01-01 16:49:34.200,5.287833625876575,-1.5621627272727272,0.6618763636363636,0.024575495454545456,44.598,36.886,49.14,0.604,0.704,0.384,-2.9419999999999997,-1.244,-0.62
1900-01-01 16:49:34.500,3.10792342928287,-1.7917370000000001,0.242992567,0.0216159881,43.69,37.18666666666667,49.333333333333336,0.6066666666666666,0.6933333333333334,0.39666666666666667,-1.68,0.27,-1.2333333333333334
1900-01-01 16:49:34.800,0.3249076385470703,-2.071302727272727,-0.2126224363636364,0.029341472727272725,43.9025,37.1675,49.1675,0.61,0.695,0.395,0.27,0.10249999999999998,-1.5325
1900-01-01 16:49:35.100,-0.5884425696131903,-2.2691045454545455,-0.5425139090909091,0.047697309090909086,44.5375,36.739999999999995,48.89,0.6,0.705,0.39,0.02249999999999998,0.059999999999999984,-1.3399999999999999
1900-01-01 16:49:35.400,-0.4840802690898901,-2.3174918181818183,-0.6382523636363636,0.0616068,44.9825,36.394999999999996,48.754999999999995,0.595,0.7075,0.385,0.645,0.47,-1.445
1900-01-01 16:49:35.700,2.967649300970426,-2.3416645454545457,-0.48961109090909094,0.07808310909090908,45.17,35.775,48.405,0.59,0.715,0.3975,-0.825,1.465,-1.2
1900-01-01 16:49:36.000,4.747325965196837,-2.308676363636364,-0.24704527272727272,0.0666258090909091,44.985,35.505,48.505,0.58,0.71,0.405,-1.095,-0.012500000000000011,-0.835
1900-01-01 16:49:36.300,6.08329455046083,-2.1702,0.011582709090909093,0.04118091818181818,44.8275,35.7,48.652499999999996,0.5874999999999999,0.7075,0.4075,-0.925,-1.355,-0.675
1900-01-01 16:49:36.600,5.5871527230481375,-2.033624545454545,0.15761063636363637,0.03654690909090909,44.91,35.919999999999995,48.78333333333333,0.59,0.7133333333333333,0.39666666666666667,-0.27666666666666667,-0.32,-0.93
1900-01-01 16:49:36.900,5.837050327839988,-2.01262,0.181603,0.0342683,44.892,35.96,48.882000000000005,0.59,0.712,0.4,-0.21000000000000002,-0.358,-0.8119999999999999
1900-01-01 16:49:37.200,5.049457235803104,-2.028096363636364,0.16904363636363637,0.030809545454545454,45.29,36.09666666666667,48.99666666666667,0.59,0.7133333333333333,0.3833333333333333,0.8700000000000001,0.03999999999999996,-1.19
1900-01-01 16:49:37.500,4.598140019060073,-2.065,0.12795258333333334,0.020870666666666666,46.17,35.656,48.896,0.588,0.728,0.376,1.232,-0.65,-1.1640000000000001
1900-01-01 16:49:37.800,3.9214491574886434,-2.082450909090909,0.09020840909090909,0.01933899090909091,46.52666666666667,35.693333333333335,48.843333333333334,0.59,0.73,0.3666666666666667,-0.1433333333333333,-0.16333333333333333,-0.9966666666666667
1900-01-01 16:49:38.100,3.6062133147402475,-2.0804883333333333,0.077661325,0.015585366666666664,46.6475,35.6725,48.9375,0.5874999999999999,0.7324999999999999,0.365,-0.255,-0.17250000000000001,-0.8675
1900-01-01 16:49:38.400,3.1624075545204424,-2.075553636363636,0.06153427272727272,0.00852787,46.55,35.7775,49.0,0.59,0.73,0.365,-0.8975,-0.365,-1.0025
1900-01-01 16:49:38.700,3.1143841501276026,-2.0722145454545458,0.04678209090909091,0.003250718181818182,46.5075,35.79,49.055,0.5874999999999999,0.7275,0.3625,-0.5675,-0.48250000000000004,-0.8375
1900-01-01 16:49:39.000,2.959835770797415,-2.069928181818182,0.03714542727272727,-0.00026354227272727275,46.58,35.775,49.144999999999996,0.59,0.73,0.36,-0.3575,-0.3625,-0.91
1900-01-01 16:49:39.300,3.0528139352077,-2.0694883333333336,0.035718066666666666,-0.000877456,46.735,35.68,49.2025,0.5874999999999999,0.735,0.3625,-0.42,-0.2425,-1.0425
1900-01-01 16:49:39.600,3.079213844559953,-2.0684618181818184,0.03238699090909091,-0.0023091136363636365,46.802499999999995,35.685,49.18,0.5874999999999999,0.7324999999999999,0.36,-0.2425,-0.1825,-1.0775
1900-01-01 16:49:39.900,3.435851212881865,-2.0682491666666665,0.0290686,-0.0021900908333333333,47.16,35.3375,49.03,0.5825,0.735,0.36,-0.79,0.017500000000000016,-1.615
1900-01-01 16:49:40.200,3.59564324629875,-2.0340516666666666,0.026589258333333334,-0.006522278333333333,47.805,34.6225,48.8025,0.575,0.7475,0.3625,-2.035,-0.445,-1.3325
1900-01-01 16:49:40.500,1.7893514697255088,-1.5530372727272728,0.016062422727272728,-0.002214448181818182,46.115,35.19,48.6775,0.58,0.725,0.3875,-6.5025,-1.37,-0.5125
1900-01-01 16:49:40.800,-6.356944602598692,-0.4829815,-0.24159604166666668,0.22204824999999997,44.207499999999996,35.595,48.9775,0.5874999999999999,0.7024999999999999,0.42,-2.915,-1.4725,-1.0275
1900-01-01 16:49:41.100,-7.4810071735431105,0.12807553636363636,-0.4433470909090909,0.24449063636363635,44.3525,36.1125,48.705,0.59,0.7,0.4075,5.029999999999999,-3.37,-2.415
1900-01-01 16:49:41.400,-4.051415457093002,0.6266869166666666,-0.20317283333333333,0.20296433333333333,47.3675,35.765,48.04,0.5925,0.7475,0.35,-1.0025,0.53,-0.51
1900-01-01 16:49:41.700,-5.797970185639457,1.0835858181818183,-0.17946981818181817,0.159577,45.71,36.660000000000004,48.49,0.5966666666666667,0.7200000000000001,0.3666666666666667,0.5700000000000001,-1.5833333333333333,-0.7400000000000001
1900-01-01 16:49:42.000,-4.9012352935887,1.1784975,-0.15444,0.17060025,46.8475,35.875,48.682500000000005,0.59,0.735,0.355,0.019999999999999934,-0.2375,-0.3
1900-01-01 16:49:42.300,-4.963129593465414,1.122390909090909,-0.21260672727272728,0.17598754545454545,46.144,36.918,49.052,0.602,0.724,0.346,-1.438,-0.354,-1.058
1900-01-01 16:49:42.600,-3.2913109539672667,1.0172533333333333,-0.22660974999999997,0.17049383333333334,46.01,36.71666666666667,49.00333333333333,0.6033333333333334,0.7233333333333333,0.35666666666666663,-0.7200000000000001,-0.32,-0.96
1900-01-01 16:49:42.900,-3.1790668095850876,0.9582022727272727,-0.21302936363636363,0.1789441818181818,46.35,36.4725,49.0875,0.5974999999999999,0.725,0.35,0.385,-0.03249999999999997,-1.0475
1900-01-01 16:49:43.200,-4.7443756485425155,0.18807075833333334,-0.5267419999999999,0.1761205,46.47,37.01,49.1425,0.61,0.735,0.34,1.4575,0.8099999999999999,-0.4975
1900-01-01 16:49:43.500,-4.241801390302615,-0.7325264166666666,-0.7551684166666667,0.18245808333333335,46.6275,36.39,49.3775,0.595,0.73,0.3425,-1.0025000000000002,0.8225,-0.65
1900-01-01 16:49:43.800,-4.699545754623958,-1.1692763636363637,-0.8368054545454545,0.1263090909090909,46.105000000000004,36.6125,49.7,0.5974999999999999,0.7224999999999999,0.355,-2.3575,-0.10750000000000001,-0.66
1900-01-01 16:49:44.100,-5.939788440079853,-1.16055,-1.0348186363636365,0.07248322727272727,45.645,36.629999999999995,49.81,0.6074999999999999,0.7275,0.37,-3.175,-1.1275,-0.8625
1900-01-01 16:49:44.400,-7.954882693719033,-1.1063533333333333,-1.2419933333333333,0.04272578333333333,44.935,36.8825,50.0125,0.605,0.7124999999999999,0.38,-0.05499999999999999,-0.0525,-0.685
1900-01-01 16:49:44.700,-8.66938537652235,-1.1327427272727273,-1.3357527272727272,0.03295560909090909,44.76666666666667,37.13,50.123333333333335,0.6066666666666666,0.7066666666666667,0.37333333333333335,-0.2533333333333333,-0.32,-1.0666666666666667
1900-01-01 16:49:45.000,-6.3365931766499894,-1.1057036363636363,-1.2204436363636364,-0.007418096363636364,44.556,36.980000000000004,49.842,0.606,0.708,0.386,-1.718,-0.914,-0.834
1900-01-01 16:49:45.300,-7.70633766173324,-1.127220909090909,-1.1896281818181818,0.006831028181818182,43.99333333333334,37.79,50.05666666666667,0.6166666666666667,0.6933333333333334,0.38000000000000006,-2.03,-0.6666666666666666,-2.18
1900-01-01 16:49:45.600,-6.484681895120614,-1.1018437272727273,-1.1448827272727273,0.02202550909090909,45.08,36.634,49.394,0.596,0.706,0.378,2.8840000000000003,0.278,-3.3299999999999996
1900-01-01 16:49:45.900,-2.42604582180439,-0.6469115454545454,-1.0011802727272727,0.1749160909090909,52.696666666666665,32.803333333333335,47.080000000000005,0.5666666666666667,0.8333333333333334,0.28,20.953333333333333,3.233333333333333,-4.01
1900-01-01 16:49:46.200,-18.255876859367525,-0.24526366666666666,-0.5213633333333333,0.10025909166666667,48.15,39.495,49.5375,0.64,0.7475,0.195,-0.7775000000000003,-4.46,7.5975
1900-01-01 16:49:46.500,-21.862344876034726,-0.0592573375,0.016276574999999998,0.019929295833333333,46.99,40.510000000000005,51.6125,0.61,0.6950000000000001,0.1875,-29.540000000000003,-0.7349999999999999,-0.020000000000000018
1900-01-01 16:49:46.800,-14.940417131287164,0.008290798363636364,0.1122723090909091,0.04801440181818182,44.5075,38.135,52.065,0.6125,0.6925,0.355,-3.9725,-0.5499999999999998,-5.1875
1900-01-01 16:49:47.100,-2.0638835098970696,-0.018824996433333335,0.093846225,-0.018119683333333334,43.9675,34.935,49.85,0.595,0.7224999999999999,0.4525,-4.1899999999999995,0.47250000000000014,-1.52
1900-01-01 16:49:47.400,-3.5321234263072525,0.13624175454545454,0.08787594545454545,0.022833307727272725,43.1875,35.59,49.8975,0.5875,0.6925,0.4425,-5.609999999999999,-1.065,-0.6125
1900-01-01 16:49:47.700,-3.2085095716068253,0.7496860833333333,0.2526320833333333,0.10367078333333334,42.745,35.6075,49.205,0.58,0.6775,0.4475,-2.6399999999999997,-0.15500000000000003,-5.58
1900-01-01 16:49:48.000,3.0220997883250833,1.3085972727272728,0.4081007272727273,0.20226590909090908,44.6625,32.24,46.48,0.54,0.7124999999999999,0.47750000000000004,0.8775,0.05249999999999999,-3.4899999999999998
1900-01-01 16:49:48.300,4.34497403887262,1.0155581666666667,0.34239308333333335,0.015036058333333333,45.8,32.195,46.207499999999996,0.54,0.725,0.45499999999999996,2.655,1.44,1.0425
1900-01-01 16:49:48.600,4.62174511534253,0.19942163636363636,0.22874363636363634,-0.14040281818181818,44.583333333333336,33.67333333333333,47.14666666666667,0.5566666666666666,0.7033333333333333,0.4466666666666667,-1.3466666666666667,0.5066666666666667,-0.47333333333333333
1900-01-01 16:49:48.900,1.017435003930364,-0.3722521333333333,-0.10336137499999999,-0.03267978666666667,44.064,33.256,47.874,0.548,0.694,0.466,-2.37,1.25,1.386
1900-01-01 16:49:49.200,-1.351239177905424,-1.1718445454545454,-0.4989663636363636,-0.043266427272727274,42.94,34.15,49.292500000000004,0.5625,0.69,0.47250000000000003,1.62,1.7725,0.4125
1900-01-01 16:49:49.500,1.4430601134455865,-1.84981,-0.54368575,0.0170225575,43.276666666666664,32.330000000000005,50.23333333333333,0.54,0.6866666666666666,0.49333333333333335,2.5466666666666664,4.890000000000001,0.4633333333333333
1900-01-01 16:49:49.800,-2.6422921551202796,-2.2204972727272727,-0.6088021818181818,0.00928824409090909,45.294,32.4,50.57,0.54,0.716,0.458,2.2159999999999997,0.446,-1.26
1900-01-01 16:49:50.100,-2.441248362956977,-2.268185,-0.8388570833333334,-0.021984616916666668,46.04,32.03,50.15,0.5333333333333333,0.7233333333333333,0.45333333333333337,-1.6866666666666668,-2.9766666666666666,-2.563333333333333
1900-01-01 16:49:50.400,0.3016115426907774,-2.2473609090909092,-0.8770991818181819,-0.02742397,45.7575,32.2725,49.565,0.535,0.7175,0.45,-6.12,-1.1825,-1.9275
1900-01-01 16:49:50.700,7.5175570162911,-2.0333854545454546,-0.6226145454545455,0.031083731818181817,45.4225,31.2675,48.8725,0.5275000000000001,0.7275,0.48,-0.555,-1.0550000000000002,-2.2575
1900-01-01 16:49:51.000,4.351943190857855,-1.4657783333333334,-0.6942865,0.08595413333333334,44.6225,31.79,48.3725,0.5325,0.715,0.485,-2.775,-1.8275000000000001,-1.1025
1900-01-01 16:49:51.300,1.9414847919331975,-1.03656675,-0.85515525,0.06526169166666666,44.6225,32.17,48.2475,0.5325,0.7024999999999999,0.47250000000000003,-1.4525,0.21499999999999997,-2.08
1900-01-01 16:49:51.600,5.199084026627115,-1.2022409090909092,-0.9028744545454545,-0.016074288181818185,45.1475,30.58,47.6825,0.515,0.72,0.495,2.8525,0.78,0.24250000000000016
1900-01-01 16:49:51.900,0.2026107504904413,-1.8064041666666668,-0.9353967500000001,-0.11695041666666667,46.2525,32.1225,48.754999999999995,0.5375000000000001,0.7275,0.445,4.305,1.9425,0.10249999999999998
1900-01-01 16:49:52.200,-0.7624262966190118,-2.3683709090909093,-0.801905,-0.09481918181818182,47.685,30.2875,49.7575,0.4975,0.7324999999999999,0.44,-0.3224999999999998,3.245,-0.0675
1900-01-01 16:49:52.500,8.749607966151224,-2.490126666666667,-0.6329644166666667,-0.060024741666666666,45.4,31.495,49.195,0.5325,0.725,0.475,-5.48,-1.3275000000000001,-2.165
1900-01-01 16:49:52.800,8.625975675398026,-2.498150909090909,-0.6777184545454545,-0.07274685454545454,46.54666666666666,30.746666666666666,49.24,0.5066666666666667,0.7200000000000001,0.4566666666666667,6.276666666666666,0.9033333333333333,-0.43333333333333335
1900-01-01 16:49:53.100,5.35791669095885,-2.5247291666666665,-0.6948385833333334,-0.079419475,48.292,30.252,49.624,0.506,0.75,0.43600000000000005,2.5100000000000002,0.09199999999999998,-0.6140000000000001
1900-01-01 16:49:53.400,4.66456484133982,-2.5069281818181817,-0.670418,-0.023710054545454547,47.68000000000001,31.47,49.72666666666667,0.5266666666666667,0.75,0.43333333333333335,-0.9899999999999999,-2.41,-0.8233333333333334
1900-01-01 16:49:53.700,6.544417977759058,-2.4813525000000003,-0.28528658333333334,0.209873,48.42,30.548000000000002,50.33,0.508,0.748,0.426,-2.134,1.6880000000000002,-0.086
1900-01-01 16:49:54.000,7.736232636416287,-2.417680909090909,-0.08592316363636364,0.20267736363636366,46.629999999999995,31.5,50.526666666666664,0.5266666666666667,0.7366666666666667,0.45,-1.5166666666666666,-1.4266666666666667,-0.43
1900-01-01 16:49:54.300,7.115814220056002,-2.112257272727273,0.2727313727272727,0.27138954545454547,47.2475,31.5825,51.115,0.5225,0.73,0.43,-1.415,-2.4975,-0.22000000000000003
1900-01-01 16:49:54.600,8.855916774030089,-1.8356772727272728,0.38448645454545455,0.09065017272727273,45.957499999999996,32.0225,50.9375,0.5325,0.72,0.4475,-8.557500000000001,-0.8674999999999999,-3.3725
1900-01-01 16:49:54.900,17.4680010628502,-1.747446,0.3151447,0.019556135,43.41,30.6325,49.435,0.52,0.7024999999999999,0.53,-2.84,-0.6024999999999999,-2.09
1900-01-01 16:49:55.200,13.876246467891425,-1.4124,0.35909972727272726,0.10030665454545455,44.519999999999996,31.197499999999998,49.037499999999994,0.52,0.705,0.49,1.125,-1.825,-1.6225
1900-01-01 16:49:55.500,12.839481964155075,-1.23801,0.30645136363636366,0.10978072727272727,45.3425,31.255,48.84,0.5225,0.7175,0.4775,1.1225,-0.5525,-0.9650000000000001
1900-01-01 16:49:55.800,13.4275379645887,-1.2290416666666666,0.3846623333333333,0.18261850000000002,45.32,31.285,49.0325,0.5225,0.7175,0.4775,-1.535,-0.6875,-0.645
1900-01-01 16:49:56.100,14.0665249746477,-1.1792627272727272,0.6162122727272727,0.33368936363636365,45.18,31.265,49.4,0.5175000000000001,0.71,0.475,0.10249999999999998,1.1800000000000002,-0.03749999999999998
1900-01-01 16:49:56.400,13.75831004312165,-1.165138,0.7499373,0.3770924,45.125,31.4175,49.825,0.525,0.7124999999999999,0.475,-0.5075,-0.9125,-0.6799999999999999
1900-01-01 16:49:56.700,13.429638032663375,-1.1081791666666667,0.7630680833333333,0.33328775,45.2125,31.4525,49.955,0.5225,0.71,0.475,0.01749999999999996,-1.3025,-1.4449999999999998
1900-01-01 16:49:57.000,12.655279426399433,-1.0223953636363636,0.48483472727272725,0.1692611090909091,45.71333333333333,31.71666666666667,49.56999999999999,0.53,0.7233333333333333,0.4633333333333334,1.0566666666666666,-0.63,-2.0233333333333334
1900-01-01 16:49:57.300,10.78257058321988,-0.9490597272727274,0.16513573636363635,0.024833053495454546,46.660000000000004,31.381999999999998,49.054,0.528,0.736,0.45200000000000007,-0.048,-0.638,-1.366
1900-01-01 16:49:57.600,9.475982988441904,-0.9216982727272728,0.09542328181818181,0.0017069989090909093,47.303333333333335,31.28333333333333,49.06333333333333,0.52,0.7366666666666667,0.4366666666666667,0.5333333333333333,-0.48,-0.7233333333333333
1900-01-01 16:49:57.900,9.183217958484954,-0.9952555454545454,0.07754675454545455,0.0006193736363636365,47.6,31.4825,49.215,0.5225,0.7424999999999999,0.4275,0.985,0.4575,-0.5125
1900-01-01 16:49:58.200,10.110511773429906,-1.517288181818182,0.09100583636363636,-0.022006186363636365,47.3775,31.455,49.9275,0.5225,0.74,0.4325,1.99,2.7325,0.5549999999999999
1900-01-01 16:49:58.500,9.446333423324733,-1.9241172727272726,0.11847418181818181,-0.0001405914545454545,47.965,31.185,50.6,0.52,0.7475,0.425,-0.08499999999999999,1.4275,-0.5675
1900-01-01 16:49:58.800,9.53465888339097,-2.0404418181818182,0.10607834545454545,0.015196992727272728,47.9375,31.095,50.7825,0.5175000000000001,0.745,0.4275,-0.2975,0.015,-0.8975
1900-01-01 16:49:59.100,9.348386342607453,-2.0596463636363636,0.08932686363636363,0.021122227272727275,47.980000000000004,31.1475,50.7925,0.52,0.745,0.4275,-0.6174999999999999,-0.285,-1.0625
1900-01-01 16:49:59.400,9.816071289859778,-2.0368299999999997,0.07874969000000001,0.02017128,47.9025,30.8125,50.76,0.51,0.74,0.4325,-1.41,-0.6275,-1.4024999999999999
1900-01-01 16:49:59.700,7.1329998032684045,-1.5447672727272725,-0.05715400272727273,0.02692662727272727,48.207499999999996,31.605,49.9625,0.5275000000000001,0.7525,0.41500000000000004,-2.37,-6.8425,-3.4175
1900-01-01 16:50:00.000,7.859566377772517,-0.6404270909090909,-0.20471081818181822,0.1415191,46.2875,31.085,49.045,0.5175000000000001,0.725,0.45999999999999996,-6.992500000000001,-0.5225000000000001,-1.2475
1900-01-01 16:50:00.300,4.692617634499773,0.08573046090909091,-0.2618722727272727,0.1948368181818182,46.00666666666666,31.330000000000002,48.89000000000001,0.5233333333333333,0.7266666666666666,0.46,-1.54,-2.466666666666667,-1.42
1900-01-01 16:50:00.600,3.8714370639166304,0.43628809999999996,-0.2897673,0.1545919,46.358,31.494,48.672000000000004,0.526,0.73,0.454,0.094,-1.516,-1.25
1900-01-01 16:50:00.900,2.526471669314527,0.5565752727272728,-0.3069002727272727,0.15666836363636363,46.906666666666666,31.666666666666668,48.66,0.53,0.7333333333333334,0.44,0.63,-0.24666666666666667,-0.7399999999999999
1900-01-01 16:50:01.200,2.0584162722542327,0.5706792727272727,-0.3200480909090909,0.15641572727272726,46.8875,31.939999999999998,48.7875,0.5325,0.7324999999999999,0.4325,0.28500000000000003,-0.5725,-0.9475
1900-01-01 16:50:01.500,1.489551457107025,0.5725114545454546,-0.33708763636363637,0.1507169090909091,47.1,32.015,48.8425,0.53,0.7324999999999999,0.4275,-0.0975,-0.415,-0.9825
1900-01-01 16:50:01.800,1.0605437588077617,0.5376179,-0.352832,0.125003,47.4875,31.9925,48.8425,0.5275000000000001,0.7375,0.4175,-1.0724999999999998,-0.07500000000000001,-1.6425
1900-01-01 16:50:02.100,4.44226849252662,0.5300536363636363,-0.24852390909090907,0.07536963636363636,47.155,31.3825,48.5475,0.5275000000000001,0.74,0.4425,-1.4075,-0.8200000000000001,-1.0825
1900-01-01 16:50:02.400,6.727229469098672,0.7204696,-0.054086959999999996,0.06276264000000001,47.1825,31.450000000000003,48.5325,0.5275000000000001,0.745,0.4425,-1.075,-0.4125,-0.49750000000000005
1900-01-01 16:50:02.700,6.893686836525035,0.7101255454545454,-0.03685275454545455,0.06865299090909091,46.5725,32.17,48.9875,0.5325,0.7275,0.435,-1.3450000000000002,0.3175,-0.46499999999999997
1900-01-01 16:50:03.000,6.654856080323098,0.4832601818181818,-0.12139131818181817,0.05359012727272727,46.8275,31.8525,49.2875,0.53,0.7324999999999999,0.4375,0.7475,1.3075,-0.1925
1900-01-01 16:50:03.300,6.98380966428967,-0.18067305454545454,-0.443587,0.07036492727272727,45.9875,32.1475,49.94,0.5325,0.72,0.4475,-1.0925,1.4100000000000001,0.05499999999999999
1900-01-01 16:50:03.600,6.011513593722963,-0.41927136363636364,-0.7096109090909091,0.12263636363636364,46.05,31.674999999999997,50.239999999999995,0.5275000000000001,0.7224999999999999,0.4575,-0.3075,-1.5050000000000001,-1.3325
1900-01-01 16:50:03.900,3.9281594126304875,-0.2733409,-0.7676049,0.1486721,46.37,31.95,50.0375,0.5325,0.7275,0.4425,-1.24,-1.06,-1.4475
1900-01-01 16:50:04.200,4.817116927856885,-0.19223954545454544,-0.7621690909090909,0.14850345454545455,46.082499999999996,32.0675,49.8825,0.5375000000000001,0.7275,0.4475,-0.635,-0.09749999999999998,-0.8375
1900-01-01 16:50:04.500,2.5997206194536795,-0.13341772727272727,-0.7428000909090909,0.15221027272727272,45.98333333333333,32.32,50.03333333333333,0.5266666666666667,0.7066666666666667,0.4366666666666667,-2.3666666666666667,-0.5766666666666667,-1.7400000000000002
1900-01-01 16:50:04.800,5.7363705355323935,-0.1095798,-0.6761502,0.1349653,45.942,31.824,49.64,0.53,0.722,0.45599999999999996,-0.6280000000000001,-0.13599999999999998,-0.63
1900-01-01 16:50:05.100,6.02651160731901,-0.09733793,-0.6557679000000001,0.1324482,45.4375,31.915,49.71,0.5325,0.7175,0.46249999999999997,-0.38250000000000006,-1.1400000000000001,-1.5175
1900-01-01 16:50:05.400,4.375379606591813,0.03192297,-0.5868921,0.19714179999999998,46.45666666666667,31.913333333333338,49.669999999999995,0.53,0.7233333333333333,0.44,-0.0033333333333334103,-2.81,-1.3266666666666667
1900-01-01 16:50:05.700,2.9545149275223226,0.38022654545454543,-0.5281370909090909,0.26821272727272727,46.519999999999996,32.3525,49.49,0.535,0.73,0.4325,-0.1275,-0.7725000000000001,-1.1425
1900-01-01 16:50:06.000,3.59361896355833,0.639008,-0.411354,0.22815318181818184,46.8775,32.17,49.51,0.5375000000000001,0.7375,0.435,-1.2025000000000001,-1.0275,-0.73
1900-01-01 16:50:06.300,3.07369150942101,0.7610937,-0.3267282,0.201789,46.74,32.5375,49.6925,0.54,0.7324999999999999,0.4275,-0.34750000000000003,-0.5850000000000001,-0.9349999999999999
1900-01-01 16:50:06.600,2.7352153406229927,0.7872166363636364,-0.3122177272727273,0.194952,46.8025,32.5575,49.775000000000006,0.54,0.7324999999999999,0.425,-0.155,-0.17750000000000002,-0.6925
1900-01-01 16:50:06.900,1.1162266504663307,0.7966090909090909,-0.3586950909090909,0.18158463636363636,46.765,32.8275,49.9925,0.5425,0.7324999999999999,0.42,-0.1725,-0.3125,-0.8700000000000001
1900-01-01 16:50:07.200,0.6975831021749235,0.7905984545454546,-0.3683869090909091,0.17473427272727274,47.08,32.6425,50.07,0.54,0.7375,0.42,0.5375,0.11000000000000001,-0.825
1900-01-01 16:50:07.500,-0.5546368424676462,0.7849801666666667,-0.37196891666666665,0.17152475,47.335,32.945,50.1175,0.5425,0.7375,0.405,-1.2125,0.5249999999999999,-1.3425
1900-01-01 16:50:07.800,3.9922235243011572,0.7597670909090909,-0.15893242545454545,0.24363863636363636,46.775000000000006,32.07,50.13,0.5425,0.745,0.4375,-1.54,0.9825,0.09249999999999997
1900-01-01 16:50:08.100,6.476093716523613,0.7419340909090909,0.23882375454545454,0.3376909090909091,47.10666666666666,31.80666666666667,50.88666666666666,0.52,0.7266666666666666,0.4266666666666667,0.32666666666666666,1.28,-0.43999999999999995
1900-01-01 16:50:08.400,6.730556916213336,0.7244406363636364,0.3901207272727273,0.3095952727272727,46.532,32.39,50.946000000000005,0.54,0.728,0.438,-0.5519999999999999,0.04800000000000004,-0.866
1900-01-01 16:50:08.700,7.38218435482885,0.5798798181818182,0.4562981818181818,0.24972418181818182,46.85333333333333,31.959999999999997,51.10666666666666,0.53,0.7366666666666667,0.4366666666666667,-0.16666666666666666,0.48666666666666664,-0.7966666666666667
1900-01-01 16:50:09.000,6.894477711581738,0.4709493333333333,0.47932100000000005,0.21817233333333333,46.85,32.01,51.21,0.535,0.73,0.4325,-0.71,-0.06250000000000008,-0.8825000000000001
1900-01-01 16:50:09.300,6.85217017338395,0.44220672727272725,0.4729293636363636,0.21697299999999997,46.6025,32.095,51.3225,0.5325,0.73,0.44,-0.84,-0.5499999999999999,-0.8525
1900-01-01 16:50:09.600,6.602205588777478,0.46613872727272726,0.46494863636363637,0.22617881818181818,46.730000000000004,32.035,51.32,0.53,0.73,0.435,-0.05250000000000001,-0.3125,-1.2175
1900-01-01 16:50:09.900,6.208098883716892,0.49059718181818185,0.44459418181818183,0.22749445454545453,46.879999999999995,32.14,51.245,0.5325,0.73,0.4275,-0.76,-0.8275,-1.155
1900-01-01 16:50:10.200,6.3868027546672295,0.4990088181818182,0.41426118181818183,0.21562909090909094,46.8275,32.0725,51.14,0.5325,0.7324999999999999,0.4325,-0.51,-0.3975,-1.0725
1900-01-01 16:50:10.500,6.7625048285553895,0.5018753636363636,0.40676463636363636,0.21317281818181819,47.015,31.95,51.1875,0.53,0.735,0.4325,-2.005,-0.645,-1.055
1900-01-01 16:50:10.800,7.252040099037602,0.5093013636363636,0.37278790909090903,0.19910872727272724,46.4,32.025,51.1375,0.5325,0.7275,0.4425,-0.7525,-0.22,-1.0575
1900-01-01 16:50:11.100,7.118154375432082,0.5097650909090908,0.3517877272727273,0.18823499999999999,46.5125,31.945,51.1725,0.53,0.7275,0.4375,-0.215,-0.035,-0.9450000000000001
1900-01-01 16:50:11.400,7.205011497053927,0.35436436363636364,0.27571745454545454,0.12220404545454545,47.336666666666666,31.316666666666666,51.22,0.5166666666666667,0.7333333333333334,0.4366666666666667,0.1366666666666667,0.6366666666666667,-0.6766666666666667
1900-01-01 16:50:11.700,6.962623530759421,-0.2804733272727273,-0.2852402972727273,0.054956763636363634,46.648,31.727999999999998,51.182,0.534,0.736,0.44800000000000006,-0.6759999999999999,1.464,-0.672
1900-01-01 16:50:12.000,-0.4905349768810986,-0.9004993636363636,-1.046362090909091,0.12556827272727272,46.35,31.8275,52.0475,0.5275000000000001,0.72,0.445,0.85,1.82,-0.29750000000000004
1900-01-01 16:50:12.300,-0.4350574028246357,-1.364640909090909,-1.4330972727272728,0.14129045454545455,46.75333333333333,31.319999999999997,52.14666666666667,0.5233333333333333,0.7399999999999999,0.4466666666666667,0.9666666666666667,2.21,-0.5033333333333333
1900-01-01 16:50:12.600,3.2155262787406755,-1.5707081818181818,-1.336951818181818,0.16055563636363634,47.263999999999996,30.610000000000003,52.04,0.514,0.738,0.45,-1.33,-0.548,-2.218
1900-01-01 16:50:12.900,6.7433468796611935,-0.9539767272727272,-0.9655495454545455,0.206052,47.74,29.78,51.18,0.5,0.7433333333333333,0.4566666666666667,-3.7266666666666666,-1.74,-2.4566666666666666
1900-01-01 16:50:13.200,5.40929695662579,0.06994384,-0.6645011818181819,0.24462518181818182,46.855000000000004,30.05,50.4475,0.5025,0.7324999999999999,0.4675,-3.15,-2.1075,-2.23
1900-01-01 16:50:13.500,6.070745160491735,0.7786957272727272,-0.3236101727272727,0.2479669090909091,45.947500000000005,30.81,50.065,0.5175000000000001,0.7275,0.475,-0.535,-1.1575,-0.25
1900-01-01 16:50:13.800,8.444166380167722,1.111078090909091,0.18240668818181816,0.29732172727272727,46.43,30.4725,50.792500000000004,0.5075000000000001,0.7275,0.46749999999999997,-1.49,-0.0724999999999999,-0.27249999999999996
1900-01-01 16:50:14.100,8.883741915393568,1.2591709090909091,0.4808454545454545,0.267105,45.705,30.835,51.12,0.5125,0.72,0.475,-0.75,-0.35500000000000004,-0.615
1900-01-01 16:50:14.400,9.074900290553014,1.216685,0.4847434,0.23042590000000002,45.06,31.4175,51.4675,0.5225,0.71,0.4775,-2.1925,-0.7925,-0.11250000000000002
1900-01-01 16:50:14.700,9.258497631362953,0.9233529090909091,0.3418324545454545,0.15645109090909093,44.545,31.7475,52.01,0.53,0.7075,0.485,1.56,-0.27249999999999996,0.6799999999999999
1900-01-01 16:50:15.000,5.5020892935229675,-0.01943821818181818,-0.070639,0.11596988181818181,43.457499999999996,34.565,53.7325,0.565,0.6875,0.45,0.012500000000000011,-0.3025,1.79
1900-01-01 16:50:15.300,5.456402890281765,-0.7069829000000001,-0.35604979999999997,0.1168283,44.5225,33.02,54.68,0.56,0.7175,0.4725,0.3275,2.4575,-0.305
1900-01-01 16:50:15.600,1.0610716635693,-1.1403158181818183,-0.7594103636363637,0.10882903636363638,43.26666666666667,33.410000000000004,55.44,0.5666666666666667,0.7033333333333333,0.48666666666666664,-2.0966666666666667,0.7333333333333334,1.8499999999999999
1900-01-01 16:50:15.900,-4.439342427635652,-1.3197145454545454,-1.0507787272727274,0.12823072727272727,42.482,34.012,56.484,0.558,0.6759999999999999,0.48,0.26400000000000007,1.1,-0.61
1900-01-01 16:50:16.200,-3.957637772215423,-1.5068845454545454,-1.0921772727272727,0.1253770909090909,42.873333333333335,33.51,56.79333333333333,0.5533333333333333,0.6833333333333332,0.48333333333333334,0.12666666666666668,1.5200000000000002,-0.37333333333333335
1900-01-01 16:50:16.500,-4.439614015148835,-1.5954136363636364,-1.1843281818181817,0.12108481818181818,43.115,33.2675,56.66,0.545,0.68,0.4775,-1.4949999999999999,0.24,-2.5025
1900-01-01 16:50:16.800,2.2126601434266453,-1.5770245454545455,-1.0580109090909091,0.09125962727272728,43.192,31.479999999999997,55.556,0.534,0.6980000000000001,0.518,-0.9940000000000001,0.08000000000000007,-0.9879999999999999
1900-01-01 16:50:17.100,-0.6639512320974023,-1.593181,-1.0859619999999999,0.10334055,43.03666666666667,32.89666666666667,55.903333333333336,0.5433333333333333,0.6833333333333332,0.49,-1.2633333333333334,-3.263333333333333,-2.046666666666667
1900-01-01 16:50:17.400,1.4788375527427493,-1.5466745454545454,-1.0212296363636364,0.11158588181818181,43.2675,32.025,55.5375,0.535,0.6925,0.5,-0.05500000000000002,-0.6425000000000001,-1.9775
1900-01-01 16:50:17.700,1.4220705290810682,-1.1727508181818183,-0.8697173636363636,0.1908118181818182,43.4625,32.29,54.775,0.535,0.6875,0.4925,-1.6675,-2.1525,-2.4425
1900-01-01 16:50:18.000,5.916230461595365,-0.7020963636363636,-0.5454718181818182,0.17998999999999998,44.7375,31.932499999999997,53.4475,0.53,0.705,0.475,1.185,-2.81,-4.7924999999999995
1900-01-01 16:50:18.300,10.379118075632338,-0.29905170000000003,-0.14616184999999998,0.2242158,45.787499999999994,31.1625,52.05,0.5175000000000001,0.7124999999999999,0.46499999999999997,-1.4774999999999998,-1.4225,-0.61
1900-01-01 16:50:18.600,10.035217016221836,0.04073440727272728,0.0054399390909090906,0.2063040909090909,45.625,31.482499999999998,52.06,0.5275000000000001,0.72,0.47,-0.30999999999999994,-1.6225,-1.635
1900-01-01 16:50:18.900,11.0899902678749,0.20690299999999998,0.0990247909090909,0.13385854545454545,46.11,31.4725,51.807500000000005,0.5225,0.725,0.45999999999999996,-0.06999999999999998,-0.215,-0.945
1900-01-01 16:50:19.200,10.421590686628427,0.22315,0.114566,0.127748,46.126666666666665,31.486666666666665,51.86333333333334,0.5233333333333333,0.7233333333333333,0.4566666666666667,0.16333333333333333,-0.3333333333333333,-0.8533333333333334
1900-01-01 16:50:19.500,9.95547056636985,0.22319309090909092,0.11236754545454546,0.126719,46.416,31.468,51.968,0.528,0.73,0.454,-0.07399999999999998,-0.146,-0.892
1900-01-01 16:50:19.800,9.64188596872881,0.22119927272727272,0.10834218181818182,0.12380281818181818,46.413333333333334,31.63,52.06333333333333,0.5266666666666667,0.73,0.45,-0.33666666666666667,-0.10333333333333333,-0.8333333333333334
1900-01-01 16:50:20.100,9.538732395248818,0.1980062727272727,0.1037234818181818,0.11194286363636365,46.6375,31.450000000000003,52.18,0.5225,0.73,0.4475,-0.2325,-0.16,-0.8725
1900-01-01 16:50:20.400,11.45866497566232,0.035004866999999995,0.1200448,0.04353506,47.332499999999996,30.87,52.1225,0.51,0.735,0.4425,-1.58,0.48,-2.04
1900-01-01 16:50:20.700,13.520228044567276,-0.11023132,0.10990285,0.0028046886,46.7125,30.58,51.39,0.515,0.7375,0.46499999999999997,0.4525,0.6,-1.3325
1900-01-01 16:50:21.000,13.140430927139576,-0.15050390909090908,0.03705259090909091,0.03444635454545455,47.55,30.105,51.4625,0.5025,0.735,0.4525,0.7250000000000001,1.1075,-1.2349999999999999
1900-01-01 16:50:21.300,13.04199918969045,-0.18289999999999998,0.003479213636363636,0.08541089090909092,48.405,29.072499999999998,50.945,0.495,0.7575000000000001,0.46,-1.475,-0.25499999999999995,-2.5300000000000002
1900-01-01 16:50:21.600,11.816005413515725,-0.24383909090909092,0.20033692727272728,0.16865554545454545,48.0525,28.6625,50.6525,0.4775,0.74,0.4625,-2.8324999999999996,0.25,-0.022499999999999964
1900-01-01 16:50:21.900,11.917790742728275,-0.33165218181818185,0.2862930909090909,0.12389797272727274,46.370000000000005,27.995,50.730000000000004,0.4675,0.725,0.5025,-1.09,2.14,-2.0475000000000003
1900-01-01 16:50:22.200,8.94153067257684,-0.324738,0.21501779999999998,0.07127047,47.2075,29.0075,50.815,0.4775,0.7275,0.47250000000000003,1.8175,-0.3275,2.975
1900-01-01 16:50:22.500,6.5285308373925,-0.3558360909090909,0.20537972727272724,0.06196284545454545,46.565,31.09,53.85,0.5225,0.735,0.45499999999999996,4.9399999999999995,-2.0575,2.5725
1900-01-01 16:50:22.800,4.2545274584132775,-0.37539272727272727,0.22803327272727272,0.07262551818181819,46.8925,32.9075,55.43,0.55,0.735,0.4175,2.015,-0.7,0.33999999999999997
1900-01-01 16:50:23.100,6.395621055494285,-0.4053958181818182,0.2860229090909091,0.1090738,46.89,33.14,56.1875,0.5475,0.7325,0.41000000000000003,-7.800000000000001,-0.125,1.0350000000000001
1900-01-01 16:50:23.400,2.3251019029037767,-0.39976245454545456,0.27263499999999996,0.13700854545454544,44.52,35.72,57.72666666666667,0.5733333333333334,0.69,0.4066666666666667,0.7400000000000001,2.6966666666666668,0.4933333333333332
1900-01-01 16:50:23.700,7.62751664598345,-0.39690872727272725,0.2159039909090909,0.11108402727272727,46.602,32.714,56.64399999999999,0.554,0.744,0.43200000000000005,0.63,-2.882,-4.4159999999999995
1900-01-01 16:50:24.000,3.085109653756317,0.005710540000000009,-0.024957065,0.16337963,47.193333333333335,33.29666666666667,55.13666666666666,0.5533333333333333,0.7399999999999999,0.4033333333333333,-2.0633333333333335,-0.8466666666666667,-1.6900000000000002
1900-01-01 16:50:24.300,1.5916077468646246,0.3758557272727273,-0.22270500000000001,0.2576222727272727,48.06,31.8675,54.805,0.53,0.745,0.4125,0.5524999999999999,-0.08249999999999993,-2.3275
1900-01-01 16:50:24.600,-0.5066193540553823,0.4405047272727272,-0.3555890909090909,0.23744236363636365,48.7125,31.9575,54.175,0.53,0.7525,0.395,2.0749999999999997,0.75,-0.8875
1900-01-01 16:50:24.900,-0.4359154622633375,0.441709,-0.2884224,0.1974281,49.87,31.615000000000002,54.0525,0.5275000000000001,0.7675000000000001,0.3775,-0.635,-0.86,-1.66
1900-01-01 16:50:25.200,0.8513877008137443,0.43480790909090916,-0.23338590909090906,0.1580350909090909,49.552499999999995,31.4025,53.8675,0.5225,0.76,0.3875,0.4075,-0.1275,-1.1775
1900-01-01 16:50:25.500,3.764386806776595,0.3671369,-0.1810911,0.11267674000000001,50.2475,30.695,53.33,0.5175000000000001,0.78,0.39,0.315,2.495,-4.6025
1900-01-01 16:50:25.800,9.015241568903196,0.24690618181818183,0.03059752363636364,0.06786685363636363,54.12,26.8425,52.0175,0.455,0.8150000000000001,0.3775,-0.365,-1.4274999999999998,2.1224999999999996
1900-01-01 16:50:26.100,0.4311798976407557,0.09041477272727273,0.16869163636363635,-0.03178957272727272,47.52,33.262499999999996,54.0175,0.5549999999999999,0.745,0.39749999999999996,-8.855,-3.1525,-2.495
1900-01-01 16:50:26.400,5.186966175833502,-0.07544454583333333,0.41650841666666666,0.0176726775,47.255,30.0925,51.85,0.4875,0.7175,0.445,-2.9925,-2.2675,-3.08
1900-01-01 16:50:26.700,5.023990318327297,-0.24576027272727272,0.5319266363636364,-0.015581846727272726,46.004999999999995,32.2625,52.2475,0.5225,0.7075,0.435,8.905000000000001,0.10250000000000012,4.4125
1900-01-01 16:50:27.000,2.629384860761617,-0.1374477909090909,0.6035551818181818,-0.015036174545454545,49.0325,34.379999999999995,57.275,0.5725,0.7675000000000001,0.3375,14.825,5.97,8.3675
1900-01-01 16:50:27.300,-1.6944759806785967,0.23436000909090907,0.7553909999999999,0.010208545454545455,49.5875,37.405,61.0825,0.6125,0.77,0.2275,-2.6225,-1.025,-0.17499999999999982
1900-01-01 16:50:27.600,-0.8498034711148147,0.349254,0.7370087272727273,-0.019158465454545456,46.94,37.41,60.61666666666667,0.62,0.7466666666666667,0.32,-18.043333333333333,-7.896666666666667,-4.773333333333333
1900-01-01 16:50:27.900,2.1836362971131047,0.44532863636363634,0.6728631818181818,-0.0065875609090909094,43.3875,35.4125,57.455,0.575,0.6825,0.4325,-11.625,0.7525,-9.3
1900-01-01 16:50:28.200,4.292629956155465,0.8415896363636364,0.4411236363636364,0.09265644545454545,45.0975,32.072500000000005,53.375,0.5275000000000001,0.705,0.4625,-0.6425,0.7775000000000001,-3.035
1900-01-01 16:50:28.500,2.7322389453782208,1.1473363636363636,0.27051209090909095,0.1449900909090909,46.635000000000005,31.967499999999998,53.7475,0.5325,0.735,0.4425,3.785,-0.675,2.8675
1900-01-01 16:50:28.800,4.22498689142005,1.1744118181818182,0.2724444545454545,0.09648421818181818,46.3825,33.18,55.5075,0.5525,0.735,0.425,0.8775,-0.15000000000000002,-0.11999999999999997
1900-01-01 16:50:29.100,2.12562851714808,1.1470227272727274,0.2211872727272727,0.060685490909090915,46.04,34.47,56.155,0.5675,0.7175,0.40249999999999997,0.7149999999999999,-0.68,-0.012500000000000011
1900-01-01 16:50:29.400,-0.0010044127493540334,0.9578468181818182,0.20270709090909092,0.002927605454545454,47.2175,33.6125,56.82,0.555,0.735,0.3925,4.665,1.04,0.4225
1900-01-01 16:50:29.700,0.5146660538620784,0.37041300000000005,0.011174097272727274,-0.035328263636363634,46.905,35.0925,57.585,0.58,0.7375,0.3725,-0.7725,0.14,-0.1725
1900-01-01 16:50:30.000,1.2616015656567954,0.08008274166666667,-0.14052620000000002,0.006027887083333333,46.815,34.5025,57.9125,0.5700000000000001,0.7324999999999999,0.39,-0.7775000000000001,-0.46,-0.87
1900-01-01 16:50:30.300,-0.41044183696697906,0.20612563636363637,-0.21911972727272727,0.0676261909090909,47.2875,34.6425,57.9225,0.5725,0.7375,0.3725,-0.175,-0.38749999999999996,-1.32
1900-01-01 16:50:30.600,-1.1634284025362978,0.3041239090909091,-0.2896791818181818,0.08807100909090909,47.395,34.635000000000005,57.7675,0.57,0.74,0.3675,0.03749999999999998,-0.5125,-1.1824999999999999
1900-01-01 16:50:30.900,-1.082346073611399,0.34381572727272725,-0.32709136363636365,0.09385337272727273,47.69333333333333,34.47,57.77,0.5666666666666667,0.7399999999999999,0.3633333333333333,-0.5933333333333334,0.37333333333333335,-0.5866666666666667
1900-01-01 16:50:31.200,-1.7540748892611293,0.34182090909090906,-0.34455536363636363,0.09426572727272728,47.67,34.638,58.532000000000004,0.574,0.75,0.366,1.734,0.496,0.67
1900-01-01 16:50:31.500,-3.43207306771938,0.31829745454545455,-0.271283,0.11617758181818182,47.36666666666667,35.88333333333333,59.52,0.5866666666666666,0.7366666666666667,0.34,1.3933333333333333,1.2100000000000002,1.0366666666666668
1900-01-01 16:50:31.800,-2.659004048136082,0.26506972727272726,-0.08248124545454545,0.17224245454545456,46.89,36.141999999999996,60.676,0.592,0.732,0.346,-0.22799999999999998,-0.20600000000000002,-0.009999999999999986
1900-01-01 16:50:32.100,-3.25303998204492,0.23749672727272728,-0.0291418,0.18543045454545454,46.56,36.85666666666666,61.01666666666667,0.5966666666666667,0.7233333333333333,0.3333333333333333,-1.26,0.13666666666666671,-1.1500000000000001
1900-01-01 16:50:32.400,-2.2211197503759217,0.22842127272727272,-0.01882812909090909,0.18253418181818182,46.527499999999996,36.052499999999995,60.692499999999995,0.6,0.7424999999999999,0.3625,-0.9524999999999999,-0.9875,-2.135
1900-01-01 16:50:32.700,-1.836971225839764,0.2159300909090909,-0.018956076363636363,0.17094227272727272,46.665,35.505,59.845,0.5775,0.7224999999999999,0.365,-3.4675,0.7925,-3.0325
1900-01-01 16:50:33.000,-1.4712871443342843,0.23708354545454544,-0.05378070000000001,0.1607401818181818,46.644999999999996,35.0125,58.8575,0.575,0.73,0.3775,-2.625,-1.7925,-1.5875
1900-01-01 16:50:33.300,0.2903883068564345,0.2091360909090909,-0.013898208181818182,0.14976627272727272,46.905,33.6825,58.39,0.56,0.735,0.40249999999999997,-1.765,0.57,-2.105
1900-01-01 16:50:33.600,0.5772372955867602,0.44615072727272725,0.19204866363636366,0.25042445454545453,46.644999999999996,34.042500000000004,58.21,0.5625,0.73,0.3975,-1.505,-0.6925,-0.345
1900-01-01 16:50:33.900,-0.45648347902520797,0.8667903636363636,0.4862181818181818,0.26656563636363634,46.11,34.7725,58.6475,0.5725,0.725,0.395,-1.3825,-2.145,-0.265
1900-01-01 16:50:34.200,-0.34363442637961594,1.0875963636363637,0.5598642727272728,0.1996398181818182,46.1875,34.925,58.8625,0.575,0.7224999999999999,0.39,0.235,-0.425,-1.4475
1900-01-01 16:50:34.500,-1.3199659242752686,1.0857952000000002,0.34860189999999996,0.08898558,46.46,35.1425,58.557500000000005,0.5825,0.7324999999999999,0.38,1.1525,0.26749999999999996,-1.11
1900-01-01 16:50:34.800,0.01641492796976607,0.8319995454545454,0.199251,0.03245547272727273,46.89000000000001,34.553333333333335,58.68666666666667,0.5733333333333333,0.7333333333333334,0.3833333333333333,-0.07666666666666666,0.7000000000000001,-0.93
1900-01-01 16:50:35.100,0.40439126782072865,0.7863217272727273,0.21547663636363634,0.0974301,46.742000000000004,34.618,58.686,0.576,0.736,0.388,-1.9,-0.16800000000000004,-0.514
1900-01-01 16:50:35.400,0.93137766006161,0.939559090909091,0.526299,0.18933445454545456,46.45666666666667,34.663333333333334,59.20333333333334,0.57,0.73,0.38999999999999996,-1.79,-1.86,-0.42333333333333334
1900-01-01 16:50:35.700,1.27585853929904,0.832507,0.6678796363636363,0.07429201818181817,46.372,34.754,59.48,0.572,0.728,0.388,2.008,2.316,-0.5559999999999999
1900-01-01 16:50:36.000,2.587319108497237,0.30117954545454545,0.5942902727272728,-0.017468559999999998,46.419999999999995,35.07,59.74,0.58,0.7333333333333334,0.3833333333333333,-1.6833333333333336,0.08999999999999997,-1.1233333333333333
1900-01-01 16:50:36.300,2.4310845186096803,0.2903460909090909,0.4676458181818182,0.05392731181818182,46.3925,34.6525,59.7475,0.57,0.73,0.39,-0.8825,-1.19,-0.77
1900-01-01 16:50:36.600,1.3112271457277855,0.446536,0.39763472727272725,0.12040776363636363,46.4025,35.01,59.775,0.5774999999999999,0.7275,0.385,-0.6625,-1.2175,-1.2225000000000001
1900-01-01 16:50:36.900,0.46459253820438273,0.5332727272727272,0.35697772727272725,0.1443749090909091,46.714999999999996,34.942499999999995,59.775,0.5774999999999999,0.73,0.3775,0.7075,-0.0875,-0.86
1900-01-01 16:50:37.200,-0.0818999838130377,0.5391909166666667,0.3405668333333333,0.13912125,46.965,34.9175,59.8275,0.5774999999999999,0.7375,0.375,-0.7025,0.08499999999999999,-1.0825
1900-01-01 16:50:37.500,1.876346194138233,0.514182909090909,0.48042145454545454,0.20470927272727274,46.485,34.9475,59.862500000000004,0.5774999999999999,0.735,0.385,-2.35,-0.6174999999999999,-0.6675
1900-01-01 16:50:37.800,0.5006730854354098,0.5514899090909091,0.5650217272727273,0.272289,45.1025,35.9975,60.222500000000004,0.5974999999999999,0.72,0.395,-3.0725000000000002,-1.4125,0.9500000000000001
1900-01-01 16:50:38.100,-0.233083302687447,0.7288738181818182,0.9416272727272728,0.40973081818181817,43.8825,36.805,61.72,0.5974999999999999,0.69,0.40249999999999997,-1.895,-0.705,0.3625
1900-01-01 16:50:38.400,0.5903409833180208,0.9155954545454545,1.3483654545454546,0.35081918181818184,42.739999999999995,37.8325,62.2975,0.62,0.685,0.405,-1.275,-1.0274999999999999,-0.365
1900-01-01 16:50:38.700,1.4259904166577801,1.0345288181818182,1.6193963636363635,0.30556218181818184,42.96,37.6475,62.6375,0.615,0.6875,0.405,-1.385,-0.49,-0.87
1900-01-01 16:50:39.000,1.3383822349215475,0.9958600000000001,1.685529090909091,0.27022327272727276,42.445,37.87,62.59,0.6225,0.6825,0.4125,-0.5825,0.245,-1.1075
1900-01-01 16:50:39.300,1.47265041661741,0.92115325,1.7024366666666666,0.23801424999999998,42.403333333333336,37.6,62.51333333333333,0.6133333333333333,0.6766666666666667,0.42,-0.4033333333333333,0.16666666666666666,-1.2633333333333334
1900-01-01 16:50:39.600,1.320958487323432,0.8978444545454546,1.6914127272727273,0.22374327272727274,42.83,37.35,62.444,0.612,0.6839999999999999,0.41600000000000004,-0.16999999999999998,-0.388,-1.046
1900-01-01 16:50:39.900,0.7817626610498344,0.9038033636363636,1.6570327272727274,0.20500163636363639,42.98666666666667,37.440000000000005,62.449999999999996,0.6133333333333333,0.6866666666666666,0.41,-0.22,-0.11333333333333333,-1.04
1900-01-01 16:50:40.200,0.8658339218506961,0.8923177272727273,1.6381963636363637,0.20233663636363639,43.24,37.2575,62.4775,0.61,0.69,0.4075,0.14750000000000002,-0.2025,-0.8475
1900-01-01 16:50:40.500,0.6162385910760667,0.8784925833333334,1.615685,0.19796166666666667,43.225,37.305,62.5775,0.61,0.69,0.4075,-0.52,-0.225,-0.8925000000000001
1900-01-01 16:50:40.800,0.005131947565619077,0.923768909090909,1.4609981818181816,0.1274510909090909,42.985,37.5725,62.6625,0.61,0.6825,0.405,-2.2775,-0.29750000000000004,-1.385
1900-01-01 16:50:41.100,-2.3152462864582475,0.9359341666666667,0.8339181666666667,-0.0026670258333333333,44.067499999999995,36.03,61.8575,0.5874999999999999,0.6975,0.415,0.06999999999999999,-0.1,-3.885
1900-01-01 16:50:41.400,-3.716231539905105,0.8822465454545455,0.07711948,-0.004185896909090909,45.565,34.847500000000004,60.207499999999996,0.58,0.725,0.41,-1.185,0.18,-2.96
1900-01-01 16:50:41.700,-5.333892602194756,0.8769830909090909,-0.7186368181818182,0.041254709090909086,45.59,33.73666666666667,59.276666666666664,0.56,0.7166666666666667,0.4266666666666667,-4.023333333333333,-0.23666666666666666,-2.3366666666666664
1900-01-01 16:50:42.000,-8.366076976134796,0.9558780833333334,-1.415165,0.07438419166666667,45.63,33.504000000000005,58.538,0.556,0.72,0.43200000000000005,-0.5619999999999999,-0.716,-2.128
1900-01-01 16:50:42.300,-9.807644781006502,0.80725375,-1.7956883333333333,0.11431788333333333,46.1925,33.1625,58.07,0.55,0.725,0.4275,1.525,0.8800000000000001,-0.9375
1900-01-01 16:50:42.600,-9.009010545752467,0.533087,-1.9655354545454544,0.14578663636363637,46.830000000000005,32.73333333333333,58.18666666666667,0.5466666666666667,0.7333333333333334,0.42333333333333334,0.32333333333333336,0.24000000000000002,-0.6833333333333332
1900-01-01 16:50:42.900,-9.616611430086726,0.34743033333333334,-2.0736108333333334,0.15539883333333335,47.260000000000005,32.586,58.424,0.538,0.736,0.414,0.264,0.792,-0.8019999999999999
1900-01-01 16:50:43.200,-9.993502940966886,0.0446036,-2.2069191666666668,0.13783741666666668,47.47,32.550000000000004,58.47666666666667,0.5433333333333333,0.7399999999999999,0.41,1.29,1.1033333333333333,-0.79
1900-01-01 16:50:43.500,-8.914874899344394,-0.3199930833333333,-2.2785975,0.15743508333333334,47.815999999999995,32.22,58.83200000000001,0.538,0.746,0.41,0.682,0.82,-0.24
1900-01-01 16:50:43.800,-7.29228094250631,-0.6509272727272727,-2.251658181818182,0.18245699999999998,48.300000000000004,31.94333333333333,59.35,0.5366666666666667,0.7533333333333333,0.4033333333333333,1.3666666666666665,0.31,-0.19999999999999998
1900-01-01 16:50:44.100,-3.3899007457856327,-1.2089014999999999,-1.7983025000000001,0.25774233333333335,47.2025,33.515,59.9375,0.56,0.745,0.4025,0.395,1.35,1.1275
1900-01-01 16:50:44.400,3.0652927587337526,-1.2997672727272727,-0.9004402727272727,0.32648445454545455,46.5425,33.405,60.945,0.55,0.7275,0.41000000000000003,-3.5300000000000002,-1.1099999999999999,-0.83
1900-01-01 16:50:44.700,4.335420963416115,-0.4629150090909091,-0.29756963636363637,0.3290110909090909,45.8725,33.567499999999995,61.1625,0.5549999999999999,0.72,0.4225,-3.21,-2.5549999999999997,-1.0125
1900-01-01 16:50:45.000,2.7660152291600273,0.4615840909090909,-0.029170036363636364,0.2559898181818182,44.567499999999995,34.375,60.815,0.5675,0.7075,0.44,-3.3725,-2.6025,-1.9100000000000001
1900-01-01 16:50:45.300,0.1799016795076745,1.0576354545454547,0.08200315454545454,0.26254218181818184,45.6,34.057500000000005,60.31,0.56,0.715,0.42,-0.89,-0.9375,-1.8075
1900-01-01 16:50:45.600,3.0801305430873276,1.047042,0.05747513181818182,0.15099672727272728,44.682500000000005,34.06,60.09,0.565,0.71,0.44,0.014999999999999958,-0.22500000000000003,-0.49
1900-01-01 16:50:45.900,2.5306744930136373,0.7829016666666666,-0.10913400000000001,0.11362566666666667,44.655,34.38,60.335,0.5725,0.71,0.435,-0.335,0.08749999999999998,-1.0425
1900-01-01 16:50:46.200,2.123322328675065,0.6920062727272728,-0.19091072727272726,0.11838109090909091,44.745000000000005,34.455,60.4275,0.57,0.7075,0.43,-0.050000000000000044,1.0175,-0.4475
1900-01-01 16:50:46.500,3.6001051694850865,0.6009794166666667,-0.1955178333333333,0.13936808333333334,45.03,33.846666666666664,60.78666666666667,0.57,0.7200000000000001,0.44,-1.4733333333333334,0.6200000000000001,0.37333333333333335
1900-01-01 16:50:46.800,4.49970647493039,-0.028691600000000005,-0.1722082727272727,0.1770290909090909,44.016,34.82,62.052,0.572,0.698,0.438,2.118,2.2560000000000002,0.9039999999999999
1900-01-01 16:50:47.100,6.694826632741435,-0.6962989166666667,0.065315025,0.23887216666666666,44.1775,34.825,63.2975,0.5700000000000001,0.6975,0.435,-0.6024999999999999,1.815,0.69
1900-01-01 16:50:47.400,8.698227356427047,-0.8422263636363637,0.32519681818181817,0.2402130909090909,44.120000000000005,33.86333333333334,63.51,0.5766666666666667,0.7166666666666667,0.4633333333333333,-1.11,-1.5666666666666667,-1.4100000000000001
1900-01-01 16:50:47.700,7.752054209024122,-0.7649126666666667,0.3812776666666667,0.21809025,43.7975,34.995,63.555,0.57,0.6925,0.4375,-0.5725,-0.02499999999999998,-1.72
1900-01-01 16:50:48.000,8.710286626027887,-0.695787,0.3534486363636364,0.16517845454545454,45.035,33.8725,63.065,0.555,0.705,0.4325,0.09499999999999997,-1.9675,-2.5625
1900-01-01 16:50:48.300,3.1297310829788723,-0.31841190909090905,-0.03980231818181818,0.12673475454545455,44.3475,34.985,61.972500000000004,0.58,0.71,0.4325,-1.805,-2.15,-2.33
1900-01-01 16:50:48.600,2.28592377822326,-0.02794240909090909,-0.18535645454545457,0.20344490909090907,45.0375,34.6575,61.707499999999996,0.5700000000000001,0.7124999999999999,0.42,0.235,-0.745,-0.6200000000000001
1900-01-01 16:50:48.900,0.4795998650781361,0.17311808333333334,-0.03246218333333333,0.29051699999999997,45.3475,34.68,62.3125,0.5725,0.715,0.415,1.09,1.2100000000000002,0.6625
1900-01-01 16:50:49.200,0.45191452304771557,0.21944163636363634,0.10260656363636364,0.2594531818181818,45.2225,35.005,62.8775,0.57,0.71,0.41,1.175,-0.5225,-0.865
1900-01-01 16:50:49.500,0.6465839760974719,0.03688759090909091,0.03175121818181818,0.13768709090909093,45.3025,35.2225,63.0,0.5774999999999999,0.715,0.405,0.38,0.3225,-0.8200000000000001
1900-01-01 16:50:49.800,0.7096193945039163,0.008342203333333334,0.033933825,0.12626983333333333,45.4675,35.0775,63.03,0.58,0.7175,0.4075,-0.43499999999999994,-0.6775,-1.4674999999999998
1900-01-01 16:50:50.100,1.7740192398336796,-0.029093499999999998,0.045590818181818184,0.11389118181818182,45.9875,34.71,62.8575,0.5774999999999999,0.73,0.40249999999999997,-0.53,-0.040000000000000036,-0.8825
1900-01-01 16:50:50.400,0.8132419464999138,0.19611904833333335,0.04545821666666666,0.14155633333333334,45.6175,34.9275,62.8975,0.575,0.72,0.4025,-1.8800000000000001,-1.1025,-1.1275
1900-01-01 16:50:50.700,-0.07975442613716237,0.6710036363636364,0.27390136363636364,0.19894027272727274,45.24666666666667,34.919999999999995,62.86333333333334,0.5733333333333334,0.7133333333333333,0.41333333333333333,-2.733333333333333,-1.9100000000000001,-1.0733333333333333
1900-01-01 16:50:51.000,0.8341283857357421,0.6410863636363636,0.4102295454545455,0.09782444545454547,45.55,35.088,62.948,0.576,0.714,0.4,1.4220000000000002,1.714,-0.096
1900-01-01 16:50:51.300,2.60585249428704,-0.12442147999999999,0.17653312499999999,0.048396458333333336,45.38333333333333,34.94,63.85666666666666,0.5766666666666667,0.7166666666666667,0.4066666666666667,1.5333333333333332,1.7233333333333334,0.5633333333333334
1900-01-01 16:50:51.600,2.419953817570262,-0.7739785454545455,-0.03465048090909091,0.08975523636363637,45.298,35.208000000000006,64.30799999999999,0.578,0.714,0.404,-0.6,-0.524,-1.706
1900-01-01 16:50:51.900,2.0481578654808463,-0.37311414545454546,0.0032129836363636363,0.18043327272727272,45.77333333333333,34.75333333333333,63.623333333333335,0.5766666666666667,0.73,0.41,-4.596666666666667,-2.873333333333333,-1.8666666666666665
1900-01-01 16:50:52.200,0.4820640240930595,0.5221910833333333,0.24986307500000002,0.265406,45.345,35.1825,63.0475,0.575,0.71,0.4,-1.9375,-1.5,-2.9175
1900-01-01 16:50:52.500,4.268270684108687,0.7401780000000001,0.3992290909090909,0.2772335454545454,46.644999999999996,33.2575,62.010000000000005,0.545,0.725,0.4125,0.15999999999999998,0.10500000000000001,-1.8025
1900-01-01 16:50:52.800,3.0797255550202585,0.6997195454545454,0.12705214545454546,0.11138436363636363,46.2625,34.0225,61.5925,0.5575,0.72,0.40249999999999997,-0.5950000000000001,-1.0250000000000004,-1.79
1900-01-01 16:50:53.100,6.951635725581109,0.7253384166666667,0.009611214166666666,0.07269890833333333,46.730000000000004,33.2275,61.0875,0.5525,0.735,0.4175,-3.3825,-1.8825,-1.62
1900-01-01 16:50:53.400,6.782572304977593,0.7671790909090909,-0.14149637272727272,0.04288329090909091,46.885000000000005,32.77,60.69,0.5475000000000001,0.74,0.4225,-0.10750000000000004,-0.9175,-1.6624999999999999
1900-01-01 16:50:53.700,3.8986262710332973,0.580299,-0.3808799090909091,0.12658764545454546,47.445,33.4,60.78,0.5475000000000001,0.7324999999999999,0.39,2.2,1.375,0.5875
1900-01-01 16:50:54.000,3.7247406028701064,-0.13110469166666666,-0.61238125,0.10447978333333334,47.120000000000005,33.67,61.89000000000001,0.56,0.7399999999999999,0.39666666666666667,1.16,2.1999999999999997,1.5166666666666666
1900-01-01 16:50:54.300,3.0828335812779337,-1.0038256363636364,-1.0525808181818181,0.04294206363636364,46.712,34.232,62.842,0.562,0.734,0.394,0.9880000000000001,0.6340000000000001,-0.874
1900-01-01 16:50:54.600,2.9771908172226498,-1.4073200000000001,-1.4300499999999998,0.04330680909090909,48.15,33.3825,62.6825,0.555,0.7525,0.3775,-0.31,1.375,-1.4775
1900-01-01 16:50:54.900,3.85434943949427,-1.4543172727272726,-1.4340645454545455,0.08260766363636364,47.699999999999996,33.13666666666666,62.169999999999995,0.5566666666666666,0.7533333333333333,0.39999999999999997,-1.0799999999999998,-1.1566666666666667,-2.5
1900-01-01 16:50:55.200,4.48129161304346,-1.50396,-1.400287,0.1306735,47.995,33.065,62.2275,0.5425,0.7424999999999999,0.385,-2.8025,1.5699999999999998,0.4625
1900-01-01 16:50:55.500,4.831895559800779,-1.485067272727273,-1.3673490909090908,0.1094551090909091,47.1,33.2325,62.4,0.5525,0.745,0.41000000000000003,0.20750000000000002,-1.68,-2.23
1900-01-01 16:50:55.800,2.8347742903628523,-1.0241691818181817,-1.1164231818181818,0.19235918181818182,46.678,34.62,62.132000000000005,0.5700000000000001,0.732,0.386,0.8179999999999998,-0.39799999999999985,-1.042
1900-01-01 16:50:56.100,6.037697981218813,-0.29960363636363635,-0.7255189090909091,0.406973,50.00666666666667,30.233333333333334,61.833333333333336,0.5033333333333333,0.7633333333333333,0.39999999999999997,-0.036666666666666625,0.3099999999999999,-2.75
1900-01-01 16:50:56.400,2.8504934569033193,0.17703516363636362,-0.5353659090909091,0.37752,47.9375,32.695,61.53,0.5425,0.7475,0.395,-5.235,-5.185,-0.052500000000000005
1900-01-01 16:50:56.700,-2.177657072919092,0.09993671818181818,-0.5301778181818182,0.21512099999999998,43.55,36.545,62.239999999999995,0.585,0.675,0.405,-2.84,-2.6625,3.5174999999999996
1900-01-01 16:50:57.000,-5.013532519067685,0.0612455909090909,-0.42389554545454544,0.08843201818181817,43.6175,37.1,64.3175,0.6074999999999999,0.7,0.4075,2.0324999999999998,0.77,-2.8175
1900-01-01 16:50:57.300,-7.483743869355045,-0.011563322727272729,-0.2759896363636364,0.0385774,46.3125,36.0175,64.03,0.575,0.71,0.35250000000000004,-6.775,2.5975,0.71
1900-01-01 16:50:57.600,5.6822806400592345,0.10651823999999999,0.236538671,0.2501044,45.3175,32.35,63.235,0.54,0.725,0.4625,2.485,2.8425000000000002,-6.142499999999999
1900-01-01 16:50:57.900,7.970743206871765,0.7074047272727273,0.9552931818181818,0.2685836363636364,47.2875,32.2125,62.2975,0.535,0.7375,0.42,-2.795,-3.1575,1.55
1900-01-01 16:50:58.200,5.206047796221347,1.2888536363636365,1.2344063636363636,0.14169455454545454,45.445,33.6975,63.41,0.5525,0.71,0.4275,-1.8074999999999999,-2.0775,-0.475
1900-01-01 16:50:58.500,4.142110659436763,1.224731818181818,1.1520263636363637,0.011001769363636364,44.89,34.4225,63.615,0.5725,0.71,0.43,-0.7175,-0.54,-0.5125
1900-01-01 16:50:58.800,5.127269447251387,0.9597962727272727,1.0144593636363637,-0.054926109090909093,45.13666666666666,34.00666666666667,63.876666666666665,0.5666666666666667,0.7166666666666667,0.43,-0.26333333333333336,0.82,-0.5566666666666666
1900-01-01 16:50:59.100,4.3759960335181365,0.1369866181818182,0.4722511818181818,-0.05741474545454545,44.1,35.062,64.216,0.576,0.698,0.434,-3.028,-0.12400000000000003,-0.154
1900-01-01 16:50:59.400,-0.734991916730118,-0.29202127272727274,-0.3841517090909091,0.01731702081818182,42.71666666666667,33.74666666666667,65.11999999999999,0.57,0.6966666666666667,0.49666666666666665,-4.6066666666666665,-1.0766666666666667,2.4966666666666666
1900-01-01 16:50:59.700,-14.0502506548708,-0.41939950000000004,-1.2490059,0.06997569000000001,39.8725,36.825,66.535,0.595,0.635,0.475,-0.505,-0.445,-1.0625
1900-01-01 16:51:00.000,-16.466200370246675,-0.508668,-1.8274,0.13142592727272728,42.255,35.214999999999996,65.75,0.5825,0.6775,0.46749999999999997,3.03,1.3025,-3.36
1900-01-01 16:51:00.300,-15.8300621628162,-0.5058058,-2.093874,0.1607055,43.5725,34.41,64.735,0.5725,0.6975,0.4575,0.0075,-0.2925,-1.3725
1900-01-01 16:51:00.600,-15.761577312562425,-0.5306569999999999,-2.1896518181818183,0.15229545454545454,43.8425,34.18,64.6375,0.5625,0.695,0.455,-0.1375,-0.0175,-1.19
1900-01-01 16:51:00.900,-15.916617354132626,-0.5664276,-2.263821,0.14103749999999998,44.167500000000004,33.95,64.55,0.56,0.7024999999999999,0.4525,-0.1475,-0.355,-0.985
1900-01-01 16:51:01.200,-16.154108363280947,-0.5963317272727273,-2.313418181818182,0.1298878181818182,44.33,34.1075,64.5975,0.565,0.705,0.45,-0.42999999999999994,-0.3725,-0.9425
1900-01-01 16:51:01.500,-14.619721501660232,-0.9202865454545454,-2.269739090909091,0.07853113636363636,44.22666666666667,34.04,64.55333333333333,0.5633333333333334,0.7000000000000001,0.4466666666666667,-0.68,1.41,-1.25
1900-01-01 16:51:01.800,-10.32504851500121,-1.352006,-2.000684,0.06597307,44.232,33.96,64.726,0.556,0.694,0.44399999999999995,2.25,0.4699999999999999,-1.1480000000000001
1900-01-01 16:51:02.100,3.62252893104379,-1.0641284545454546,-1.0349147272727273,0.27808763636363637,47.156666666666666,31.94666666666667,64.16333333333334,0.5433333333333333,0.7533333333333333,0.4366666666666667,0.26,-2.5166666666666666,-2.183333333333333
1900-01-01 16:51:02.400,9.973367562498582,-0.11400836,0.143181218,0.2472066,45.724000000000004,33.324,64.424,0.552,0.72,0.43200000000000005,-1.8439999999999999,0.13600000000000012,0.502
1900-01-01 16:51:02.700,8.40395098387594,0.7292072727272728,0.7833857272727273,0.1338879909090909,44.1325,34.585,65.215,0.57,0.7024999999999999,0.4425,-2.0575,-0.24249999999999994,-0.59
1900-01-01 16:51:03.000,7.792045016461727,1.2083627272727273,1.0575733636363636,0.08879183636363636,44.576666666666675,34.04333333333333,65.39333333333333,0.5633333333333334,0.7033333333333333,0.44333333333333336,-1.3800000000000001,-0.6566666666666666,-1.24
1900-01-01 16:51:03.300,7.6396019863467775,1.249538,0.9539384999999999,-0.014180684999999998,44.0375,34.525,65.1525,0.5675,0.7,0.4425,-0.665,-2.1925,-1.6
1900-01-01 16:51:03.600,6.666872376957228,1.1263636363636365,0.7930248181818182,-0.04877102272727273,44.235,34.8725,64.99,0.5774999999999999,0.7075,0.435,-0.455,0.025000000000000022,-0.21249999999999997
1900-01-01 16:51:03.900,5.97027874001305,0.8946044545454545,0.5846795454545455,0.018768991818181816,43.9775,35.0125,65.5725,0.5774999999999999,0.695,0.435,-0.34,-0.02750000000000001,-0.37
1900-01-01 16:51:04.200,4.714002892493623,0.35566452,0.3028025,-0.013868436000000001,43.5525,35.6725,66.11,0.5874999999999999,0.695,0.435,-1.2075,-0.4275,0.2175
1900-01-01 16:51:04.500,-1.3623151346850824,-0.2203214909090909,-0.34213207272727275,-0.02544075,41.6125,36.945,67.4275,0.6,0.665,0.4425,-2.4975,-0.024999999999999967,2.295
1900-01-01 16:51:04.800,-6.14385479908129,-0.7186654545454545,-0.9055981818181817,-0.0336754,40.9125,37.3575,68.5775,0.61,0.655,0.4525,0.52,0.45499999999999996,-1.2375
1900-01-01 16:51:05.100,-6.853362712024805,-0.9722484,-1.119498,-0.05571743,42.065,36.7325,68.39,0.5974999999999999,0.67,0.4375,-0.14500000000000002,0.305,-2.18
1900-01-01 16:51:05.400,0.2276762980768875,-1.0146234545454547,-0.9604443636363637,-0.0927174,42.99,35.3875,67.355,0.6,0.71,0.465,-1.855,0.21249999999999997,-1.3399999999999999
1900-01-01 16:51:05.700,-0.5452585732415938,-1.148348,-0.9881465,-0.09128104000000001,42.5725,34.995000000000005,67.77,0.57,0.675,0.45999999999999996,0.42499999999999993,0.63,-1.7600000000000002
1900-01-01 16:51:06.000,0.7875248476934485,-1.1882936363636363,-0.8176621818181818,-0.06582611363636363,42.76333333333334,35.653333333333336,67.16000000000001,0.59,0.6866666666666666,0.45,1.9966666666666668,1.6933333333333334,-0.8366666666666666
1900-01-01 16:51:06.300,6.524125775578179,-1.3570972727272728,-0.34388563636363634,0.09465782727272726,44.814,33.388,67.25399999999999,0.556,0.712,0.45199999999999996,1.7899999999999998,2.074,-0.378
1900-01-01 16:51:06.600,6.432592470966217,-1.6985963636363637,-0.12585371363636363,0.13959690909090908,44.19,34.54666666666667,68.08999999999999,0.5666666666666667,0.6999999999999998,0.4366666666666667,0.7399999999999999,0.8166666666666668,0.3466666666666667
1900-01-01 16:51:06.900,8.378372181324107,-1.4632727272727273,0.3020103727272727,0.2831491818181818,44.646,33.858,68.646,0.562,0.712,0.446,-1.3760000000000001,-0.09200000000000008,-0.41200000000000003
1900-01-01 16:51:07.200,8.289244789699854,-0.7765599090909091,0.812834818181818,0.25572154545454545,42.86000000000001,35.263333333333335,68.94333333333334,0.5833333333333334,0.6833333333333332,0.4566666666666667,-2.3633333333333333,-1.3633333333333333,-0.9933333333333335
1900-01-01 16:51:07.500,10.398151390887431,-0.19417036000000001,1.258869,0.2842272,43.355000000000004,34.3875,68.7175,0.57,0.6925,0.46,-2.1375,-0.0625,-1.73
1900-01-01 16:51:07.800,11.128705826071474,0.23037408181818184,1.6203581818181818,0.27095027272727273,42.9975,34.1725,68.48,0.565,0.6875,0.4725,-2.365,-2.5925,-0.99
1900-01-01 16:51:08.100,9.949899051778221,0.4958798181818182,1.8141854545454548,0.27285963636363636,41.905,35.1025,68.6525,0.5774999999999999,0.67,0.475,-2.145,-1.48,-0.515
1900-01-01 16:51:08.400,9.07166732538437,0.57645,1.8697136363636362,0.27458,41.504999999999995,35.5275,68.8725,0.5825,0.6675,0.475,-0.4425,-0.2475,-0.8574999999999999
1900-01-01 16:51:08.700,8.999435454598778,0.5852095454545455,1.8686327272727274,0.2737208181818182,41.6625,35.37,68.995,0.5825,0.6725000000000001,0.475,-0.34750000000000003,-0.2975,-0.77
1900-01-01 16:51:09.000,8.153068348550725,0.5779763636363636,1.8468772727272729,0.25089436363636364,41.665,35.4375,69.2025,0.58,0.665,0.47,0.16499999999999998,-0.39999999999999997,-0.9275
1900-01-01 16:51:09.300,9.45385194639131,0.3289647272727273,1.6618045454545454,-0.022862618181818183,42.1525,35.9,68.9775,0.5975,0.6799999999999999,0.45999999999999996,-0.16499999999999998,-1.6549999999999998,-1.7875
1900-01-01 16:51:09.600,7.665346430767295,0.2721147272727273,1.210456,-0.22979536363636363,43.2425,35.595,68.4525,0.59,0.6925,0.4425,1.085,-0.715,-2.4725
1900-01-01 16:51:09.900,5.6354109223820466,0.49024354545454546,0.7502444545454545,-0.22588190909090908,44.449999999999996,34.43,67.63,0.57,0.7066666666666667,0.4366666666666667,0.29,-0.41333333333333333,-2.41
1900-01-01 16:51:10.200,7.844175994432246,0.48005820000000005,0.7563128,-0.056098579999999995,43.972,34.704,67.24600000000001,0.5740000000000001,0.7,0.44399999999999995,-1.044,0.72,0.11799999999999997
1900-01-01 16:51:10.500,8.496953482240132,0.513508,0.9998016363636364,0.12275590909090908,43.85999999999999,34.693333333333335,68.19333333333333,0.5733333333333334,0.6933333333333334,0.44333333333333336,-0.7433333333333333,-0.64,-0.63
1900-01-01 16:51:10.800,7.877700507279583,0.5583077272727273,1.0203372727272728,0.12332018181818181,43.68,34.942499999999995,68.29,0.5774999999999999,0.6924999999999999,0.4425,-0.4075,-0.2125,-1.0825
1900-01-01 16:51:11.100,7.446014742273235,0.5333862727272728,0.980056909090909,0.08110887272727273,43.6275,35.0925,68.23,0.5774999999999999,0.6925,0.44,-0.75,-0.7374999999999999,-1.47
1900-01-01 16:51:11.400,8.72341202576752,0.6145489090909091,0.8944961818181819,-0.013778023636363636,44.32,34.2575,67.75,0.5675,0.7,0.445,-1.1749999999999998,-0.81,-2.3675
1900-01-01 16:51:11.700,7.713893520408577,0.7998022727272727,0.5541365454545454,-0.12471781818181818,45.1,34.095,66.5275,0.5675,0.715,0.4325,-0.09250000000000003,-3.4825,-3.1225
1900-01-01 16:51:12.000,7.624157624700145,0.8366361,0.4508335,-0.12706919,45.41,34.2325,65.865,0.5675,0.7175,0.4225,0.17750000000000002,-0.6975,-0.73
1900-01-01 16:51:12.300,6.712871346388143,0.5496905454545454,0.34910772727272726,-0.017461866363636364,45.2075,35.2425,66.4625,0.5774999999999999,0.7075,0.405,0.97,1.715,0.63
1900-01-01 16:51:12.600,10.454460426708277,-0.05976155454545454,0.5324273636363637,0.1091089181818182,45.519999999999996,34.2825,67.645,0.5675,0.72,0.4175,1.6425,3.2125,0.985
1900-01-01 16:51:12.900,11.210611964210363,-0.1643454,0.7578515,0.12273000999999999,45.19,34.2475,68.17,0.56,0.7125,0.425,-1.7149999999999999,1.4325,-0.9675
1900-01-01 16:51:13.200,9.73453872621775,-0.2076018181818182,0.7662254545454545,0.08634765454545455,44.845,34.875,68.0775,0.5774999999999999,0.71,0.4225,0.21,-2.7025,-1.845
1900-01-01 16:51:13.500,8.610206808437205,-0.32978936363636363,0.620273,-0.00570101818181818,45.1225,34.66,67.845,0.5725,0.715,0.4175,-0.5375000000000001,0.9249999999999999,-0.895
1900-01-01 16:51:13.800,6.382064165256697,-0.9175828181818182,0.26706823636363636,-0.012047139090909091,45.3025,33.885,68.3375,0.5575000000000001,0.71,0.4275,0.6275,1.54,0.5425
1900-01-01 16:51:14.100,3.608314497675437,-1.648781,-0.113617598,-0.02624526,44.870000000000005,34.39666666666667,68.98333333333333,0.57,0.7133333333333333,0.43,0.18333333333333335,0.29333333333333333,-0.48
1900-01-01 16:51:14.400,1.6500870287559288,-2.2017772727272726,-0.4033412727272727,0.00838982009090909,45.332,34.686,69.158,0.572,0.714,0.414,1.504,0.686,-0.924
1900-01-01 16:51:14.700,-0.9006796261059526,-2.4500859999999998,-0.5498248,0.04191501,46.29,34.28,69.21,0.5666666666666667,0.7266666666666666,0.4000000000000001,1.0266666666666666,-0.41,-1.23
1900-01-01 16:51:15.000,-1.872229251992935,-2.4858536363636365,-0.5610491818181819,0.04712754545454545,46.6075,34.379999999999995,69.1775,0.5675,0.73,0.3925,0.33,0.5075,-0.965
1900-01-01 16:51:15.300,0.6099078918048998,-2.562212727272727,-0.3702832727272727,0.12108341818181817,46.695,33.89,69.48,0.5675,0.7375,0.405,1.4525,4.8675,0.7475
1900-01-01 16:51:15.600,2.24816452332503,-2.627173,-0.06495506,0.2305488,46.879999999999995,33.095,70.55,0.5425,0.7275,0.4075,-0.45999999999999996,1.2825,-0.415
1900-01-01 16:51:15.900,1.8250264137282175,-2.622145454545455,-0.03493467272727273,0.22837945454545452,46.620000000000005,33.455,70.6725,0.5525,0.735,0.4125,-0.7575,-0.2875,-1.025
1900-01-01 16:51:16.200,2.11010353835063,-2.6150772727272726,-0.03525471818181818,0.22062136363636364,46.5175,33.3725,70.645,0.55,0.73,0.4175,-0.345,-0.3925,-1.1525
1900-01-01 16:51:16.500,1.8494952597255176,-2.61312,-0.0374564,0.218232,46.885,33.2975,70.5675,0.5525,0.7375,0.41,-0.6625,-0.5075,-1.1300000000000001
1900-01-01 16:51:16.800,1.7993709719283175,-2.6113945454545453,-0.041021245454545455,0.21661454545454548,46.9325,33.2775,70.52250000000001,0.55,0.7324999999999999,0.4075,-0.3175,-0.9225,-1.1
1900-01-01 16:51:17.100,1.5095546886050224,-2.601890909090909,-0.059641618181818186,0.208206,46.9925,33.4775,70.5325,0.555,0.735,0.4025,-0.6025,-0.7749999999999999,-0.9125
1900-01-01 16:51:17.400,1.50024931435188,-2.59559,-0.07256728181818183,0.20241563636363635,47.0175,33.53,70.6175,0.555,0.74,0.4025,-0.5225,-0.39249999999999996,-0.8674999999999999
1900-01-01 16:51:17.700,1.42894268914531,-2.593171818181818,-0.07659139090909091,0.1995838181818182,47.055,33.5775,70.6975,0.5575000000000001,0.735,0.4,-0.5675,-0.29500000000000004,-0.8925
1900-01-01 16:51:18.000,1.52631165719644,-2.591146363636364,-0.07949147272727274,0.19708354545454546,46.99333333333333,33.589999999999996,70.8,0.56,0.7366666666666667,0.4033333333333333,-0.49,-0.20666666666666667,-0.91
1900-01-01 16:51:18.300,1.326320319929315,-2.58946,-0.0802856,0.195182,47.095,33.5175,70.8175,0.555,0.735,0.4,-0.5075,-0.10500000000000001,-1.0499999999999998
1900-01-01 16:51:18.600,1.600492111795646,-2.5866045454545454,-0.08531584545454546,0.19157090909090907,47.257999999999996,33.36,70.854,0.55,0.734,0.4,-0.294,-0.616,-0.966
1900-01-01 16:51:18.900,1.0641129260569593,-2.5622979999999997,-0.116093,0.16242859999999998,47.27333333333333,33.74333333333333,70.83666666666666,0.5566666666666668,0.7333333333333334,0.38999999999999996,-0.37999999999999995,-0.42333333333333334,-1.7433333333333334
1900-01-01 16:51:19.200,2.75561039920647,-2.3534699999999997,0.06680993636363636,0.18419181818181818,47.67,33.287499999999994,70.53,0.555,0.7475,0.3925,-1.4775,-0.6124999999999999,-0.61
1900-01-01 16:51:19.500,4.4594035528308495,-1.4369757272727273,0.4508612727272727,0.2992240909090909,47.18,33.255,70.7225,0.5525,0.7375,0.405,-2.47,-2.1225,-1.3725
1900-01-01 16:51:19.800,2.5380085871258986,-0.3702042690909091,0.7105883636363637,0.2601275454545455,46.5275,33.9975,70.565,0.56,0.73,0.4025,-1.7425,-2.1275,-1.065
1900-01-01 16:51:20.100,0.14363173645389227,0.5717378181818181,0.8967871818181817,0.15723245454545454,46.7475,34.15,70.5375,0.565,0.735,0.395,-1.0625,-1.54,-1.555
1900-01-01 16:51:20.400,0.5251591343949248,1.0297023636363638,0.9437739999999999,0.09272367272727272,46.25,34.6025,70.0525,0.57,0.73,0.3975,-0.7649999999999999,-2.145,-1.665
1900-01-01 16:51:20.700,1.1436391172875926,1.222690909090909,1.0073729090909092,0.13638590909090909,46.9425,33.8025,69.6925,0.555,0.73,0.395,-2.8575,-0.9975,-1.3350000000000002
1900-01-01 16:51:21.000,1.6289755675000297,1.2018309090909092,0.9808343636363636,0.13575781818181817,46.0375,34.4625,69.9575,0.5675,0.72,0.40249999999999997,-1.1824999999999999,-0.44499999999999995,-0.07749999999999996
1900-01-01 16:51:21.300,1.5607850347006127,1.110667,0.9475922999999999,0.1195451,45.9225,34.35,70.435,0.5675,0.725,0.4075,-0.905,-0.8200000000000001,-0.4325
1900-01-01 16:51:21.600,1.5155613542624098,0.5856250909090909,0.5739930909090909,0.11530122727272728,45.66,34.57333333333333,70.60666666666667,0.58,0.73,0.4166666666666667,-3.8233333333333337,-2.5833333333333335,-0.09000000000000001
1900-01-01 16:51:21.900,-4.759942419786841,-0.07120836999999999,-0.211461698,0.17380800000000002,43.38,36.762,71.44,0.594,0.682,0.41,0.45200000000000007,-0.296,-0.5760000000000001
1900-01-01 16:51:22.200,-5.04984581218953,-0.20109954545454548,-0.5170661818181818,0.12713636363636363,44.620000000000005,35.71666666666667,71.37333333333333,0.59,0.7133333333333333,0.41,-0.3833333333333333,0.04666666666666667,-1.18
1900-01-01 16:51:22.500,-5.121396865219506,-0.19547063636363635,-0.6433888181818183,0.10709245454545456,44.15,35.6425,71.44,0.585,0.7,0.42,-2.025,0.2225,-0.6975
1900-01-01 16:51:22.800,-6.290917305198085,-0.21608770000000002,-0.7999078,0.1162678,43.835,35.86,71.59,0.585,0.6925,0.42,-1.1099999999999999,-0.4575,-1.2225000000000001
1900-01-01 16:51:23.100,-4.077469783568355,-0.2978791818181818,-0.8169013636363637,0.10135040000000001,42.995000000000005,35.995,71.71,0.585,0.6825,0.435,-2.5425,-1.1700000000000002,-0.28250000000000003
1900-01-01 16:51:23.400,-3.0262454457939922,-0.3418901,-0.7923839,0.09590638,43.3625,35.9775,71.625,0.5974999999999999,0.695,0.435,0.23250000000000004,-0.6475,-1.875
1900-01-01 16:51:23.700,-1.769618109734775,-0.42589336363636365,-0.6576565454545454,0.0742122909090909,43.71,35.9525,71.045,0.5825,0.69,0.42,-1.1199999999999999,-0.8975,-2.3125
1900-01-01 16:51:24.000,0.9068852123511137,-0.8120539000000001,-0.3829534,0.014161099,44.879999999999995,34.885,70.52000000000001,0.5825,0.7175,0.4275,1.0775,0.515,-0.48750000000000004
1900-01-01 16:51:24.300,1.2068552463586533,-1.2648627272727273,-0.39482300000000004,-0.013415884545454544,44.16,35.825,71.2625,0.5825,0.6924999999999999,0.4125,1.9249999999999998,0.8575,-0.27
1900-01-01 16:51:24.600,-2.3469333324849724,-1.7306570000000001,-0.4110754,-0.06759941,46.09,35.3,71.4325,0.585,0.7275,0.3875,2.6175,1.58,-0.785
1900-01-01 16:51:24.900,-1.50512080002597,-1.9983454545454544,-0.3575577272727273,-0.05742895454545454,46.95,34.795,71.4425,0.575,0.735,0.3775,2.2325,1.425,-1.4775
1900-01-01 16:51:25.200,-0.024535435692620372,-2.1296954545454545,-0.3180320909090909,-0.05186649090909091,47.68000000000001,34.093333333333334,71.32666666666667,0.5633333333333334,0.7399999999999999,0.37333333333333335,0.0666666666666667,0.9900000000000001,-0.79
1900-01-01 16:51:25.500,0.26232546980220167,-2.1442645454545453,-0.3176708181818182,-0.04601344545454545,47.727999999999994,34.096,71.37,0.56,0.744,0.37,-0.032,-0.27199999999999996,-1.1300000000000001
1900-01-01 16:51:25.800,1.0869737102867842,-2.158185,-0.2747208,-0.029822994000000002,47.86,34.2125,71.33,0.565,0.7475,0.3675,-0.21000000000000002,1.74,-0.935
1900-01-01 16:51:26.100,3.89476753918826,-2.2032063636363635,-0.03801262181818182,0.06766602727272727,48.48333333333333,33.29,71.42999999999999,0.5533333333333333,0.75,0.37333333333333335,-0.06333333333333335,1.3066666666666666,-0.85
1900-01-01 16:51:26.400,3.3989198278439146,-1.6224754545454545,0.14946924545454546,0.15850863636363635,48.220000000000006,33.072,71.55,0.546,0.748,0.382,-1.502,-0.29,-1.1
1900-01-01 16:51:26.700,-2.9490469275321303,-0.3347056118181818,0.20543936363636364,0.18283172727272728,48.70666666666667,33.02,71.34,0.5533333333333333,0.7600000000000001,0.37666666666666665,-1.7966666666666669,-3.2266666666666666,-1.4633333333333336
1900-01-01 16:51:27.000,-0.5560637448036895,0.43492680000000006,0.3177334,0.06262338,47.315,33.2375,71.0875,0.5475000000000001,0.74,0.4,-4.165,-1.3275,-1.2775
1900-01-01 16:51:27.300,-2.4715415125527107,1.0111728181818183,0.11303422727272729,0.010902113636363635,46.9225,33.615,70.72,0.555,0.7324999999999999,0.4,-0.3300000000000001,-2.9775,-2.98
1900-01-01 16:51:27.600,-1.434820154164412,1.3013672727272727,-0.08507350909090909,-0.059071673636363634,47.489999999999995,33.769999999999996,69.4875,0.56,0.74,0.3825,-1.2225000000000001,-3.5125,-2.3575
1900-01-01 16:51:27.900,0.28295956495795027,1.359329090909091,-0.09481289999999999,-0.09168217272727273,48.245,33.345,69.08,0.5575000000000001,0.7525,0.3825,-0.6775,-0.6275,-0.6525
1900-01-01 16:51:28.200,0.032954453544204065,1.2281336363636364,-0.1401949090909091,-0.10340326363636364,47.807500000000005,33.6875,69.3675,0.5575000000000001,0.7424999999999999,0.3775,0.37000000000000005,-0.26,-0.4375
1900-01-01 16:51:28.500,1.0494741346207854,0.5288264545454546,-0.36162554545454545,-0.052186693636363635,47.2475,34.485,69.86,0.57,0.74,0.38,-1.5275,-0.6025,0.07750000000000001
1900-01-01 16:51:28.800,3.4412244399526766,-0.4231846909090909,-0.5507920909090909,0.006554629309090909,46.81666666666666,34.843333333333334,70.39,0.5733333333333333,0.73,0.37666666666666665,0.16333333333333333,0.1366666666666667,-0.6833333333333332
1900-01-01 16:51:29.100,5.645219143678552,-0.8810580909090909,-0.5293030909090909,-0.00687109,47.42,34.14,70.556,0.5660000000000001,0.746,0.38,-0.252,0.442,-1.122
1900-01-01 16:51:29.400,4.0887239218727665,-0.7547809090909091,-0.5187940909090909,0.028287081818181816,47.163333333333334,34.53333333333333,70.52333333333333,0.5666666666666667,0.7366666666666667,0.37666666666666665,-1.9566666666666668,-0.61,-0.8433333333333334
1900-01-01 16:51:29.700,2.903658878738327,-0.6973249090909092,-0.46063418181818183,0.021487027272727274,46.084,35.53,70.45599999999999,0.576,0.716,0.374,-2.18,-0.6239999999999999,-1.232
1900-01-01 16:51:30.000,6.777524728807762,-0.7117349090909091,-0.35125809090909094,0.016406181818181816,46.673333333333325,34.50666666666667,70.30666666666666,0.5733333333333334,0.7366666666666667,0.3933333333333333,0.34,-0.3466666666666667,-0.8833333333333333
1900-01-01 16:51:30.300,5.476039614022315,-0.8817061818181817,-0.26070218181818183,-0.00888199818181818,46.405,34.6075,71.1425,0.5750000000000001,0.7324999999999999,0.395,0.15249999999999986,2.8225000000000002,2.7600000000000002
1900-01-01 16:51:30.600,1.1001378045033796,-1.4071518181818181,-0.1122367909090909,-0.03949252727272727,44.275999999999996,36.333999999999996,73.258,0.596,0.704,0.40199999999999997,0.7620000000000001,6.74,1.2079999999999997
1900-01-01 16:51:30.900,2.7531471339962734,-2.0103554545454547,0.1979082127272727,0.08079190363636363,45.29333333333333,34.71333333333333,75.68333333333334,0.5666666666666668,0.71,0.4066666666666667,-1.09,1.9000000000000001,5.14
1900-01-01 16:51:31.200,-0.0017044738238839452,-2.2898036363636365,0.35985845454545456,0.16668545454545455,43.675,37.46,77.41,0.6175,0.7,0.395,4.59,-7.51,-1.2425
1900-01-01 16:51:31.500,0.5123223012303111,-2.297038181818182,0.35235363636363637,0.14203372727272726,45.3825,37.4075,76.84,0.6174999999999999,0.72,0.3575,0.1675,0.09250000000000001,-2.225
1900-01-01 16:51:31.800,2.153829340015386,-2.06851,0.37118236363636364,0.08166154545454546,46.44,36.6475,75.95750000000001,0.6,0.7275,0.3425,-2.74,-0.48750000000000004,-3.6725000000000003
1900-01-01 16:51:32.100,5.884471340239237,-1.1463664,0.3034597,0.2047142,46.59,34.5875,74.1425,0.5700000000000001,0.7324999999999999,0.3875,-5.8325,-0.5675,-4.375
1900-01-01 16:51:32.400,3.9934929765157476,-0.24043208333333332,0.1692614166666667,0.25121299999999996,46.795,34.1525,72.4,0.5625,0.7324999999999999,0.395,-2.8425000000000002,-3.0775,-2.34
1900-01-01 16:51:32.700,4.888675280158558,0.3508817,0.1661739,0.21147809999999997,46.01,34.5025,71.825,0.57,0.725,0.405,-2.3725,-1.75,-1.55
1900-01-01 16:51:33.000,2.6043782959478334,0.7103081818181818,0.23958900000000002,0.20379263636363634,46.56666666666666,34.06666666666667,71.61666666666667,0.5566666666666668,0.7233333333333333,0.39666666666666667,-0.05999999999999998,-0.88,-0.8033333333333333
1900-01-01 16:51:33.300,7.11127843368382,0.5159345454545454,0.3469336363636364,-0.012260117272727272,44.664,34.982,71.712,0.576,0.708,0.422,-3.036,-1.9919999999999998,-1.296
1900-01-01 16:51:33.600,9.38457978003592,0.6999736363636363,0.4506045454545454,0.058902539090909097,45.026666666666664,34.73,71.63666666666667,0.57,0.71,0.42333333333333334,0.6166666666666667,0.07666666666666666,-0.42333333333333334
1900-01-01 16:51:33.900,8.019826230276728,1.0261948181818181,0.5607909090909091,0.0748478,46.001999999999995,34.282,71.82000000000001,0.5660000000000001,0.722,0.40800000000000003,0.10800000000000003,-0.10999999999999996,-0.808
