Time,Roll2,Pitch2,Yaw2,AccX2,AccY2,AccZ2,RotX2,RotY2,RotZ2,Roll1,Pitch1,Yaw1,AccX1,AccY1,AccZ1,RotX1,RotY1,RotZ1
1900-01-01 17:56:20.502,28.06,-3.38,-1.98,-0.06,0.47,0.87,-0.69,-0.21,-0.8,18.28,22.57,-8.08,0.37,0.3,0.84,-1.27,1.09,0.11
1900-01-01 17:56:20.537,28.17,-3.26,-1.95,-0.06,0.47,0.88,-0.53,-0.35,-1.02,18.37,22.69,-8.07,0.38,0.31,0.85,-1.11,0.55,0.12
1900-01-01 17:56:20.627,27.94,-3.44,-1.94,-0.06,0.47,0.88,-0.89,-0.5,-1.02,18.51,22.81,-8.06,0.38,0.31,0.84,-0.98,0.6,0.02
1900-01-01 17:56:20.692,27.88,-3.33,-1.94,-0.06,0.47,0.88,-0.42,-0.18,-0.84,18.13,23.22,-8.06,0.38,0.3,0.84,-0.85,1.07,0.02
1900-01-01 17:56:20.774,28.17,-3.14,-1.91,-0.05,0.47,0.87,-0.63,-0.44,-0.86,18.53,22.92,-8.07,0.38,0.31,0.84,-1.11,1.31,0.12
1900-01-01 17:56:20.879,28.17,-3.18,-1.88,-0.06,0.47,0.88,-0.45,-0.33,-1.03,18.68,22.87,-8.06,0.38,0.31,0.84,-1.05,1.08,-0.15
1900-01-01 17:56:20.927,28.36,-3.28,-1.88,-0.06,0.47,0.87,-0.14,-0.48,-0.91,18.44,23.02,-8.09,0.38,0.31,0.84,-0.86,0.95,-0.24
1900-01-01 17:56:20.974,28.02,-3.33,-1.86,-0.06,0.47,0.88,-0.41,-0.32,-0.81,18.37,22.96,-8.14,0.38,0.31,0.84,-0.92,1.31,-0.2
1900-01-01 17:56:21.068,27.99,-3.25,-1.82,-0.06,0.47,0.88,-0.7,-0.29,-0.88,18.58,23.02,-8.18,0.38,0.31,0.84,-1.31,1.11,0.17
1900-01-01 17:56:21.122,28.29,-3.25,-1.8,-0.06,0.47,0.87,-0.61,-0.24,-0.79,18.68,22.9,-8.16,0.38,0.31,0.84,-1.25,1.19,0.02
1900-01-01 17:56:21.208,28.33,-3.18,-1.76,-0.06,0.47,0.87,-0.34,-0.43,-0.79,18.71,23.17,-8.17,0.38,0.31,0.84,-1.0,1.27,-0.15
1900-01-01 17:56:21.302,28.01,-3.35,-1.72,-0.06,0.47,0.88,-0.52,-0.44,-0.82,18.44,22.9,-8.2,0.38,0.31,0.84,-1.15,1.21,-0.05
1900-01-01 17:56:21.431,28.17,-3.29,-1.69,-0.06,0.47,0.88,-0.53,-0.37,-0.83,18.59,23.1,-8.21,0.38,0.31,0.84,-1.23,1.2,0.03
1900-01-01 17:56:21.431,28.08,-3.13,-1.66,-0.05,0.47,0.88,-0.52,-0.27,-0.83,18.44,23.07,-8.22,0.38,0.31,0.84,-1.23,1.26,-0.09
1900-01-01 17:56:21.512,28.18,-3.13,-1.63,-0.05,0.47,0.87,-0.62,-0.35,-0.79,18.59,22.95,-8.24,0.38,0.31,0.84,-1.21,0.89,0.03
1900-01-01 17:56:21.644,28.22,-3.3,-1.59,-0.06,0.47,0.87,-0.79,-0.15,-0.79,18.44,23.12,-8.24,0.38,0.31,0.84,-1.21,1.2,0.03
1900-01-01 17:56:21.679,28.43,-3.06,-1.55,-0.05,0.47,0.87,-0.71,-0.4,-0.91,18.68,23.09,-8.25,0.38,0.31,0.84,-1.24,2.06,-0.04
1900-01-01 17:56:21.773,28.05,-3.3,-1.53,-0.06,0.47,0.88,-0.65,-0.42,-0.79,18.47,22.98,-8.26,0.38,0.31,0.84,-1.27,1.31,-0.08
1900-01-01 17:56:21.821,28.25,-3.17,-1.5,-0.06,0.47,0.88,-0.4,-0.24,-0.81,18.68,23.05,-8.28,0.38,0.31,0.84,-1.21,1.22,-0.02
1900-01-01 17:56:21.915,28.15,-3.1,-1.46,-0.05,0.47,0.88,-0.48,-0.35,-0.79,18.56,23.08,-8.29,0.38,0.31,0.84,-1.25,1.56,0.07
1900-01-01 17:56:22.037,28.64,-3.27,-1.42,-0.06,0.48,0.87,-0.64,-0.32,-0.89,18.91,22.78,-8.29,0.38,0.32,0.84,-1.25,1.18,-0.02
1900-01-01 17:56:22.037,28.2,-3.06,-1.4,-0.05,0.47,0.87,-0.35,-0.32,-0.85,18.66,23.03,-8.3,0.38,0.31,0.84,-1.15,1.04,-0.16
1900-01-01 17:56:22.181,28.08,-3.21,-1.37,-0.06,0.47,0.88,-0.37,-0.34,-0.73,18.55,23.02,-8.33,0.38,0.31,0.84,-1.05,1.33,-0.11
1900-01-01 17:56:22.303,28.19,-3.26,-1.32,-0.06,0.47,0.88,-0.85,-0.24,-0.82,18.61,22.89,-8.36,0.38,0.31,0.84,-1.33,1.57,0.05
1900-01-01 17:56:22.303,28.53,-3.08,-1.29,-0.05,0.48,0.87,-0.59,-0.25,-0.87,18.81,22.86,-8.36,0.38,0.31,0.84,-1.35,0.92,0.11
1900-01-01 17:56:22.344,28.28,-3.22,-1.26,-0.06,0.47,0.88,-0.51,-0.29,-0.79,18.61,23.06,-8.35,0.38,0.31,0.84,-0.98,2.07,-0.14
1900-01-01 17:56:22.431,28.1,-3.16,-1.23,-0.05,0.47,0.88,-0.76,-0.31,-0.88,18.71,22.84,-8.38,0.38,0.31,0.84,-1.43,1.24,0.03
1900-01-01 17:56:22.501,28.3,-3.22,-1.2,-0.06,0.47,0.87,-0.63,-0.29,-0.85,18.71,23.01,-8.39,0.38,0.31,0.84,-1.38,0.82,0.07
1900-01-01 17:56:22.597,28.25,-3.22,-1.17,-0.06,0.47,0.87,-0.5,-0.29,-0.83,18.75,23.09,-8.38,0.38,0.31,0.83,-1.19,1.5,0.01
1900-01-01 17:56:22.706,28.12,-3.26,-1.14,-0.06,0.47,0.88,-0.6,-0.21,-0.84,18.75,22.87,-8.39,0.38,0.31,0.84,-1.24,1.59,-0.02
1900-01-01 17:56:22.745,28.24,-3.15,-1.11,-0.05,0.47,0.88,-0.66,-0.3,-0.86,18.75,22.95,-8.4,0.38,0.31,0.83,-1.33,1.19,0.02
1900-01-01 17:56:22.966,28.04,-3.24,-1.08,-0.06,0.47,0.88,-0.55,-0.28,-0.79,18.55,23.03,-8.41,0.38,0.31,0.84,-1.3,1.08,0.09
1900-01-01 17:56:22.966,28.51,-3.1,-1.05,-0.05,0.48,0.87,-0.75,0.01,-0.78,18.78,22.89,-8.4,0.38,0.31,0.84,-1.09,1.47,0.01
1900-01-01 17:56:22.966,28.17,-3.4,-1.01,-0.06,0.47,0.88,-0.51,-0.31,-0.9,18.72,22.76,-8.41,0.38,0.31,0.84,-1.32,1.44,-0.02
1900-01-01 17:56:23.212,28.17,-3.25,-0.99,-0.06,0.47,0.88,-0.61,-0.08,-0.79,18.6,22.86,-8.42,0.38,0.31,0.84,-1.43,1.44,0.07
1900-01-01 17:56:23.212,28.16,-3.19,-0.95,-0.06,0.47,0.87,-0.86,0.0,-0.85,18.6,22.92,-8.42,0.38,0.31,0.84,-1.81,1.27,0.27
1900-01-01 17:56:23.212,28.42,-3.29,-0.92,-0.06,0.47,0.87,-0.6,-0.03,-0.76,18.69,22.8,-8.39,0.38,0.31,0.84,-1.11,1.38,-0.05
1900-01-01 17:56:23.262,27.75,-3.17,-0.88,-0.05,0.46,0.87,-0.02,-0.58,-0.66,18.33,22.99,-8.4,0.38,0.3,0.83,-0.5,0.76,0.0
1900-01-01 17:56:23.340,29.15,-2.05,-0.82,-0.04,0.48,0.87,-0.57,0.18,-0.25,19.77,23.45,-8.41,0.38,0.33,0.82,-0.44,-0.21,-0.04
1900-01-01 17:56:23.474,27.83,-5.35,-0.7,-0.1,0.48,0.9,-1.18,0.8,-0.73,18.21,21.38,-8.43,0.36,0.31,0.88,-1.65,-0.33,-0.47
1900-01-01 17:56:23.521,27.71,-4.51,-0.65,-0.08,0.48,0.9,-0.24,-0.85,-1.55,18.19,22.32,-8.51,0.38,0.31,0.86,-3.27,4.19,-0.05
1900-01-01 17:56:23.568,27.66,-2.13,-0.73,-0.04,0.45,0.85,1.53,-2.88,-0.65,18.55,23.95,-8.52,0.38,0.3,0.79,-1.53,3.26,0.47
1900-01-01 17:56:23.728,29.73,-1.47,-0.67,-0.03,0.49,0.85,-4.11,2.39,-1.25,19.85,22.79,-8.46,0.37,0.33,0.83,-2.6,-0.41,0.56
1900-01-01 17:56:23.728,27.84,-6.1,-0.7,-0.11,0.47,0.89,0.95,-0.76,-1.18,17.95,21.4,-8.38,0.36,0.31,0.87,-0.31,2.05,-0.9
1900-01-01 17:56:23.848,28.0,-2.39,-0.72,-0.04,0.46,0.87,1.13,-1.24,-1.02,18.58,23.07,-8.53,0.37,0.3,0.82,-0.81,3.05,-0.59
1900-01-01 17:56:23.896,27.89,-1.72,-0.72,-0.03,0.45,0.85,-1.52,-0.04,-0.39,18.56,23.22,-8.63,0.37,0.3,0.81,-1.17,-0.61,0.94
1900-01-01 17:56:23.982,29.29,-2.93,-0.62,-0.05,0.49,0.87,-2.79,0.6,-0.69,19.32,22.67,-8.49,0.38,0.32,0.84,-0.87,-2.21,0.16
1900-01-01 17:56:24.110,27.91,-5.64,-0.57,-0.1,0.48,0.9,0.45,-0.18,-0.64,18.02,21.94,-8.47,0.37,0.31,0.87,0.79,0.8,-1.62
1900-01-01 17:56:24.110,26.86,-3.89,-0.51,-0.07,0.46,0.9,1.18,-1.69,-1.08,17.81,23.02,-8.73,0.38,0.3,0.85,-1.47,3.05,-0.37
1900-01-01 17:56:24.229,27.78,-1.78,-0.52,-0.03,0.45,0.85,-0.66,-0.98,-0.76,18.84,23.79,-8.79,0.38,0.3,0.8,-2.37,1.82,1.23
1900-01-01 17:56:24.270,29.49,-2.24,-0.47,-0.04,0.49,0.86,-2.7,0.88,-0.79,19.68,23.03,-8.62,0.38,0.33,0.83,-1.47,-0.4,0.71
1900-01-01 17:56:24.359,28.37,-5.05,-0.43,-0.09,0.48,0.88,0.98,-0.63,-0.56,18.52,22.07,-8.52,0.37,0.31,0.86,0.89,1.26,-1.36
1900-01-01 17:56:24.489,27.66,-3.14,-0.36,-0.06,0.47,0.89,1.23,-1.5,-1.02,18.44,23.25,-8.73,0.39,0.31,0.85,-0.82,2.69,-0.83
1900-01-01 17:56:24.489,27.59,-2.22,-0.36,-0.04,0.45,0.86,-0.63,-0.67,-0.79,18.59,23.56,-8.87,0.38,0.3,0.81,-2.01,1.25,0.77
1900-01-01 17:56:24.601,29.33,-2.53,-0.32,-0.04,0.49,0.87,-2.21,0.56,-0.7,19.68,22.93,-8.76,0.38,0.33,0.84,-1.42,-0.24,0.69
1900-01-01 17:56:24.645,28.58,-4.3,-0.27,-0.08,0.48,0.88,0.37,-0.46,-0.69,18.78,22.43,-8.66,0.38,0.32,0.86,-0.18,1.52,-0.73
1900-01-01 17:56:24.744,28.03,-3.05,-0.22,-0.05,0.47,0.88,0.66,-1.01,-0.95,18.63,23.06,-8.78,0.38,0.31,0.84,-1.17,2.49,-0.44
1900-01-01 17:56:24.862,28.03,-2.28,-0.2,-0.04,0.46,0.86,-0.69,-0.73,-0.85,18.89,23.46,-8.86,0.38,0.31,0.82,-1.85,1.05,0.67
1900-01-01 17:56:24.862,29.4,-2.64,-0.17,-0.05,0.49,0.86,-1.83,0.66,-0.77,19.61,22.88,-8.76,0.38,0.32,0.83,-0.96,-0.13,0.27
1900-01-01 17:56:24.990,28.56,-3.6,-0.13,-0.06,0.48,0.89,-0.14,-0.34,-0.7,18.95,22.82,-8.73,0.38,0.32,0.85,-0.26,1.25,-0.57
1900-01-01 17:56:25.023,27.91,-3.78,-0.08,-0.07,0.47,0.88,0.16,-0.69,-0.92,18.49,22.8,-8.83,0.38,0.31,0.85,-1.44,2.1,-0.31
1900-01-01 17:56:25.127,28.25,-2.44,-0.06,-0.04,0.47,0.87,-0.96,-0.64,-1.02,19.11,23.25,-8.88,0.38,0.32,0.83,-2.38,1.85,0.42
1900-01-01 17:56:25.244,29.07,-2.22,-0.06,-0.04,0.48,0.85,-1.46,0.31,-0.73,19.53,23.37,-8.83,0.38,0.32,0.82,-1.75,0.52,0.56
1900-01-01 17:56:25.244,28.88,-3.31,-0.01,-0.06,0.48,0.88,-0.89,0.46,-0.64,19.12,22.99,-8.75,0.38,0.32,0.84,-0.37,1.0,-0.56
1900-01-01 17:56:25.371,27.74,-4.14,0.05,-0.07,0.47,0.89,-0.3,-0.21,-1.01,18.33,22.77,-8.84,0.38,0.31,0.85,-1.61,2.18,-0.15
1900-01-01 17:56:25.404,28.38,-2.57,0.05,-0.04,0.47,0.87,-0.74,-0.42,-1.08,19.06,23.01,-8.87,0.38,0.31,0.83,-2.08,1.92,0.31
1900-01-01 17:56:25.505,28.34,-2.7,0.05,-0.05,0.46,0.86,-1.33,0.31,-0.82,18.95,23.21,-8.83,0.38,0.31,0.82,-1.78,0.83,0.56
1900-01-01 17:56:25.620,28.91,-3.02,0.08,-0.05,0.48,0.87,-1.12,0.66,-0.6,19.3,22.79,-8.76,0.38,0.32,0.84,-0.46,0.95,-0.08
1900-01-01 17:56:25.620,27.78,-4.27,0.15,-0.07,0.47,0.89,-0.68,0.25,-0.76,18.26,22.57,-8.78,0.38,0.31,0.85,-1.09,1.27,-0.16
1900-01-01 17:56:25.689,28.16,-3.36,0.19,-0.06,0.47,0.88,-0.41,-0.5,-0.91,18.82,22.87,-8.81,0.38,0.31,0.84,-1.89,1.73,0.18
1900-01-01 17:56:25.786,28.0,-3.1,0.21,-0.05,0.46,0.87,-1.03,0.08,-0.76,18.68,23.17,-8.79,0.38,0.31,0.83,-1.81,1.29,0.62
1900-01-01 17:56:25.878,28.57,-3.14,0.26,-0.05,0.47,0.87,-1.38,0.55,-0.71,19.07,22.83,-8.71,0.38,0.32,0.84,-1.03,1.56,0.29
1900-01-01 17:56:25.960,28.02,-4.07,0.31,-0.07,0.47,0.88,-0.47,-0.11,-0.74,18.61,22.84,-8.67,0.38,0.31,0.85,-0.87,2.14,-0.21
1900-01-01 17:56:26.012,27.98,-3.96,0.35,-0.07,0.47,0.88,-0.11,-0.85,-0.93,18.69,22.72,-8.71,0.38,0.31,0.84,-1.47,1.24,-0.21
1900-01-01 17:56:26.137,28.1,-2.99,0.37,-0.05,0.47,0.87,-0.35,-1.01,-1.0,18.74,23.22,-8.75,0.38,0.31,0.84,-1.47,1.56,-0.08
1900-01-01 17:56:26.170,28.31,-3.16,0.38,-0.05,0.47,0.86,-0.92,-0.04,-0.87,18.92,22.79,-8.77,0.37,0.31,0.83,-1.13,0.31,0.22
1900-01-01 17:56:26.267,28.22,-3.86,0.4,-0.07,0.48,0.88,-0.63,-0.41,-0.87,18.75,22.63,-8.75,0.38,0.32,0.85,-0.89,0.78,-0.25
1900-01-01 17:56:26.385,27.99,-3.86,0.43,-0.07,0.47,0.88,-0.07,-0.43,-0.95,18.56,22.87,-8.79,0.38,0.31,0.84,-1.33,1.74,-0.24
1900-01-01 17:56:26.385,27.93,-3.07,0.44,-0.05,0.47,0.88,-0.35,-0.92,-0.92,18.44,23.37,-8.84,0.38,0.31,0.83,-1.84,2.34,0.33
1900-01-01 17:56:26.510,28.48,-3.2,0.46,-0.05,0.47,0.86,-1.07,0.05,-0.89,19.0,22.69,-8.8,0.37,0.31,0.83,-1.49,1.42,0.31
1900-01-01 17:56:26.541,28.67,-2.74,0.48,-0.05,0.48,0.87,-0.34,-0.4,-0.81,19.16,22.96,-8.76,0.38,0.32,0.84,-0.54,0.35,-0.23
1900-01-01 17:56:26.619,27.94,-4.2,0.52,-0.07,0.47,0.88,-0.24,0.0,-0.68,18.26,22.62,-8.8,0.37,0.31,0.85,-0.59,0.88,-0.3
1900-01-01 17:56:26.764,27.99,-3.37,0.57,-0.06,0.47,0.89,-0.37,-0.82,-0.9,18.85,22.96,-8.86,0.38,0.32,0.84,-1.6,1.9,0.1
1900-01-01 17:56:26.764,28.3,-3.32,0.59,-0.06,0.47,0.86,-1.03,-0.07,-0.85,18.87,22.78,-8.85,0.37,0.31,0.83,-1.94,1.3,0.4
1900-01-01 17:56:26.902,28.75,-2.75,0.62,-0.05,0.48,0.87,-0.67,-0.35,-0.82,19.26,23.1,-8.8,0.38,0.32,0.83,-1.03,0.79,0.05
1900-01-01 17:56:26.937,28.1,-4.02,0.66,-0.07,0.47,0.88,-0.65,0.17,-0.79,18.57,22.48,-8.8,0.37,0.31,0.84,-0.73,1.27,-0.27
1900-01-01 17:56:27.034,27.96,-3.39,0.69,-0.06,0.47,0.88,-0.14,-0.9,-0.99,18.89,22.92,-8.85,0.38,0.32,0.84,-1.45,1.9,-0.07
1900-01-01 17:56:27.145,28.08,-3.4,0.7,-0.06,0.46,0.87,-0.97,-0.11,-0.84,18.58,22.7,-8.87,0.37,0.31,0.83,-1.8,1.77,0.27
1900-01-01 17:56:27.145,28.56,-2.77,0.73,-0.05,0.48,0.87,-0.83,-0.31,-0.95,19.28,23.14,-8.83,0.38,0.32,0.84,-1.46,1.16,0.21
1900-01-01 17:56:27.285,28.25,-3.75,0.75,-0.06,0.47,0.87,-0.61,-0.14,-0.73,18.69,22.67,-8.81,0.37,0.31,0.84,-0.88,1.28,-0.27
1900-01-01 17:56:27.319,27.08,-6.34,0.79,-0.13,0.54,1.05,-1.5,1.06,2.98,19.71,19.28,-8.86,0.41,0.42,1.1,-6.47,4.75,0.42
1900-01-01 17:56:27.414,26.26,0.09,1.4,0.0,0.5,1.01,4.79,-11.66,16.1,18.1,26.66,-8.81,0.52,0.36,0.96,23.02,0.05,-1.63
1900-01-01 17:56:27.455,29.02,3.05,4.02,0.06,0.58,1.04,0.32,-25.93,20.44,28.86,23.3,-9.06,0.5,0.61,0.99,8.04,-29.51,14.07
1900-01-01 17:56:27.535,26.0,11.83,7.3,0.21,0.45,0.89,-2.57,-34.23,17.89,20.46,43.78,-6.92,0.64,0.32,0.58,3.4,-1.77,-2.28
1900-01-01 17:56:27.659,24.93,21.08,10.2,0.25,0.29,0.58,14.93,-25.45,8.63,22.52,12.79,-7.28,0.13,0.22,0.51,7.41,50.84,-9.47
1900-01-01 17:56:27.696,40.52,3.13,11.68,0.05,0.56,0.66,-18.89,0.11,3.92,31.28,4.05,-8.74,0.05,0.36,0.59,-30.33,-7.18,14.1
1900-01-01 17:56:27.821,28.34,3.43,12.44,0.05,0.43,0.8,-7.87,9.88,-3.3,16.43,22.51,-6.59,0.36,0.27,0.82,-1.5,-57.37,4.65
1900-01-01 17:56:27.944,23.06,13.39,12.09,0.22,0.37,0.85,28.98,6.41,-13.34,19.56,39.93,-5.89,0.55,0.29,0.59,46.75,6.67,-28.21
1900-01-01 17:56:27.944,33.72,12.48,10.2,0.23,0.58,0.84,19.4,9.34,-16.14,42.97,24.56,-10.23,0.43,0.71,0.62,7.02,21.06,-20.01
1900-01-01 17:56:27.977,36.05,10.49,7.88,0.19,0.63,0.84,-22.82,13.23,-3.79,37.99,21.19,-13.32,0.37,0.63,0.72,-39.92,12.49,17.37
1900-01-01 17:56:28.067,30.52,9.08,7.45,0.16,0.53,0.88,-17.85,13.47,2.15,21.32,28.67,-10.65,0.48,0.36,0.79,-25.92,15.49,15.68
1900-01-01 17:56:28.185,25.95,4.73,7.94,0.08,0.43,0.89,-12.01,7.9,-2.15,13.64,22.52,-8.25,0.35,0.22,0.83,-27.35,28.24,1.8
1900-01-01 17:56:28.221,26.65,-1.42,7.77,-0.02,0.45,0.89,-7.24,10.88,-8.33,16.6,13.08,-7.98,0.25,0.32,1.03,-19.82,-6.69,4.49
1900-01-01 17:56:28.327,23.1,2.65,6.66,0.05,0.42,0.98,5.51,4.07,-9.14,14.7,21.35,-7.31,0.37,0.26,0.91,7.16,-0.98,-4.6
1900-01-01 17:56:28.360,27.65,-0.91,5.43,-0.02,0.46,0.87,-1.44,7.08,-5.63,20.21,19.21,-8.01,0.3,0.32,0.81,-8.51,4.5,0.08
1900-01-01 17:56:28.457,26.11,-0.74,4.73,-0.01,0.46,0.93,-5.93,1.65,-3.07,13.46,20.17,-8.01,0.35,0.24,0.93,-8.02,0.22,-0.44
1900-01-01 17:56:28.601,26.88,-1.95,4.42,-0.03,0.45,0.88,0.6,1.47,-2.53,15.58,19.01,-8.08,0.32,0.26,0.88,-2.28,-0.57,-1.91
1900-01-01 17:56:28.601,25.83,-2.39,4.2,-0.04,0.44,0.91,1.1,-0.54,-3.76,14.51,19.93,-8.38,0.34,0.25,0.9,-1.44,-0.89,-2.5
1900-01-01 17:56:28.749,26.41,-1.55,3.78,-0.03,0.45,0.9,2.53,0.27,-3.31,16.18,20.29,-8.77,0.34,0.27,0.87,0.79,1.74,-3.02
1900-01-01 17:56:28.749,25.56,-2.09,3.44,-0.04,0.44,0.91,0.01,0.16,-2.2,15.01,20.21,-9.24,0.34,0.26,0.89,-1.5,1.63,-1.19
1900-01-01 17:56:28.982,26.67,-2.7,3.26,-0.05,0.45,0.89,-0.49,-0.53,-1.56,15.84,19.37,-9.43,0.32,0.27,0.88,-2.43,1.0,-0.23
1900-01-01 17:56:28.982,27.33,-1.95,3.18,-0.03,0.46,0.88,0.79,-1.19,-1.59,16.21,19.93,-9.47,0.33,0.27,0.87,-1.17,1.51,-0.81
1900-01-01 17:56:28.982,27.53,-1.84,3.1,-0.03,0.46,0.88,2.18,-0.79,-1.79,16.54,19.86,-9.6,0.33,0.27,0.86,0.97,1.92,-2.03
1900-01-01 17:56:29.115,27.07,-1.89,2.99,-0.03,0.45,0.89,2.4,-1.17,-1.57,16.18,19.99,-9.92,0.33,0.27,0.87,1.28,1.31,-1.78
1900-01-01 17:56:29.153,27.31,-2.07,2.91,-0.04,0.46,0.89,1.17,-0.97,-1.18,16.46,19.52,-10.2,0.32,0.27,0.87,-0.24,1.42,-0.91
1900-01-01 17:56:29.245,27.58,-1.8,2.89,-0.03,0.47,0.89,0.02,-0.69,-0.9,16.64,19.78,-10.34,0.33,0.28,0.87,-1.32,1.62,-0.11
1900-01-01 17:56:29.279,27.97,-1.86,2.91,-0.03,0.47,0.88,-0.39,-0.6,-0.69,16.97,19.53,-10.37,0.32,0.28,0.86,-1.52,1.05,0.01
1900-01-01 17:56:29.369,28.05,-1.61,2.96,-0.03,0.47,0.88,0.09,-0.16,-0.8,16.89,19.85,-10.38,0.33,0.28,0.86,-1.05,1.21,-0.08
1900-01-01 17:56:29.502,28.37,-1.61,3.0,-0.03,0.48,0.88,0.28,-0.66,-0.62,17.1,19.41,-10.4,0.32,0.28,0.86,-0.47,1.5,-0.3
1900-01-01 17:56:29.502,28.1,-1.8,3.06,-0.03,0.47,0.88,-0.34,-0.09,-0.76,16.81,19.54,-10.45,0.32,0.28,0.87,-1.26,1.47,-0.08
1900-01-01 17:56:29.650,28.26,-1.63,3.1,-0.03,0.47,0.88,-0.07,-0.42,-0.75,17.23,19.5,-10.47,0.32,0.29,0.86,-0.98,1.41,-0.03
1900-01-01 17:56:29.650,28.32,-1.96,3.15,-0.03,0.47,0.87,-0.44,-0.26,-0.58,16.93,19.32,-10.49,0.32,0.28,0.86,-1.46,1.37,0.03
1900-01-01 17:56:29.764,28.64,-1.38,3.22,-0.02,0.48,0.88,-0.27,-0.56,-0.74,17.39,19.47,-10.49,0.32,0.29,0.87,-1.21,1.63,-0.07
1900-01-01 17:56:29.805,28.39,-1.9,3.26,-0.03,0.47,0.87,-0.51,0.05,-0.7,16.89,19.11,-10.51,0.31,0.28,0.86,-1.27,1.16,-0.05
1900-01-01 17:56:29.888,28.44,-1.33,3.31,-0.02,0.48,0.88,-0.32,-0.42,-0.76,17.19,19.65,-10.52,0.33,0.29,0.87,-1.11,1.4,0.0
1900-01-01 17:56:30.029,28.24,-2.13,3.36,-0.04,0.47,0.87,-0.59,0.0,-0.52,16.87,19.12,-10.53,0.31,0.28,0.86,-1.17,1.55,0.18
1900-01-01 17:56:30.066,28.57,-1.41,3.44,-0.02,0.48,0.88,-0.77,-0.14,-0.89,17.14,19.56,-10.51,0.33,0.29,0.88,-1.65,1.85,0.11
1900-01-01 17:56:30.158,28.63,-1.77,3.46,-0.03,0.47,0.86,-0.37,0.02,-0.72,17.16,19.28,-10.5,0.31,0.28,0.86,-1.2,0.85,-0.11
1900-01-01 17:56:30.193,28.36,-1.59,3.51,-0.03,0.48,0.88,-0.38,-0.13,-0.84,16.79,19.66,-10.53,0.33,0.28,0.88,-1.25,1.34,0.0
1900-01-01 17:56:30.301,28.57,-1.92,3.54,-0.03,0.48,0.87,-0.66,-0.06,-0.77,16.98,19.15,-10.54,0.31,0.28,0.86,-1.09,1.73,0.0
1900-01-01 17:56:30.367,28.16,-1.71,3.58,-0.03,0.47,0.88,-0.79,0.0,-0.87,16.98,19.7,-10.55,0.33,0.28,0.87,-1.62,1.39,0.14
1900-01-01 17:56:30.419,28.63,-1.77,3.6,-0.03,0.48,0.87,-0.42,-0.26,-0.71,17.13,19.32,-10.54,0.32,0.28,0.86,-0.97,1.79,-0.15
1900-01-01 17:56:30.552,28.24,-1.98,3.65,-0.03,0.47,0.88,-0.76,0.05,-0.89,16.73,19.31,-10.57,0.32,0.28,0.88,-1.51,1.85,0.07
1900-01-01 17:56:30.681,28.63,-1.59,3.68,-0.03,0.48,0.87,-0.49,-0.28,-0.79,17.21,19.15,-10.57,0.32,0.29,0.86,-1.19,1.5,-0.06
1900-01-01 17:56:30.681,28.3,-1.8,3.71,-0.03,0.47,0.87,-0.67,-0.03,-0.85,16.78,19.37,-10.58,0.32,0.28,0.87,-1.48,0.93,0.15
1900-01-01 17:56:30.721,28.52,-1.81,3.74,-0.03,0.48,0.87,-0.47,-0.11,-0.69,16.93,19.25,-10.57,0.32,0.28,0.86,-1.02,1.63,0.0
1900-01-01 17:56:30.804,28.51,-2.01,3.8,-0.04,0.48,0.88,-0.72,-0.27,-0.87,16.81,19.22,-10.58,0.32,0.28,0.87,-1.23,1.77,0.02
1900-01-01 17:56:30.926,28.67,-2.12,3.82,-0.04,0.48,0.87,-0.57,-0.15,-0.91,17.04,19.07,-10.58,0.32,0.28,0.87,-1.37,0.78,0.27
1900-01-01 17:56:30.961,28.35,-1.57,3.84,-0.03,0.47,0.88,-0.24,-0.8,-0.85,17.03,19.58,-10.55,0.33,0.28,0.87,-0.71,3.17,-0.27
1900-01-01 17:56:31.064,28.72,-2.15,3.87,-0.04,0.48,0.87,-0.12,-0.47,-0.82,17.19,18.88,-10.6,0.31,0.28,0.86,-0.92,2.23,-0.16
1900-01-01 17:56:31.105,28.3,-1.75,3.91,-0.03,0.47,0.88,-0.31,-0.64,-0.99,17.05,19.34,-10.63,0.32,0.29,0.87,-1.47,0.98,-0.02
1900-01-01 17:56:31.191,28.79,-1.64,3.91,-0.03,0.48,0.87,-0.54,-0.53,-0.85,17.17,19.07,-10.64,0.31,0.28,0.86,-1.47,1.2,0.06
1900-01-01 17:56:31.326,28.71,-1.68,3.94,-0.03,0.48,0.87,-0.34,-0.31,-0.83,17.0,19.3,-10.64,0.32,0.28,0.87,-1.02,1.24,-0.07
1900-01-01 17:56:31.363,28.77,-1.56,3.97,-0.03,0.48,0.87,-0.01,-0.55,-0.85,17.08,19.34,-10.66,0.32,0.28,0.86,-0.54,1.11,-0.32
1900-01-01 17:56:31.444,28.41,-1.83,4.0,-0.03,0.47,0.87,-0.25,-0.29,-0.83,17.0,19.34,-10.72,0.32,0.28,0.87,-1.09,0.98,-0.01
1900-01-01 17:56:31.491,28.83,-1.47,4.03,-0.03,0.48,0.88,-0.59,-0.5,-0.78,17.22,19.48,-10.73,0.32,0.29,0.87,-1.06,1.44,0.05
1900-01-01 17:56:31.579,28.78,-1.81,4.07,-0.03,0.48,0.87,-0.63,-0.33,-0.85,17.13,19.02,-10.73,0.31,0.28,0.87,-1.27,1.04,-0.05
1900-01-01 17:56:31.712,28.83,-1.43,4.1,-0.02,0.48,0.88,-0.39,-0.49,-0.94,17.15,19.54,-10.75,0.33,0.29,0.87,-1.27,1.61,-0.03
1900-01-01 17:56:31.712,28.86,-1.68,4.12,-0.03,0.48,0.87,-0.55,-0.47,-0.83,17.15,19.27,-10.76,0.32,0.28,0.86,-1.12,1.69,-0.25
1900-01-01 17:56:31.838,28.66,-1.54,4.15,-0.03,0.48,0.88,-0.52,-0.4,-0.92,17.24,19.14,-10.81,0.32,0.29,0.87,-1.28,1.39,0.05
1900-01-01 17:56:31.881,28.9,-1.56,4.17,-0.03,0.48,0.87,-0.43,-0.47,-0.76,17.21,19.07,-10.81,0.32,0.29,0.87,-0.96,1.49,-0.11
1900-01-01 17:56:31.978,28.58,-1.57,4.21,-0.03,0.48,0.87,-0.63,-0.14,-0.89,17.11,19.12,-10.83,0.32,0.29,0.87,-1.34,1.02,-0.03
1900-01-01 17:56:32.096,28.92,-1.37,4.23,-0.02,0.48,0.88,-0.53,-0.56,-0.85,17.44,19.37,-10.85,0.32,0.29,0.86,-1.2,1.51,-0.03
1900-01-01 17:56:32.096,28.69,-1.69,4.26,-0.03,0.48,0.87,-0.62,-0.08,-0.76,16.94,19.2,-10.86,0.32,0.28,0.87,-1.18,1.3,-0.02
1900-01-01 17:56:32.221,29.01,-1.31,4.3,-0.02,0.49,0.88,-0.19,-0.67,-0.8,17.58,19.39,-10.87,0.32,0.29,0.87,-0.9,1.53,-0.13
1900-01-01 17:56:32.381,28.67,-1.99,4.34,-0.03,0.48,0.87,-0.48,-0.15,-0.78,16.96,19.27,-10.9,0.32,0.28,0.86,-1.21,1.17,0.04
1900-01-01 17:56:32.381,29.07,-1.25,4.38,-0.02,0.49,0.87,-0.53,-0.58,-0.78,17.46,19.62,-10.9,0.33,0.29,0.87,-1.36,1.41,0.22
1900-01-01 17:56:32.420,29.07,-1.84,4.42,-0.03,0.48,0.86,-0.35,-0.21,-0.72,17.28,18.96,-10.88,0.31,0.29,0.86,-1.05,0.49,-0.17
1900-01-01 17:56:32.482,29.0,-1.33,4.47,-0.02,0.49,0.88,-0.25,-0.56,-0.91,17.57,19.35,-10.91,0.32,0.29,0.87,-1.31,1.18,0.08
1900-01-01 17:56:32.713,28.95,-1.74,4.49,-0.03,0.48,0.87,-0.52,-0.15,-0.79,17.18,18.88,-10.91,0.31,0.28,0.86,-1.18,0.94,0.02
1900-01-01 17:56:32.713,29.08,-1.37,4.53,-0.02,0.49,0.87,-0.46,-0.28,-0.83,17.54,19.57,-10.92,0.33,0.29,0.87,-1.3,1.56,0.2
1900-01-01 17:56:32.713,29.34,-1.75,4.56,-0.03,0.49,0.86,-0.58,-0.27,-0.74,17.54,18.74,-10.89,0.31,0.29,0.86,-1.04,0.84,-0.05
1900-01-01 17:56:32.867,28.97,-1.43,4.6,-0.03,0.49,0.88,-0.74,-0.15,-0.96,17.29,19.53,-10.91,0.33,0.29,0.87,-1.49,1.39,0.05
1900-01-01 17:56:32.867,29.1,-1.54,4.61,-0.03,0.48,0.87,-0.79,-0.21,-0.79,17.4,19.08,-10.91,0.31,0.29,0.86,-1.49,0.89,0.08
1900-01-01 17:56:33.201,28.83,-1.58,4.65,-0.03,0.48,0.87,-0.61,-0.02,-0.93,17.23,19.5,-10.91,0.33,0.29,0.87,-1.54,1.23,0.12
1900-01-01 17:56:33.201,29.13,-1.41,4.67,-0.02,0.48,0.87,-0.75,-0.1,-0.89,17.5,18.97,-10.9,0.31,0.29,0.86,-1.4,1.13,0.06
1900-01-01 17:56:33.201,28.69,-1.63,4.69,-0.03,0.48,0.88,-0.86,0.11,-0.95,17.08,19.32,-10.89,0.32,0.29,0.87,-1.65,1.56,0.13
1900-01-01 17:56:33.201,29.06,-1.44,4.71,-0.02,0.48,0.87,-0.83,-0.09,-0.8,17.3,19.06,-10.88,0.31,0.29,0.86,-1.44,1.18,0.05
1900-01-01 17:56:33.261,28.67,-1.92,4.74,-0.03,0.48,0.88,-0.85,0.25,-0.91,16.88,19.24,-10.88,0.32,0.28,0.88,-1.49,1.35,0.07
1900-01-01 17:56:33.383,28.93,-1.66,4.76,-0.03,0.48,0.87,-0.9,-0.22,-0.79,17.27,19.08,-10.88,0.32,0.29,0.86,-1.41,1.47,0.08
1900-01-01 17:56:33.484,28.54,-2.01,4.8,-0.03,0.48,0.87,-0.76,0.13,-0.83,16.81,19.21,-10.88,0.32,0.28,0.87,-1.56,1.37,0.1
1900-01-01 17:56:33.484,28.84,-1.57,4.83,-0.03,0.48,0.87,-0.66,-0.14,-0.73,17.26,19.21,-10.87,0.32,0.29,0.87,-1.44,1.46,0.24
1900-01-01 17:56:33.605,28.74,-2.05,4.88,-0.04,0.48,0.87,-0.89,0.06,-0.85,17.03,19.08,-10.84,0.32,0.28,0.87,-1.55,1.45,0.18
1900-01-01 17:56:33.718,28.83,-1.54,4.91,-0.03,0.48,0.87,-0.41,-0.36,-0.79,17.25,19.33,-10.82,0.32,0.29,0.87,-1.19,1.28,0.02
1900-01-01 17:56:33.718,28.62,-2.17,4.95,-0.04,0.47,0.87,-0.49,0.1,-0.75,16.81,19.12,-10.83,0.32,0.28,0.87,-1.17,1.09,-0.01
1900-01-01 17:56:33.843,28.71,-1.76,4.99,-0.03,0.48,0.88,-0.56,-0.15,-0.8,17.03,19.48,-10.84,0.32,0.28,0.87,-1.4,1.5,0.22
1900-01-01 17:56:33.963,28.88,-2.09,5.03,-0.04,0.48,0.87,-0.62,-0.22,-0.8,17.12,18.9,-10.81,0.31,0.28,0.86,-1.28,1.06,0.04
1900-01-01 17:56:33.963,28.84,-1.86,5.06,-0.03,0.48,0.88,-0.34,-0.48,-0.92,17.28,19.2,-10.82,0.32,0.29,0.87,-1.13,1.03,-0.1
1900-01-01 17:56:34.006,28.68,-1.93,5.08,-0.03,0.48,0.87,-0.37,-0.53,-0.91,16.98,19.08,-10.84,0.32,0.28,0.87,-1.18,1.44,-0.14
1900-01-01 17:56:34.079,28.7,-1.74,5.1,-0.03,0.48,0.88,-0.46,-0.47,-0.92,17.15,19.34,-10.87,0.32,0.29,0.87,-1.39,1.16,0.06
1900-01-01 17:56:34.206,28.72,-1.83,5.12,-0.03,0.48,0.87,-0.64,-0.27,-0.85,16.95,19.15,-10.87,0.32,0.28,0.87,-1.24,1.1,-0.01
1900-01-01 17:56:34.239,28.79,-1.76,5.15,-0.03,0.48,0.88,-0.57,-0.4,-0.94,17.05,19.43,-10.88,0.32,0.28,0.87,-1.37,1.21,0.04
1900-01-01 17:56:34.316,28.83,-1.75,5.16,-0.03,0.48,0.87,-0.44,-0.4,-0.83,17.17,19.18,-10.88,0.32,0.28,0.87,-1.09,1.66,-0.21
1900-01-01 17:56:34.451,28.77,-1.88,5.2,-0.03,0.48,0.88,-0.44,-0.48,-0.84,16.95,19.21,-10.92,0.32,0.28,0.87,-1.19,1.02,-0.08
1900-01-01 17:56:34.484,28.71,-1.79,5.23,-0.03,0.48,0.88,-0.54,-0.32,-0.89,17.09,19.13,-10.94,0.32,0.28,0.87,-1.32,1.57,0.03
1900-01-01 17:56:34.580,28.76,-1.88,5.25,-0.03,0.48,0.87,-0.39,-0.4,-0.83,16.99,19.12,-10.95,0.32,0.28,0.87,-1.52,1.39,0.12
1900-01-01 17:56:34.703,29.29,-1.68,5.28,-0.03,0.49,0.87,-0.12,-0.6,-0.89,17.34,19.0,-10.94,0.31,0.29,0.87,-1.0,1.4,-0.27
1900-01-01 17:56:34.703,28.79,-1.56,5.3,-0.03,0.48,0.87,0.04,-0.36,-0.89,17.05,19.11,-10.99,0.32,0.28,0.86,-0.99,1.39,-0.21
1900-01-01 17:56:34.823,29.23,-1.63,5.33,-0.03,0.49,0.87,-0.15,-0.25,-0.74,17.26,19.08,-11.03,0.32,0.29,0.86,-0.79,1.06,-0.06
1900-01-01 17:56:34.949,28.94,-1.99,5.37,-0.03,0.48,0.87,-0.37,-0.31,-0.89,17.2,19.05,-11.05,0.32,0.29,0.87,-1.08,0.73,-0.08
1900-01-01 17:56:34.949,29.15,-1.66,5.39,-0.03,0.49,0.87,-0.44,-0.37,-0.94,17.36,19.2,-11.07,0.32,0.29,0.87,-1.22,1.52,-0.11
1900-01-01 17:56:35.050,29.02,-1.86,5.41,-0.03,0.48,0.87,-0.36,-0.58,-0.91,17.18,19.01,-11.09,0.32,0.29,0.87,-1.15,1.53,-0.15
1900-01-01 17:56:35.086,29.17,-1.72,5.43,-0.03,0.49,0.87,-0.59,-0.39,-0.94,17.28,19.04,-11.12,0.32,0.29,0.87,-1.37,1.11,-0.04
1900-01-01 17:56:35.184,29.09,-1.62,5.44,-0.03,0.48,0.87,-0.56,-0.42,-0.85,17.31,19.14,-11.14,0.32,0.29,0.86,-1.31,1.53,0.0
1900-01-01 17:56:35.536,29.15,-1.58,5.47,-0.03,0.48,0.87,-0.6,-0.48,-0.73,17.24,18.91,-11.14,0.31,0.29,0.87,-1.08,1.05,0.02
1900-01-01 17:56:35.536,29.39,-1.46,5.52,-0.03,0.49,0.87,-0.89,-0.16,-0.9,17.64,18.93,-11.15,0.31,0.29,0.87,-1.39,0.56,0.05
1900-01-01 17:56:35.536,29.1,-1.72,5.54,-0.03,0.49,0.87,-0.31,-0.61,-0.92,17.37,19.07,-11.15,0.32,0.29,0.87,-0.93,1.37,-0.31
1900-01-01 17:56:35.536,29.0,-1.67,5.56,-0.03,0.48,0.87,-0.54,0.01,-0.83,17.21,18.93,-11.21,0.31,0.29,0.87,-1.14,1.17,-0.04
1900-01-01 17:56:35.536,29.12,-1.76,5.59,-0.03,0.49,0.87,-0.38,-0.53,-0.87,17.4,18.97,-11.22,0.31,0.29,0.87,-1.39,1.8,0.04
1900-01-01 17:56:35.662,29.49,-1.57,5.62,-0.03,0.49,0.87,-0.47,-0.42,-0.96,17.59,18.84,-11.22,0.31,0.29,0.86,-1.42,1.63,-0.01
1900-01-01 17:56:35.701,29.26,-1.56,5.63,-0.03,0.49,0.87,-0.54,-0.41,-0.95,17.27,18.95,-11.23,0.31,0.29,0.87,-1.33,1.35,-0.06
1900-01-01 17:56:35.777,29.22,-1.47,5.64,-0.03,0.48,0.87,-0.21,-0.56,-0.88,17.46,19.07,-11.25,0.31,0.29,0.86,-1.05,1.02,-0.11
1900-01-01 17:56:35.929,29.2,-1.67,5.66,-0.03,0.49,0.87,-0.78,-0.2,-0.77,17.3,18.88,-11.28,0.31,0.29,0.87,-1.14,1.03,0.08
1900-01-01 17:56:35.929,29.33,-1.43,5.71,-0.02,0.49,0.87,-0.58,-0.31,-0.89,17.54,19.11,-11.27,0.32,0.29,0.87,-1.16,1.16,-0.05
1900-01-01 17:56:36.051,29.27,-1.62,5.73,-0.03,0.49,0.87,-0.43,-0.5,-0.8,17.41,19.02,-11.29,0.31,0.29,0.87,-1.0,1.37,-0.06
1900-01-01 17:56:36.167,29.32,-1.57,5.76,-0.03,0.49,0.87,-0.37,-0.7,-0.83,17.49,18.98,-11.31,0.32,0.29,0.87,-1.08,1.4,-0.04
1900-01-01 17:56:36.167,29.38,-1.64,5.8,-0.03,0.49,0.87,-0.54,-0.63,-0.95,17.52,18.88,-11.32,0.31,0.29,0.87,-0.89,1.38,-0.24
1900-01-01 17:56:36.270,29.33,-1.31,5.81,-0.02,0.49,0.87,-0.44,-0.66,-0.92,17.61,19.12,-11.36,0.32,0.29,0.86,-1.26,1.28,-0.13
1900-01-01 17:56:36.306,29.46,-1.45,5.83,-0.03,0.49,0.86,-0.35,-0.46,-0.77,17.54,19.02,-11.39,0.31,0.29,0.87,-1.03,1.53,-0.05
1900-01-01 17:56:36.401,29.34,-1.25,5.87,-0.02,0.49,0.87,-0.51,-0.66,-0.82,17.6,19.08,-11.41,0.32,0.29,0.87,-0.99,1.28,-0.14
1900-01-01 17:56:36.502,29.52,-1.56,5.9,-0.03,0.49,0.86,-0.61,-0.37,-0.76,17.58,18.78,-11.44,0.31,0.29,0.87,-1.05,1.07,-0.07
1900-01-01 17:56:36.541,29.39,-1.17,5.94,-0.02,0.49,0.87,-0.41,-0.54,-0.85,17.65,19.24,-11.46,0.32,0.29,0.87,-1.2,1.6,-0.04
1900-01-01 17:56:36.644,29.48,-1.33,5.97,-0.02,0.49,0.86,-0.85,-0.22,-0.71,17.61,18.75,-11.47,0.31,0.29,0.86,-1.4,1.21,0.18
1900-01-01 17:56:36.755,29.52,-1.17,6.02,-0.02,0.49,0.87,-0.55,-0.3,-0.83,17.94,19.13,-11.45,0.32,0.3,0.87,-1.31,1.14,0.09
1900-01-01 17:56:36.755,29.52,-1.4,6.05,-0.02,0.49,0.86,-0.63,-0.01,-0.76,17.77,18.9,-11.45,0.31,0.29,0.86,-1.2,1.16,0.08
1900-01-01 17:56:36.881,29.19,-1.2,6.1,-0.02,0.49,0.88,-0.69,0.12,-0.76,17.53,19.44,-11.44,0.32,0.29,0.87,-1.31,1.36,0.24
1900-01-01 17:56:36.923,29.41,-1.33,6.14,-0.02,0.49,0.86,-1.16,0.27,-0.6,17.6,18.99,-11.42,0.31,0.29,0.86,-1.66,1.05,0.46
1900-01-01 17:56:37.713,29.18,-1.58,6.21,-0.03,0.49,0.87,-1.2,0.44,-0.71,17.41,19.27,-11.35,0.32,0.29,0.87,-1.82,1.21,0.39
1900-01-01 17:56:37.713,29.42,-1.58,6.26,-0.03,0.49,0.87,-1.1,0.18,-0.69,17.63,19.07,-11.3,0.31,0.29,0.86,-1.63,1.52,0.22
1900-01-01 17:56:37.713,28.97,-1.74,6.31,-0.03,0.48,0.87,-1.23,0.5,-0.81,17.09,19.25,-11.28,0.32,0.28,0.87,-1.81,1.57,0.28
1900-01-01 17:56:37.713,29.25,-1.4,6.35,-0.02,0.49,0.87,-1.31,0.52,-0.73,17.41,19.1,-11.24,0.32,0.29,0.86,-1.92,1.68,0.46
1900-01-01 17:56:37.713,28.75,-1.93,6.39,-0.03,0.48,0.87,-1.64,0.68,-0.74,16.96,19.1,-11.18,0.32,0.28,0.87,-2.37,1.14,0.66
1900-01-01 17:56:37.713,29.15,-1.69,6.44,-0.03,0.48,0.87,-0.95,0.05,-0.56,17.33,19.21,-11.09,0.32,0.29,0.86,-1.47,1.13,0.41
1900-01-01 17:56:37.713,29.21,-2.08,6.51,-0.04,0.49,0.87,-0.56,-0.12,-0.8,17.3,18.88,-11.04,0.31,0.29,0.87,-0.76,0.58,-0.4
1900-01-01 17:56:37.713,29.07,-2.29,6.55,-0.04,0.49,0.87,0.71,-1.04,-1.11,17.23,18.84,-11.11,0.31,0.29,0.87,-0.5,0.97,-0.78
1900-01-01 17:56:37.713,28.58,-2.19,6.54,-0.04,0.48,0.88,1.79,-1.24,-1.09,16.87,18.97,-11.23,0.32,0.28,0.88,-0.31,2.14,-0.76
1900-01-01 17:56:37.713,29.05,-1.18,6.53,-0.02,0.48,0.86,0.51,-1.14,-0.77,17.62,19.21,-11.36,0.31,0.29,0.85,-1.28,1.72,0.33
1900-01-01 17:56:37.819,30.57,-0.78,6.57,-0.01,0.5,0.85,0.12,-0.08,-0.44,18.57,19.18,-11.32,0.32,0.31,0.85,-0.41,0.14,-0.1
1900-01-01 17:56:37.819,29.12,-2.59,6.66,-0.05,0.5,0.89,-1.26,0.23,-1.08,16.64,18.68,-11.34,0.31,0.28,0.89,-1.3,1.69,-0.6
1900-01-01 17:56:37.944,28.87,-1.92,6.66,-0.03,0.48,0.87,-1.92,-0.81,-1.81,17.26,19.04,-11.44,0.31,0.28,0.86,-3.78,1.96,0.56
1900-01-01 17:56:37.976,30.21,-1.01,6.54,-0.02,0.5,0.85,-1.34,-0.69,-1.46,18.17,19.15,-11.36,0.31,0.3,0.86,-1.69,0.49,-0.24
1900-01-01 17:56:40.348,29.01,-1.74,6.47,-0.03,0.48,0.86,-0.17,-0.21,-1.01,17.23,19.04,-11.41,0.31,0.28,0.86,-0.35,0.37,-0.58
1900-01-01 17:56:40.348,28.59,-2.08,6.48,-0.04,0.48,0.88,-0.35,-0.44,-0.65,16.78,19.04,-11.5,0.32,0.28,0.88,-0.76,1.34,0.08
1900-01-01 17:56:40.348,29.27,-1.84,6.54,-0.03,0.49,0.87,0.19,-0.66,-0.47,17.72,18.91,-11.5,0.31,0.29,0.86,-1.1,0.47,0.34
1900-01-01 17:56:40.348,29.42,-1.59,6.63,-0.03,0.49,0.87,0.45,-0.55,-0.31,17.49,19.34,-11.46,0.32,0.29,0.86,-0.31,1.12,0.02
1900-01-01 17:56:40.348,29.56,-1.36,6.74,-0.02,0.49,0.86,0.2,-0.47,-0.44,17.7,19.25,-11.46,0.32,0.29,0.86,-0.31,1.24,-0.04
1900-01-01 17:56:40.348,29.35,-1.74,6.83,-0.03,0.49,0.87,-0.4,-0.51,-0.69,17.49,19.26,-11.48,0.32,0.29,0.87,-1.37,0.31,0.07
1900-01-01 17:56:40.348,29.67,-1.63,6.88,-0.03,0.49,0.87,-0.88,-0.92,-0.92,17.86,19.27,-11.48,0.32,0.3,0.86,-1.74,1.04,0.18
1900-01-01 17:56:40.348,29.55,-1.31,6.9,-0.02,0.49,0.87,-0.56,-0.8,-0.92,17.49,19.42,-11.46,0.32,0.29,0.87,-1.15,2.27,-0.13
1900-01-01 17:56:40.348,29.57,-1.34,6.92,-0.02,0.49,0.86,-0.89,-0.47,-1.03,17.52,19.06,-11.49,0.32,0.29,0.86,-1.45,2.12,0.02
1900-01-01 17:56:40.348,29.66,-1.24,6.92,-0.02,0.49,0.86,-0.6,-0.62,-1.26,17.7,19.18,-11.49,0.32,0.29,0.86,-1.61,1.29,-0.05
1900-01-01 17:56:40.348,29.46,-1.34,6.89,-0.02,0.49,0.86,-0.31,-0.79,-1.16,17.39,19.08,-11.51,0.32,0.29,0.86,-1.31,0.89,-0.31
1900-01-01 17:56:40.348,29.45,-1.33,6.87,-0.02,0.49,0.87,-0.61,-0.75,-1.24,17.74,19.16,-11.56,0.32,0.29,0.87,-1.15,1.47,-0.09
1900-01-01 17:56:40.348,29.61,-1.23,6.84,-0.02,0.49,0.87,-0.96,-0.27,-0.98,17.71,19.05,-11.59,0.32,0.29,0.87,-1.29,1.73,0.03
1900-01-01 17:56:40.348,29.53,-1.3,6.84,-0.02,0.49,0.86,-0.77,-0.18,-0.96,17.53,19.17,-11.59,0.32,0.29,0.86,-1.26,1.79,0.05
1900-01-01 17:56:40.348,29.63,-1.38,6.86,-0.02,0.49,0.87,-0.61,-0.38,-0.85,17.74,18.97,-11.59,0.31,0.29,0.87,-1.04,1.74,-0.08
1900-01-01 17:56:40.348,29.42,-1.14,6.88,-0.02,0.49,0.86,-0.42,-0.26,-0.98,17.58,19.0,-11.61,0.31,0.29,0.87,-1.23,1.14,-0.08
1900-01-01 17:56:40.348,29.59,-1.07,6.89,-0.02,0.49,0.87,-0.53,-0.36,-0.88,17.83,19.0,-11.63,0.31,0.29,0.86,-1.2,1.09,0.01
1900-01-01 17:56:40.348,29.41,-1.47,6.92,-0.03,0.49,0.86,-0.47,-0.13,-0.79,17.49,18.91,-11.64,0.31,0.29,0.87,-1.06,1.18,-0.03
1900-01-01 17:56:40.348,29.66,-1.26,6.96,-0.02,0.5,0.87,-0.53,-0.41,-0.79,17.87,19.02,-11.65,0.32,0.3,0.87,-1.27,0.88,0.05
1900-01-01 17:56:40.348,29.4,-1.42,6.99,-0.02,0.49,0.87,-0.66,-0.14,-0.74,17.56,19.01,-11.65,0.31,0.29,0.86,-1.19,1.07,0.01
1900-01-01 17:56:40.348,29.67,-1.37,7.04,-0.02,0.5,0.87,-0.56,-0.16,-0.69,17.73,18.96,-11.66,0.32,0.3,0.87,-1.05,1.49,0.02
1900-01-01 17:56:40.348,29.2,-1.35,7.09,-0.02,0.49,0.87,-0.64,-0.07,-0.77,17.43,19.03,-11.67,0.31,0.29,0.87,-1.4,1.18,0.21
1900-01-01 17:56:40.348,29.9,-1.07,7.13,-0.02,0.5,0.86,-0.92,-0.11,-0.8,17.93,19.2,-11.64,0.32,0.3,0.87,-1.71,1.11,0.27
1900-01-01 17:56:40.348,29.66,-1.36,7.17,-0.02,0.49,0.86,-0.56,-0.05,-0.69,17.69,18.97,-11.61,0.31,0.29,0.86,-1.06,1.4,-0.06
1900-01-01 17:56:40.348,29.41,-1.44,7.22,-0.03,0.49,0.87,-0.65,0.0,-0.83,17.62,19.15,-11.63,0.32,0.29,0.87,-1.28,1.19,0.04
1900-01-01 17:56:40.348,29.58,-1.41,7.25,-0.02,0.49,0.87,-0.95,0.11,-0.83,17.82,19.04,-11.63,0.31,0.29,0.86,-1.53,1.31,0.13
1900-01-01 17:56:40.348,29.35,-1.58,7.28,-0.03,0.49,0.87,-0.89,-0.08,-0.82,17.57,18.98,-11.62,0.32,0.29,0.87,-1.63,1.4,0.23
1900-01-01 17:56:40.348,29.51,-1.59,7.32,-0.03,0.49,0.87,-0.96,0.02,-0.83,17.59,19.01,-11.59,0.32,0.29,0.87,-1.49,1.42,0.09
1900-01-01 17:56:40.348,29.29,-1.49,7.35,-0.03,0.49,0.87,-0.94,0.06,-0.93,17.5,19.13,-11.59,0.32,0.29,0.87,-1.71,1.38,0.08
1900-01-01 17:56:40.348,29.19,-1.53,7.37,-0.03,0.49,0.87,-0.75,-0.11,-0.86,17.4,19.19,-11.58,0.32,0.29,0.86,-1.4,1.5,0.11
1900-01-01 17:56:40.348,29.17,-1.7,7.39,-0.03,0.49,0.87,-1.27,0.09,-0.89,17.37,19.07,-11.57,0.32,0.29,0.87,-1.67,1.35,0.13
1900-01-01 17:56:40.480,29.12,-1.61,7.42,-0.03,0.49,0.87,-1.25,0.21,-0.85,17.3,19.11,-11.56,0.32,0.29,0.87,-1.69,1.31,0.21
1900-01-01 17:56:40.480,28.97,-1.7,7.44,-0.03,0.48,0.87,-0.91,0.09,-0.92,17.27,19.17,-11.54,0.32,0.29,0.87,-1.63,1.27,0.13
1900-01-01 17:56:40.591,29.05,-1.77,7.46,-0.03,0.48,0.87,-0.82,-0.14,-0.83,17.27,19.1,-11.53,0.32,0.29,0.87,-1.44,1.33,0.04
1900-01-01 17:56:40.649,29.01,-1.84,7.49,-0.03,0.48,0.87,-0.5,-0.18,-0.82,17.17,19.01,-11.53,0.31,0.28,0.87,-1.18,1.28,-0.04
1900-01-01 17:56:40.721,28.91,-1.75,7.53,-0.03,0.48,0.87,-0.55,-0.37,-0.76,17.12,19.07,-11.54,0.32,0.28,0.87,-1.22,1.13,0.09
1900-01-01 17:56:40.845,29.2,-1.94,7.57,-0.03,0.49,0.87,-0.53,-0.34,-0.92,17.36,18.83,-11.54,0.31,0.29,0.87,-1.24,1.04,0.01
1900-01-01 17:56:40.938,29.02,-1.67,7.59,-0.03,0.48,0.87,-0.11,-0.63,-0.87,17.29,19.16,-11.55,0.32,0.29,0.87,-1.12,1.21,-0.13
1900-01-01 17:56:40.938,28.96,-1.76,7.61,-0.03,0.48,0.87,-0.23,-0.52,-0.85,17.25,19.09,-11.57,0.32,0.29,0.87,-1.05,1.6,-0.03
1900-01-01 17:56:41.052,29.22,-1.73,7.64,-0.03,0.49,0.87,-0.58,-0.34,-0.82,17.43,18.96,-11.59,0.31,0.29,0.87,-1.27,1.04,0.05
1900-01-01 17:56:41.090,29.18,-1.59,7.68,-0.03,0.49,0.87,-0.68,-0.19,-0.83,17.4,19.18,-11.59,0.32,0.29,0.87,-1.33,0.98,-0.01
1900-01-01 17:56:41.190,29.08,-1.83,7.71,-0.03,0.48,0.87,-0.76,-0.08,-0.85,17.29,19.22,-11.6,0.32,0.29,0.87,-1.31,1.09,0.07
1900-01-01 17:56:41.287,29.21,-1.81,7.73,-0.03,0.49,0.87,-0.75,-0.31,-0.89,17.36,19.05,-11.6,0.32,0.29,0.87,-1.28,1.21,-0.05
1900-01-01 17:56:41.392,28.97,-1.98,7.76,-0.03,0.48,0.87,-0.65,-0.41,-0.92,17.09,19.06,-11.61,0.32,0.29,0.87,-1.34,0.96,-0.02
1900-01-01 17:56:41.392,29.66,-1.0,7.77,-0.02,0.49,0.86,-0.38,0.31,-0.89,17.83,19.43,-11.62,0.32,0.29,0.86,-1.05,1.06,-0.19
1900-01-01 17:56:41.491,28.96,-2.56,7.8,-0.04,0.48,0.87,0.39,-0.55,-0.75,16.95,18.68,-11.66,0.31,0.28,0.87,-0.37,1.53,-0.36
1900-01-01 17:56:41.608,30.35,-0.54,7.84,-0.01,0.51,0.87,1.19,3.26,-3.27,17.76,19.02,-11.72,0.32,0.3,0.87,-1.67,2.08,-0.16
1900-01-01 17:56:41.715,29.87,-2.44,7.5,-0.04,0.5,0.87,0.35,-1.21,-0.39,17.53,18.6,-11.76,0.31,0.29,0.87,-0.92,2.31,-0.47
1900-01-01 17:56:41.715,29.15,-1.36,7.6,-0.02,0.48,0.86,0.65,-1.36,-0.28,17.49,19.1,-11.84,0.31,0.29,0.85,-0.92,1.31,0.21
1900-01-01 17:56:41.826,30.06,-1.03,7.72,-0.02,0.49,0.85,-1.01,-0.04,-0.64,17.96,18.99,-11.81,0.31,0.3,0.86,-0.63,-0.16,0.08
1900-01-01 17:56:41.867,29.39,-2.37,7.78,-0.04,0.49,0.87,-0.31,-0.55,-0.6,17.37,18.63,-11.81,0.31,0.29,0.88,0.05,-0.31,-0.44
1900-01-01 17:56:41.947,29.27,-1.78,7.84,-0.03,0.49,0.87,-0.4,-0.49,-0.61,17.42,19.45,-11.88,0.32,0.29,0.87,-1.0,0.47,0.02
1900-01-01 17:56:42.045,29.9,-1.9,7.91,-0.03,0.5,0.87,-1.0,-0.41,-0.66,17.94,19.13,-11.89,0.32,0.3,0.87,-0.98,0.93,0.13
1900-01-01 17:56:42.073,29.65,-1.99,7.97,-0.03,0.5,0.87,-0.44,-0.49,-0.83,17.76,19.43,-11.88,0.32,0.3,0.87,-1.08,1.82,-0.11
1900-01-01 17:56:42.159,29.54,-1.92,8.0,-0.03,0.49,0.87,-0.55,-0.67,-0.85,17.83,19.22,-11.9,0.32,0.3,0.86,-1.63,1.86,0.14
1900-01-01 17:56:42.281,29.72,-1.71,8.03,-0.03,0.49,0.87,-0.77,-0.44,-0.98,17.9,19.25,-11.89,0.32,0.3,0.87,-1.61,1.61,-0.05
1900-01-01 17:56:42.373,29.68,-1.51,8.03,-0.03,0.49,0.86,-0.61,-0.32,-1.04,17.98,19.3,-11.91,0.32,0.3,0.86,-1.51,1.44,-0.1
1900-01-01 17:56:42.405,29.59,-1.7,8.03,-0.03,0.49,0.87,-0.68,-0.42,-1.03,17.82,19.24,-11.93,0.32,0.3,0.86,-1.56,1.2,-0.11
1900-01-01 17:56:42.472,29.65,-1.62,8.03,-0.03,0.49,0.86,-0.76,-0.38,-0.98,17.72,19.23,-11.96,0.32,0.29,0.86,-1.56,1.07,0.02
1900-01-01 17:56:42.607,29.54,-1.77,8.04,-0.03,0.49,0.87,-0.42,-0.36,-0.81,17.72,19.16,-11.96,0.32,0.29,0.87,-0.88,1.56,-0.22
1900-01-01 17:56:42.683,29.57,-1.71,8.08,-0.03,0.49,0.87,-0.47,-0.37,-0.82,17.67,19.11,-12.0,0.32,0.29,0.86,-1.16,1.11,0.01
1900-01-01 17:56:42.683,29.57,-1.5,8.11,-0.03,0.49,0.87,-0.6,-0.27,-0.88,17.8,19.08,-12.01,0.32,0.3,0.86,-1.42,0.85,0.18
1900-01-01 17:56:42.921,29.8,-1.66,8.14,-0.03,0.49,0.86,-0.55,-0.18,-0.76,18.0,19.35,-11.99,0.32,0.3,0.86,-1.24,0.93,-0.02
1900-01-01 17:56:42.921,30.27,-1.97,8.18,-0.03,0.5,0.86,-0.23,-0.33,-0.79,17.95,18.99,-12.0,0.32,0.3,0.87,-0.22,1.31,-0.71
1900-01-01 17:56:42.921,29.13,-2.22,8.22,-0.04,0.49,0.88,2.32,-1.5,-0.73,17.23,18.96,-12.12,0.31,0.29,0.87,-0.37,1.98,-0.41
1900-01-01 17:56:43.029,29.73,-0.8,8.26,-0.01,0.49,0.87,-1.39,-0.03,-0.59,18.13,19.33,-12.19,0.32,0.3,0.86,-2.68,2.09,0.88
1900-01-01 17:56:43.083,30.56,-1.53,8.33,-0.03,0.5,0.85,-2.26,0.53,-0.82,18.25,18.89,-12.07,0.31,0.3,0.86,-2.86,1.12,0.71
1900-01-01 17:56:43.176,30.65,-1.9,8.37,-0.03,0.51,0.85,-0.37,-0.46,-1.39,18.06,18.84,-11.97,0.31,0.3,0.87,-0.86,1.18,-0.64
1900-01-01 17:56:43.229,29.14,-1.35,8.31,-0.02,0.49,0.87,0.19,-0.94,-1.44,17.43,19.47,-12.07,0.32,0.29,0.86,-0.48,3.39,-0.73
1900-01-01 17:56:43.355,29.15,-1.46,8.25,-0.03,0.48,0.86,-2.26,0.1,-0.89,17.64,19.1,-12.19,0.31,0.29,0.86,-2.13,0.76,0.49
1900-01-01 17:56:43.383,30.2,-1.59,8.27,-0.03,0.5,0.86,-1.73,-0.03,-0.89,17.99,19.1,-12.13,0.32,0.3,0.86,-1.53,-0.4,0.02
1900-01-01 17:56:43.456,29.27,-2.02,8.3,-0.04,0.49,0.87,-0.82,-0.36,-1.09,17.52,19.18,-12.13,0.32,0.29,0.86,-0.87,0.88,-0.34
1900-01-01 17:56:43.567,29.08,-1.83,8.29,-0.03,0.49,0.88,-1.44,-0.4,-1.19,17.71,19.24,-12.19,0.32,0.3,0.87,-1.75,1.51,0.07
1900-01-01 17:56:43.599,29.09,-2.1,8.27,-0.04,0.49,0.87,-1.42,-0.53,-1.14,17.49,19.06,-12.19,0.32,0.29,0.87,-1.89,1.02,0.15
1900-01-01 17:56:43.702,29.3,-1.57,8.25,-0.03,0.49,0.87,-1.38,-0.79,-1.27,17.61,19.33,-12.18,0.32,0.29,0.86,-2.2,1.45,0.0
1900-01-01 17:56:43.796,28.83,-1.93,8.22,-0.03,0.49,0.88,-1.5,-0.63,-1.66,17.15,19.19,-12.19,0.32,0.29,0.87,-0.93,2.84,-0.4
1900-01-01 17:56:43.890,28.74,-1.5,8.12,-0.03,0.48,0.87,-2.69,0.28,-2.05,17.37,19.26,-12.26,0.32,0.29,0.86,-3.29,2.19,-0.15
1900-01-01 17:56:43.923,28.94,-1.68,7.97,-0.03,0.48,0.86,-2.73,0.36,-2.24,17.41,18.93,-12.29,0.31,0.29,0.86,-3.36,0.87,-0.53
1900-01-01 17:56:44.110,28.31,-1.88,7.78,-0.03,0.47,0.87,-1.01,-0.17,-2.14,17.1,19.12,-12.38,0.32,0.28,0.87,-1.92,0.69,-1.13
1900-01-01 17:56:44.110,27.54,-2.26,7.62,-0.04,0.46,0.88,-0.09,-0.19,-1.37,16.39,19.14,-12.56,0.32,0.27,0.87,-0.66,1.12,-0.73
1900-01-01 17:56:44.158,27.28,-2.24,7.56,-0.04,0.46,0.89,-0.92,0.11,-0.61,16.43,19.08,-12.68,0.32,0.27,0.87,-1.62,0.96,0.55
1900-01-01 17:56:44.322,28.22,-2.01,7.63,-0.03,0.47,0.87,-1.2,0.28,-0.14,17.09,19.31,-12.6,0.32,0.28,0.86,-1.53,0.47,0.85
1900-01-01 17:56:44.322,29.36,-2.79,7.77,-0.05,0.49,0.87,0.86,2.0,-3.35,17.63,19.68,-12.48,0.32,0.29,0.86,-2.05,-1.12,-0.37
1900-01-01 17:56:44.392,30.04,-3.03,7.41,-0.05,0.49,0.85,1.84,4.13,-5.27,18.36,19.0,-12.54,0.32,0.31,0.87,1.57,-1.02,-2.27
1900-01-01 17:56:44.439,26.74,-5.12,6.77,-0.09,0.45,0.89,3.51,-1.37,-1.44,16.04,19.45,-12.9,0.32,0.27,0.88,2.68,0.47,-1.8
1900-01-01 17:56:44.540,27.75,-3.42,6.71,-0.06,0.47,0.9,-0.91,-1.07,0.56,17.54,19.97,-13.18,0.33,0.29,0.87,-1.65,1.47,1.31
1900-01-01 17:56:44.629,29.4,-3.16,6.95,-0.05,0.49,0.86,-2.75,-0.09,-0.1,18.21,19.65,-12.99,0.32,0.3,0.85,-3.44,0.69,1.77
1900-01-01 17:56:44.675,29.72,-3.18,7.1,-0.05,0.49,0.86,-0.53,-0.52,-0.43,18.13,19.88,-12.73,0.33,0.3,0.86,-1.01,0.72,0.03
1900-01-01 17:56:44.767,28.91,-3.02,7.19,-0.05,0.48,0.86,0.53,-0.92,-0.69,17.91,19.88,-12.73,0.33,0.3,0.85,0.05,1.29,-0.66
1900-01-01 17:56:44.851,28.15,-3.37,7.24,-0.06,0.47,0.88,-0.36,-1.2,-0.4,17.33,20.05,-12.84,0.33,0.29,0.87,-1.09,1.05,0.14
1900-01-01 17:56:44.950,28.88,-2.77,7.34,-0.05,0.48,0.87,-0.18,-1.49,0.44,17.95,20.13,-12.83,0.33,0.3,0.85,-1.0,0.55,0.54
1900-01-01 17:56:44.983,29.38,-2.62,7.56,-0.05,0.49,0.87,-0.11,-0.82,-0.18,18.11,20.32,-12.76,0.34,0.3,0.86,-0.98,0.69,0.27
1900-01-01 17:56:45.047,29.36,-2.85,7.69,-0.05,0.49,0.87,0.24,-0.08,-0.89,18.02,20.01,-12.72,0.33,0.3,0.86,-0.17,2.12,-0.56
1900-01-01 17:56:45.142,28.84,-2.57,7.72,-0.04,0.48,0.87,-0.5,-0.45,-0.94,17.71,20.16,-12.82,0.33,0.29,0.86,-1.69,1.73,0.17
1900-01-01 17:56:45.236,29.53,-2.59,7.73,-0.04,0.49,0.86,-0.67,-0.65,-0.79,18.01,19.94,-12.8,0.33,0.3,0.86,-1.8,1.15,0.18
1900-01-01 17:56:45.289,29.28,-2.34,7.77,-0.04,0.49,0.87,-0.15,-0.47,-1.09,18.0,20.2,-12.78,0.33,0.3,0.86,-1.17,1.07,-0.21
1900-01-01 17:56:45.383,29.13,-2.57,7.76,-0.04,0.48,0.87,-0.38,0.02,-1.09,17.73,20.05,-12.82,0.33,0.29,0.86,-1.04,1.51,-0.17
1900-01-01 17:56:45.469,29.35,-2.72,7.75,-0.05,0.49,0.86,-0.89,-0.15,-0.99,18.02,19.99,-12.86,0.33,0.3,0.86,-1.34,1.96,-0.21
1900-01-01 17:56:45.608,29.36,-2.84,7.76,-0.05,0.49,0.87,-0.35,-0.59,-0.75,17.86,19.69,-12.9,0.33,0.3,0.86,-0.88,0.47,0.73
1900-01-01 17:56:45.608,29.23,-2.66,7.81,-0.05,0.48,0.87,-0.45,-0.66,-0.53,17.81,20.07,-12.8,0.33,0.29,0.86,-0.99,0.79,0.14
1900-01-01 17:56:45.811,29.37,-2.5,7.88,-0.04,0.49,0.87,-0.37,-0.3,-0.81,18.09,19.84,-12.78,0.33,0.3,0.86,-0.84,1.07,0.22
1900-01-01 17:56:45.845,29.08,-2.51,7.92,-0.04,0.48,0.87,-0.23,-0.39,-0.81,17.9,19.98,-12.76,0.33,0.3,0.86,-1.03,2.78,0.04
1900-01-01 17:56:45.845,29.51,-2.4,7.95,-0.04,0.49,0.87,-0.5,-0.5,-0.76,18.15,19.95,-12.76,0.33,0.3,0.86,-1.44,0.71,0.1
1900-01-01 17:56:46.046,29.52,-2.45,8.0,-0.04,0.49,0.86,0.07,-0.59,-0.69,18.01,20.15,-12.75,0.33,0.3,0.85,-0.82,0.41,-0.29
1900-01-01 17:56:46.046,29.5,-2.35,8.05,-0.04,0.49,0.87,-0.17,-0.56,-0.79,18.02,20.22,-12.81,0.34,0.3,0.86,-0.71,1.79,-0.14
1900-01-01 17:56:46.130,29.48,-2.33,8.09,-0.04,0.49,0.86,-0.53,-0.33,-0.64,18.13,19.98,-12.84,0.33,0.3,0.86,-1.11,1.11,0.21
1900-01-01 17:56:46.152,29.7,-2.67,8.15,-0.05,0.5,0.87,-0.18,-0.52,-0.5,18.09,20.03,-12.81,0.33,0.3,0.86,-1.03,0.87,0.06
1900-01-01 17:56:46.244,29.64,-1.89,8.23,-0.03,0.49,0.85,-0.02,-0.58,-0.56,18.34,20.45,-12.81,0.33,0.3,0.84,-1.37,0.85,0.34
1900-01-01 17:56:46.276,30.28,-2.05,8.3,-0.04,0.5,0.86,-1.65,0.14,-0.69,18.14,20.34,-12.77,0.34,0.3,0.86,-1.47,0.55,0.15
1900-01-01 17:56:46.344,29.65,-2.88,8.36,-0.05,0.5,0.87,-0.33,-0.4,-0.72,18.19,20.0,-12.75,0.33,0.3,0.86,-0.8,0.71,-0.21
1900-01-01 17:56:46.449,29.37,-2.67,8.41,-0.05,0.49,0.88,-0.07,-0.82,-0.88,18.15,20.19,-12.8,0.34,0.3,0.86,-1.19,1.79,-0.2
1900-01-01 17:56:46.554,29.48,-1.66,8.43,-0.03,0.49,0.86,-0.73,-0.57,-0.97,18.39,20.47,-12.83,0.33,0.3,0.84,-2.02,2.06,0.29
1900-01-01 17:56:46.594,30.04,-2.06,8.44,-0.04,0.5,0.86,-0.62,-0.1,-0.73,18.42,20.14,-12.8,0.33,0.3,0.85,-0.98,0.79,0.07
1900-01-01 17:56:46.651,29.67,-2.25,8.49,-0.04,0.49,0.86,-0.27,-0.15,-0.75,18.14,20.32,-12.8,0.34,0.3,0.86,-0.4,1.02,-0.37
1900-01-01 17:56:46.787,29.42,-2.44,8.53,-0.04,0.49,0.87,-0.33,-0.47,-0.73,18.19,20.26,-12.86,0.34,0.3,0.86,-1.11,1.12,-0.03
1900-01-01 17:56:46.879,29.67,-2.44,8.58,-0.04,0.49,0.87,-0.39,-0.49,-0.82,18.18,20.31,-12.87,0.34,0.3,0.86,-1.45,1.32,0.03
1900-01-01 17:56:46.879,29.77,-1.88,8.61,-0.03,0.49,0.86,-0.74,-0.66,-0.63,18.47,20.42,-12.88,0.34,0.31,0.85,-1.27,1.54,0.02
1900-01-01 17:56:46.992,30.12,-1.78,8.68,-0.03,0.5,0.86,-0.53,-0.11,-0.79,18.55,20.25,-12.88,0.33,0.31,0.85,-0.92,1.34,-0.07
1900-01-01 17:56:47.062,29.71,-2.16,8.71,-0.04,0.49,0.87,-0.31,-0.06,-0.73,18.2,20.28,-12.9,0.34,0.3,0.86,-0.84,0.75,-0.08
1900-01-01 17:56:47.108,29.62,-2.37,8.76,-0.04,0.49,0.87,-0.53,0.15,-0.79,18.55,20.15,-12.92,0.33,0.31,0.86,-1.01,0.89,0.06
1900-01-01 17:56:47.219,29.82,-2.49,8.8,-0.04,0.5,0.87,-0.54,0.03,-0.82,18.58,20.12,-12.92,0.34,0.31,0.86,-1.26,1.44,0.11
1900-01-01 17:56:47.294,29.76,-2.15,8.83,-0.04,0.49,0.86,-0.64,-0.36,-0.82,18.36,20.2,-12.91,0.33,0.31,0.86,-1.43,1.95,-0.02
1900-01-01 17:56:47.341,29.61,-1.95,8.87,-0.03,0.49,0.86,-0.74,-0.11,-0.81,18.51,20.3,-12.93,0.33,0.31,0.85,-1.69,1.67,0.2
1900-01-01 17:56:47.446,29.82,-2.25,8.9,-0.04,0.49,0.86,-1.01,0.21,-0.76,18.37,20.16,-12.91,0.33,0.3,0.86,-1.37,1.01,0.13
1900-01-01 17:56:47.483,29.59,-2.13,8.94,-0.04,0.49,0.87,-0.77,0.26,-0.92,18.38,20.29,-12.89,0.34,0.31,0.86,-1.18,1.03,0.05
1900-01-01 17:56:47.592,29.59,-2.5,8.96,-0.04,0.49,0.87,-0.8,0.07,-0.66,18.11,20.24,-12.89,0.34,0.3,0.86,-1.15,1.16,0.06
1900-01-01 17:56:47.690,29.63,-2.5,9.02,-0.04,0.49,0.86,-0.53,0.14,-0.82,18.44,20.19,-12.89,0.33,0.31,0.85,-1.2,1.19,0.14
1900-01-01 17:56:47.776,29.47,-2.33,9.06,-0.04,0.49,0.86,-0.67,0.0,-0.68,18.3,20.39,-12.88,0.34,0.3,0.85,-1.46,1.14,0.34
1900-01-01 17:56:47.810,29.72,-2.41,9.11,-0.04,0.49,0.86,-0.6,-0.08,-0.76,18.53,20.25,-12.84,0.34,0.31,0.86,-1.29,1.18,0.14
1900-01-01 17:56:47.909,29.68,-2.5,9.15,-0.04,0.49,0.86,-0.26,-0.37,-0.77,18.37,20.42,-12.83,0.34,0.31,0.85,-0.9,1.06,-0.16
1900-01-01 17:56:48.012,29.52,-2.53,9.19,-0.04,0.49,0.87,-0.14,-0.38,-0.85,18.26,20.39,-12.86,0.34,0.3,0.86,-1.02,1.19,-0.06
1900-01-01 17:56:48.047,29.79,-2.38,9.22,-0.04,0.49,0.86,-0.4,-0.49,-0.82,18.46,20.43,-12.88,0.34,0.31,0.85,-1.22,1.2,0.05
1900-01-01 17:56:48.143,29.71,-2.37,9.26,-0.04,0.49,0.86,-0.26,-0.41,-0.8,18.52,20.38,-12.88,0.34,0.31,0.85,-0.97,1.02,-0.05
1900-01-01 17:56:48.252,29.78,-2.49,9.29,-0.04,0.5,0.86,-0.52,-0.4,-0.91,18.43,20.45,-12.89,0.34,0.31,0.86,-1.12,1.07,-0.06
1900-01-01 17:56:48.252,29.68,-2.48,9.31,-0.04,0.49,0.87,-0.55,-0.44,-0.87,18.38,20.4,-12.91,0.34,0.31,0.86,-1.27,1.41,-0.08
1900-01-01 17:56:48.346,29.66,-2.34,9.34,-0.04,0.49,0.86,-0.7,-0.34,-0.95,18.44,20.41,-12.93,0.34,0.31,0.85,-1.5,1.43,0.1
1900-01-01 17:56:48.456,30.08,-2.22,9.35,-0.04,0.5,0.86,-0.66,-0.37,-0.86,18.62,20.51,-12.92,0.34,0.31,0.85,-1.53,1.21,0.05
1900-01-01 17:56:48.546,29.73,-2.36,9.38,-0.04,0.5,0.87,-0.69,-0.02,-0.8,18.35,20.42,-12.93,0.34,0.3,0.85,-1.21,1.46,-0.04
1900-01-01 17:56:48.578,29.57,-2.47,9.41,-0.04,0.49,0.87,-1.14,0.56,-0.76,18.23,20.22,-12.94,0.34,0.3,0.86,-1.55,1.82,0.2
1900-01-01 17:56:48.659,29.41,-2.49,9.46,-0.04,0.49,0.86,-1.34,0.51,-0.84,18.25,20.41,-12.92,0.34,0.3,0.86,-2.11,1.47,0.63
1900-01-01 17:56:48.768,29.92,-2.43,9.49,-0.04,0.49,0.86,-1.1,0.27,-0.66,18.41,20.51,-12.83,0.34,0.31,0.85,-1.48,1.02,0.44
1900-01-01 17:56:48.870,29.54,-3.52,9.55,-0.06,0.49,0.87,0.28,-0.12,-0.56,18.06,19.89,-12.77,0.33,0.3,0.87,-0.23,2.03,-0.53
1900-01-01 17:56:48.870,27.77,-3.13,9.62,-0.05,0.45,0.86,2.4,-1.18,0.16,16.9,20.72,-12.86,0.34,0.28,0.85,0.53,3.49,0.44
1900-01-01 17:56:48.970,31.41,1.66,9.8,0.03,0.51,0.83,-4.53,2.73,0.45,20.17,22.19,-12.8,0.35,0.32,0.8,-3.21,-2.49,2.4
1900-01-01 17:56:49.026,29.03,-6.82,10.03,-0.12,0.5,0.89,-3.44,1.23,0.21,16.08,17.93,-12.45,0.31,0.28,0.92,-1.81,0.07,0.76
1900-01-01 17:56:49.187,30.07,-4.01,10.22,-0.07,0.51,0.87,2.79,-4.22,-1.56,18.68,19.91,-12.34,0.34,0.32,0.87,-0.88,1.93,-0.59
1900-01-01 17:56:49.187,29.32,1.31,10.14,0.02,0.47,0.84,3.8,-1.69,-0.01,18.63,23.12,-12.44,0.36,0.29,0.8,1.54,2.99,-0.94
1900-01-01 17:56:49.282,29.28,-2.38,10.3,-0.04,0.5,0.88,-5.02,2.03,-0.8,18.07,20.28,-12.59,0.34,0.3,0.87,-3.54,0.78,1.36
1900-01-01 17:56:49.383,29.43,-4.89,10.33,-0.09,0.5,0.88,-2.73,-0.02,-1.1,17.13,19.52,-12.39,0.33,0.29,0.89,-3.6,1.55,0.86
1900-01-01 17:56:49.415,30.63,-1.99,10.32,-0.03,0.5,0.84,1.79,-3.27,-1.47,18.78,20.93,-12.27,0.34,0.31,0.84,-1.21,1.56,-0.69
1900-01-01 17:56:49.490,30.06,-0.34,10.26,-0.01,0.49,0.86,0.15,-0.02,-1.25,18.06,21.22,-12.38,0.35,0.3,0.84,0.34,1.61,-1.54
1900-01-01 17:56:49.627,28.11,-3.9,10.22,-0.07,0.48,0.89,-1.8,0.18,-1.24,16.7,19.14,-12.63,0.32,0.28,0.89,-2.11,1.75,0.1
1900-01-01 17:56:49.627,29.5,-2.25,10.19,-0.04,0.49,0.87,-0.64,-1.23,-1.08,18.12,20.29,-12.62,0.34,0.3,0.86,-2.76,1.89,0.62
1900-01-01 17:56:49.717,30.36,-0.57,10.19,-0.01,0.49,0.83,-0.18,-0.5,-0.88,18.73,20.77,-12.54,0.33,0.3,0.83,-0.67,0.71,-0.32
1900-01-01 17:56:49.816,29.39,-2.01,10.21,-0.04,0.49,0.87,-0.53,0.17,-1.02,17.71,20.56,-12.59,0.34,0.3,0.87,-0.14,0.56,-0.58
1900-01-01 17:56:49.917,28.98,-4.03,10.21,-0.07,0.5,0.89,-0.47,-0.11,-0.85,17.07,19.38,-12.69,0.33,0.29,0.89,-1.24,2.34,-0.21
1900-01-01 17:56:49.961,29.1,-1.33,10.24,-0.02,0.47,0.85,0.19,-1.7,-0.82,17.84,20.98,-12.73,0.34,0.29,0.83,-2.29,1.31,0.82
1900-01-01 17:56:50.015,30.91,-0.81,10.27,-0.01,0.51,0.85,-2.05,0.97,-0.78,18.71,20.42,-12.62,0.34,0.31,0.85,-0.71,0.24,-0.03
1900-01-01 17:56:50.129,28.91,-4.0,10.31,-0.07,0.49,0.88,-0.16,-0.45,-1.02,16.98,19.5,-12.63,0.33,0.29,0.88,-0.85,1.36,-0.29
1900-01-01 17:56:50.157,29.49,-1.62,10.32,-0.03,0.49,0.86,0.34,-1.07,-0.8,18.04,20.63,-12.68,0.34,0.3,0.84,-1.47,1.96,0.26
1900-01-01 17:56:50.231,29.89,-1.75,10.35,-0.03,0.49,0.86,-1.63,0.74,-0.76,18.35,20.13,-12.65,0.33,0.3,0.85,-1.48,0.56,0.44
1900-01-01 17:56:50.340,29.54,-3.18,10.39,-0.06,0.49,0.87,-0.25,-0.17,-0.53,17.61,19.72,-12.59,0.33,0.29,0.87,-0.82,1.67,-0.02
1900-01-01 17:56:50.383,29.29,-1.91,10.47,-0.03,0.49,0.87,0.6,-0.75,-0.53,17.0,21.03,-12.6,0.35,0.28,0.86,-0.98,2.18,-0.06
1900-01-01 17:56:50.476,30.19,-0.75,10.55,-0.01,0.49,0.84,-0.59,-0.12,-0.69,18.48,20.46,-12.62,0.33,0.3,0.84,-0.66,0.33,-0.18
1900-01-01 17:56:50.544,29.21,-3.76,10.6,-0.07,0.5,0.88,-0.53,-0.25,-0.92,17.57,19.62,-12.66,0.33,0.3,0.88,-1.02,0.51,-0.15
1900-01-01 17:56:50.653,29.72,-2.56,10.62,-0.04,0.5,0.87,-0.24,-1.32,-1.38,18.22,19.8,-12.69,0.33,0.3,0.86,-2.11,2.7,-0.06
1900-01-01 17:56:50.709,29.33,-1.35,10.57,-0.02,0.48,0.86,-0.34,-1.1,-1.1,17.61,20.83,-12.71,0.34,0.29,0.85,-2.26,2.21,0.09
1900-01-01 17:56:50.803,30.64,-1.05,10.56,-0.02,0.5,0.84,-1.16,0.13,-0.86,18.38,19.81,-12.7,0.32,0.3,0.84,-0.49,0.66,-0.38
1900-01-01 17:56:50.849,29.22,-2.6,10.58,-0.05,0.49,0.88,-0.75,-0.15,-0.99,17.37,20.29,-12.77,0.34,0.3,0.88,-0.64,0.47,-0.27
1900-01-01 17:56:50.943,29.45,-1.88,10.59,-0.03,0.49,0.87,-0.24,-0.75,-0.99,17.62,20.35,-12.82,0.34,0.29,0.86,-1.09,1.56,-0.3
1900-01-01 17:56:51.066,29.33,-1.84,10.6,-0.03,0.49,0.87,-0.66,-0.47,-1.02,17.88,20.27,-12.87,0.33,0.3,0.86,-1.72,1.2,0.23
1900-01-01 17:56:51.066,30.14,-2.21,10.6,-0.04,0.5,0.85,-1.11,0.05,-0.63,18.19,19.77,-12.85,0.33,0.3,0.86,-1.35,0.66,0.27
1900-01-01 17:56:51.171,29.68,-2.03,10.66,-0.04,0.49,0.87,0.02,-0.76,-0.8,17.75,20.33,-12.81,0.34,0.3,0.86,-0.88,1.11,-0.23
1900-01-01 17:56:51.259,29.67,-1.65,10.7,-0.03,0.5,0.87,-0.3,-0.5,-0.76,17.57,20.37,-12.86,0.34,0.29,0.86,-0.71,1.64,-0.37
1900-01-01 17:56:51.302,29.2,-2.76,10.74,-0.05,0.49,0.87,-0.54,0.18,-0.95,17.62,19.89,-12.92,0.33,0.29,0.86,-1.43,2.65,0.26
1900-01-01 17:56:51.378,30.6,-0.65,10.76,-0.01,0.5,0.84,-0.53,-0.7,-0.4,18.73,20.4,-12.89,0.33,0.31,0.84,-1.9,0.7,0.67
1900-01-01 17:56:51.496,30.1,-1.74,10.85,-0.03,0.5,0.85,0.0,-0.41,-0.43,18.07,20.42,-12.8,0.34,0.3,0.85,-0.13,-0.12,-0.11
1900-01-01 17:56:51.588,30.13,-1.85,10.95,-0.03,0.5,0.86,-0.32,-0.78,-0.48,18.4,20.17,-12.82,0.33,0.31,0.86,-0.38,-0.21,0.0
1900-01-01 17:56:51.615,30.07,-1.67,11.03,-0.03,0.5,0.86,-0.11,-0.25,-0.53,18.33,20.51,-12.83,0.34,0.3,0.85,-0.37,0.16,-0.25
1900-01-01 17:56:51.684,29.51,-2.74,11.11,-0.05,0.5,0.88,-0.05,-0.5,-0.69,18.07,20.08,-12.88,0.34,0.3,0.87,-1.26,1.76,0.05
1900-01-01 17:56:51.791,29.96,-1.48,11.16,-0.03,0.5,0.86,-0.55,-0.43,-0.77,18.21,20.57,-12.88,0.34,0.3,0.85,-2.01,2.5,0.27
1900-01-01 17:56:51.895,30.32,-1.16,11.2,-0.02,0.5,0.85,-0.73,0.1,-0.76,18.37,20.56,-12.84,0.34,0.3,0.85,-1.79,1.48,0.28
1900-01-01 17:56:51.927,30.22,-1.46,11.24,-0.03,0.5,0.86,-0.56,0.27,-0.6,18.21,20.52,-12.81,0.34,0.3,0.85,-0.99,1.21,0.08
1900-01-01 17:56:51.994,29.67,-2.39,11.31,-0.04,0.5,0.87,-1.23,0.37,-0.97,17.74,19.98,-12.81,0.33,0.3,0.86,-1.6,2.05,-0.05
1900-01-01 17:56:52.105,29.65,-1.54,11.32,-0.03,0.49,0.86,-1.84,0.04,-1.26,17.91,20.45,-12.82,0.34,0.3,0.85,-2.88,1.73,0.45
1900-01-01 17:56:52.160,30.25,-1.66,11.29,-0.03,0.5,0.85,-1.44,0.4,-0.9,18.24,20.28,-12.76,0.33,0.3,0.85,-1.68,0.73,0.13
1900-01-01 17:56:52.214,29.73,-2.07,11.31,-0.04,0.49,0.86,-0.77,0.33,-0.77,17.71,20.41,-12.75,0.34,0.3,0.86,-0.63,0.85,-0.24
1900-01-01 17:56:52.330,29.29,-2.38,11.35,-0.04,0.49,0.88,-0.92,0.16,-0.8,17.55,20.77,-12.8,0.35,0.29,0.86,-1.42,2.87,-0.01
1900-01-01 17:56:52.413,29.43,-2.54,11.39,-0.04,0.49,0.87,-0.86,0.06,-0.63,17.75,19.73,-12.81,0.33,0.29,0.86,-1.88,1.17,0.5
1900-01-01 17:56:52.443,29.88,-1.82,11.45,-0.03,0.49,0.85,-0.25,-0.44,-0.76,18.21,20.29,-12.74,0.33,0.3,0.85,-1.23,0.47,0.13
1900-01-01 17:56:52.540,29.84,-2.1,11.49,-0.04,0.49,0.86,0.17,-0.63,-0.51,17.93,20.55,-12.73,0.34,0.3,0.86,-0.21,0.66,-0.29
1900-01-01 17:56:52.629,29.62,-2.6,11.57,-0.05,0.5,0.87,0.19,-0.83,-0.82,17.94,19.93,-12.78,0.33,0.3,0.87,-0.66,1.42,-0.25
1900-01-01 17:56:52.828,29.47,-1.94,11.6,-0.03,0.49,0.87,0.04,-0.8,-0.78,17.86,20.55,-12.83,0.34,0.3,0.86,-1.26,0.53,-0.13
1900-01-01 17:56:52.852,29.6,-2.14,11.64,-0.04,0.49,0.86,-0.43,-0.55,-0.78,17.97,20.49,-12.85,0.34,0.3,0.86,-1.76,1.22,0.34
1900-01-01 17:56:52.852,30.38,-1.38,11.68,-0.02,0.5,0.85,-0.22,-0.31,-0.74,18.31,20.58,-12.81,0.34,0.3,0.84,-0.91,1.8,-0.03
1900-01-01 17:56:52.933,29.89,-1.98,11.73,-0.03,0.5,0.86,-0.3,-0.14,-0.73,17.93,20.3,-12.82,0.34,0.3,0.86,-1.03,0.67,0.0
1900-01-01 17:56:53.031,30.08,-2.1,11.77,-0.04,0.5,0.86,-0.41,-0.49,-0.78,18.07,20.28,-12.83,0.34,0.3,0.86,-1.24,0.88,-0.06
1900-01-01 17:56:53.080,30.02,-1.79,11.81,-0.03,0.5,0.86,-0.47,-0.18,-0.96,18.04,20.46,-12.85,0.34,0.3,0.86,-1.19,1.69,-0.12
1900-01-01 17:56:53.156,29.92,-1.94,11.82,-0.03,0.49,0.86,-0.63,0.1,-0.88,18.19,20.21,-12.88,0.33,0.3,0.85,-1.43,1.64,0.08
1900-01-01 17:56:53.255,30.18,-2.15,11.85,-0.04,0.5,0.86,-0.34,-0.37,-0.82,18.21,20.33,-12.87,0.34,0.3,0.86,-1.18,1.24,0.02
1900-01-01 17:56:53.283,30.0,-1.85,11.88,-0.03,0.5,0.86,-0.4,-0.44,-0.98,18.0,20.15,-12.88,0.33,0.3,0.86,-1.37,1.47,-0.03
1900-01-01 17:56:53.371,30.01,-1.72,11.89,-0.03,0.5,0.86,-0.67,-0.4,-0.85,18.08,20.31,-12.89,0.34,0.3,0.85,-1.26,1.43,0.03
1900-01-01 17:56:53.466,30.18,-2.01,11.92,-0.03,0.5,0.86,-0.6,-0.32,-0.88,18.12,20.28,-12.9,0.34,0.3,0.86,-1.36,0.97,-0.03
1900-01-01 17:56:53.512,30.02,-2.15,11.94,-0.04,0.5,0.86,-0.47,-0.37,-0.85,17.92,20.22,-12.91,0.34,0.3,0.86,-1.06,1.37,-0.09
1900-01-01 17:56:53.616,30.27,-1.88,11.97,-0.03,0.5,0.86,-0.61,-0.37,-0.94,18.27,20.2,-12.93,0.33,0.3,0.86,-1.31,1.31,-0.02
1900-01-01 17:56:53.672,30.08,-1.96,11.99,-0.03,0.5,0.86,-0.39,-0.52,-0.73,18.21,20.24,-12.94,0.34,0.3,0.86,-1.12,1.05,-0.04
1900-01-01 17:56:53.772,30.31,-2.07,12.03,-0.04,0.5,0.86,-0.24,-0.65,-0.81,18.08,20.17,-12.96,0.33,0.3,0.86,-1.1,1.35,-0.11
1900-01-01 17:56:53.840,30.16,-1.49,12.07,-0.03,0.5,0.86,-0.46,-0.58,-0.85,18.28,20.51,-12.98,0.34,0.3,0.85,-1.18,1.35,0.02
1900-01-01 17:56:53.954,30.31,-1.87,12.1,-0.03,0.5,0.86,-0.62,-0.1,-0.83,18.43,19.99,-12.99,0.33,0.31,0.85,-1.18,0.88,-0.01
1900-01-01 17:56:53.979,30.07,-1.84,12.13,-0.03,0.5,0.86,-0.11,-0.37,-0.76,18.11,20.36,-13.0,0.34,0.3,0.86,-0.95,1.18,-0.1
1900-01-01 17:56:54.070,30.28,-1.98,12.17,-0.03,0.5,0.86,-0.26,-0.4,-0.7,18.18,20.18,-13.02,0.33,0.3,0.86,-0.95,1.67,-0.04
1900-01-01 17:56:54.124,30.32,-1.67,12.22,-0.03,0.5,0.86,-0.6,-0.53,-0.96,18.34,20.23,-13.03,0.34,0.3,0.86,-1.31,1.39,-0.02
1900-01-01 17:56:54.215,30.5,-1.69,12.23,-0.03,0.51,0.86,-0.49,-0.74,-0.83,18.26,20.25,-13.05,0.33,0.3,0.86,-1.28,1.08,-0.04
1900-01-01 17:56:54.304,30.35,-1.69,12.26,-0.03,0.5,0.86,-0.31,-0.66,-0.92,18.28,20.36,-13.06,0.34,0.3,0.86,-1.0,1.21,-0.22
1900-01-01 17:56:54.417,30.26,-1.65,12.28,-0.03,0.5,0.86,-0.46,-0.44,-0.91,18.28,20.33,-13.1,0.34,0.3,0.86,-1.08,1.16,-0.11
1900-01-01 17:56:54.449,30.29,-1.63,12.3,-0.03,0.5,0.86,-0.49,-0.44,-0.89,18.44,20.44,-13.13,0.34,0.31,0.85,-1.26,1.21,-0.05
1900-01-01 17:56:54.539,30.49,-1.81,12.32,-0.03,0.51,0.86,-0.63,-0.29,-0.82,18.41,20.12,-13.15,0.33,0.31,0.86,-1.34,1.32,0.05
1900-01-01 17:56:54.586,30.42,-1.59,12.35,-0.03,0.5,0.86,-0.4,-0.59,-0.96,18.39,20.34,-13.15,0.34,0.31,0.86,-1.42,1.29,-0.02
1900-01-01 17:56:54.679,30.53,-1.48,12.36,-0.03,0.5,0.85,-0.53,-0.34,-0.81,18.39,20.38,-13.16,0.34,0.3,0.85,-1.27,1.39,-0.01
1900-01-01 17:56:54.773,30.33,-1.63,12.4,-0.03,0.5,0.86,-0.3,-0.5,-0.85,18.49,20.1,-13.17,0.33,0.31,0.85,-1.11,1.5,-0.09
1900-01-01 17:56:54.820,30.06,-1.73,12.43,-0.03,0.5,0.86,-0.59,-0.33,-0.88,18.12,20.27,-13.19,0.34,0.3,0.86,-1.66,1.63,0.11
1900-01-01 17:56:54.916,30.41,-1.36,12.45,-0.02,0.5,0.86,-0.77,-0.47,-0.91,18.31,20.4,-13.18,0.34,0.3,0.85,-1.74,1.5,0.09
1900-01-01 17:56:55.009,30.58,-1.48,12.47,-0.03,0.51,0.86,-0.48,-0.4,-0.8,18.25,20.27,-13.17,0.33,0.3,0.85,-1.21,1.46,-0.15
1900-01-01 17:56:55.056,30.27,-1.71,12.51,-0.03,0.5,0.86,-0.46,-0.39,-0.89,18.36,20.15,-13.21,0.33,0.31,0.86,-1.27,1.44,-0.05
1900-01-01 17:56:55.148,30.43,-1.27,12.53,-0.02,0.5,0.85,-0.6,-0.27,-0.83,18.22,20.31,-13.22,0.34,0.3,0.85,-1.42,1.25,0.07
1900-01-01 17:56:55.199,30.49,-1.55,12.56,-0.03,0.51,0.86,-0.64,-0.24,-0.67,18.41,20.21,-13.22,0.33,0.31,0.86,-1.3,1.55,0.03
1900-01-01 17:56:55.306,30.21,-1.97,12.62,-0.03,0.51,0.87,-1.28,-0.15,-0.92,17.87,19.8,-13.22,0.33,0.3,0.87,-2.03,2.74,-0.07
1900-01-01 17:56:55.381,30.05,-2.1,12.64,-0.04,0.5,0.87,-1.85,-0.21,-0.61,17.96,19.63,-13.24,0.33,0.3,0.87,-3.63,4.44,-0.2
1900-01-01 17:56:55.428,30.28,-1.73,12.7,-0.03,0.5,0.86,-2.53,-0.41,-1.16,17.71,18.81,-13.28,0.31,0.29,0.87,-5.24,4.56,-0.1
1900-01-01 17:56:55.522,29.87,-0.49,12.68,-0.01,0.5,0.86,-2.59,0.56,-1.33,17.62,19.08,-13.31,0.31,0.29,0.86,-3.22,4.85,-0.53
1900-01-01 17:56:55.633,29.14,-2.41,12.64,-0.04,0.5,0.9,-2.63,2.98,1.69,16.3,17.78,-13.39,0.3,0.28,0.9,-2.77,8.96,-1.15
1900-01-01 17:56:55.662,27.6,-2.64,13.05,-0.05,0.46,0.89,-6.89,-0.89,2.05,15.14,16.1,-13.58,0.27,0.25,0.89,-9.56,7.6,1.47
1900-01-01 17:56:55.755,28.26,-0.71,13.52,-0.01,0.47,0.88,-8.21,-0.97,0.49,14.94,17.41,-13.36,0.29,0.25,0.88,-9.4,4.69,1.79
1900-01-01 17:56:55.848,28.45,-0.66,13.76,-0.01,0.46,0.84,-4.09,0.23,-0.82,14.9,16.31,-13.1,0.26,0.24,0.85,-5.3,4.56,0.47
1900-01-01 17:56:55.895,27.26,-0.54,13.79,-0.01,0.45,0.87,-1.93,1.95,-2.77,14.41,15.2,-13.03,0.25,0.24,0.89,-2.79,1.54,-0.65
1900-01-01 17:56:55.988,25.24,-2.3,13.52,-0.04,0.43,0.91,-2.43,0.46,-1.15,12.08,15.54,-13.14,0.26,0.2,0.91,-2.77,1.02,0.18
1900-01-01 17:56:56.035,25.12,-1.82,13.51,-0.03,0.42,0.9,-4.31,0.7,-1.81,12.06,15.63,-13.12,0.26,0.2,0.9,-5.17,2.19,0.62
1900-01-01 17:56:56.129,25.32,-3.31,13.39,-0.06,0.44,0.93,-4.34,-0.21,-0.42,12.76,13.64,-13.04,0.24,0.22,0.96,-6.11,2.95,1.42
1900-01-01 17:56:56.221,23.15,-4.45,13.48,-0.09,0.44,1.02,-8.34,-8.35,5.29,10.57,12.89,-12.83,0.24,0.2,1.05,-9.21,10.11,2.7
1900-01-01 17:56:56.270,20.9,-0.76,14.45,-0.01,0.39,1.02,2.18,-13.44,8.73,6.9,11.88,-12.42,0.23,0.13,1.07,13.98,11.94,3.91
1900-01-01 17:56:56.361,23.27,2.69,15.94,0.05,0.41,0.94,11.25,-13.76,6.27,13.29,11.08,-11.84,0.21,0.25,1.02,36.78,-15.38,17.15
1900-01-01 17:56:56.455,21.8,8.59,17.07,0.16,0.39,0.95,-3.35,-22.76,1.86,11.97,22.99,-9.21,0.4,0.21,0.91,20.02,-47.57,19.65
1900-01-01 17:56:56.503,22.66,12.08,17.51,0.21,0.38,0.89,-3.15,-31.82,-3.53,14.27,33.61,-6.2,0.49,0.22,0.7,3.79,-40.11,-1.04
1900-01-01 17:56:56.596,25.46,14.05,17.13,0.22,0.39,0.79,-1.12,-27.85,-7.04,22.94,33.81,-6.37,0.46,0.32,0.6,-1.67,-30.39,-10.35
1900-01-01 17:56:56.645,27.31,18.15,16.2,0.27,0.4,0.73,-2.57,-18.22,-7.46,25.09,35.96,-7.97,0.48,0.34,0.56,-6.15,-16.3,-11.87
1900-01-01 17:56:56.747,26.86,19.51,15.2,0.31,0.42,0.77,-3.01,-11.53,-8.6,23.16,38.7,-9.82,0.55,0.35,0.59,-5.55,-9.98,-11.1
1900-01-01 17:56:56.851,24.7,22.1,14.04,0.37,0.41,0.81,-1.79,-4.98,-9.74,19.94,42.42,-11.54,0.63,0.32,0.61,-6.36,-6.33,-13.59
1900-01-01 17:56:56.882,23.99,22.69,12.69,0.4,0.42,0.86,-0.95,-2.57,-13.57,21.35,41.63,-13.64,0.68,0.38,0.67,-9.05,-8.59,-16.25
1900-01-01 17:56:56.980,23.43,22.98,10.75,0.42,0.43,0.89,-3.63,-10.81,-16.23,20.65,40.64,-16.16,0.7,0.38,0.72,-9.33,-19.63,-13.94
1900-01-01 17:56:57.082,24.5,22.1,8.39,0.4,0.44,0.88,-5.56,-14.91,-14.8,23.44,42.92,-18.33,0.7,0.41,0.63,-5.13,-26.75,-11.11
1900-01-01 17:56:57.118,26.6,20.36,6.26,0.36,0.47,0.86,-7.31,-11.35,-14.99,27.24,44.85,-20.06,0.7,0.45,0.53,-7.02,-18.36,-10.11
1900-01-01 17:56:57.206,27.39,16.06,4.1,0.28,0.47,0.85,-5.16,-8.58,-10.81,25.94,35.37,-21.63,0.6,0.46,0.72,-5.17,-2.07,1.44
1900-01-01 17:56:57.299,24.99,14.05,2.59,0.24,0.42,0.86,-1.42,-9.88,-6.39,23.09,35.67,-21.42,0.58,0.39,0.71,1.33,-13.27,-3.5
1900-01-01 17:56:57.346,24.02,17.65,1.77,0.31,0.41,0.87,-3.89,-9.21,-4.66,24.05,43.91,-21.97,0.67,0.4,0.58,1.29,-13.05,0.4
1900-01-01 17:56:57.439,26.12,19.03,1.22,0.34,0.46,0.87,-4.16,-1.38,-2.64,25.95,45.53,-21.91,0.72,0.44,0.55,-1.52,-4.66,-0.31
1900-01-01 17:56:57.499,24.47,21.9,0.97,0.37,0.42,0.83,-4.37,-2.35,0.83,23.13,44.27,-21.97,0.71,0.4,0.61,-5.76,-3.89,5.33
1900-01-01 17:56:57.586,24.06,15.89,1.26,0.26,0.39,0.83,0.2,-0.77,0.37,21.7,47.07,-21.16,0.68,0.34,0.53,1.77,-10.8,-0.14
1900-01-01 17:56:57.673,24.21,21.77,1.47,0.34,0.37,0.76,2.11,6.91,2.26,25.97,46.89,-21.19,0.64,0.38,0.46,-3.42,10.46,0.14
1900-01-01 17:56:57.766,22.24,18.37,1.97,0.32,0.39,0.9,0.02,4.15,0.41,19.96,47.31,-21.18,0.75,0.35,0.6,2.43,12.73,-4.05
1900-01-01 17:56:57.813,23.79,18.56,2.2,0.34,0.43,0.92,0.5,-1.4,0.14,22.35,46.9,-21.8,0.77,0.4,0.6,-0.46,-5.77,2.95
1900-01-01 17:56:57.905,24.0,21.06,2.37,0.37,0.42,0.87,4.46,-0.35,1.97,23.54,48.08,-21.36,0.75,0.4,0.54,2.24,4.95,-2.15
1900-01-01 17:56:57.955,24.8,21.22,2.83,0.37,0.43,0.85,-0.03,-2.08,2.62,24.6,49.1,-21.7,0.75,0.41,0.5,3.54,5.27,1.88
1900-01-01 17:56:58.046,24.7,23.1,3.39,0.39,0.41,0.8,2.98,-0.21,1.79,22.29,46.4,-21.42,0.69,0.36,0.55,2.18,1.95,10.87
1900-01-01 17:56:58.138,25.57,20.81,3.82,0.36,0.43,0.83,3.79,-0.7,1.27,22.26,50.16,-19.78,0.75,0.37,0.5,0.4,-10.95,5.96
1900-01-01 17:56:58.186,24.65,20.69,4.17,0.36,0.43,0.85,-0.35,2.31,0.73,21.59,51.05,-18.88,0.78,0.37,0.51,-0.18,-1.82,10.78
1900-01-01 17:56:58.279,24.05,20.56,4.44,0.36,0.41,0.86,2.74,1.24,-2.56,17.86,53.34,-17.24,0.76,0.29,0.49,3.89,-0.62,2.28
1900-01-01 17:56:58.332,27.24,20.22,4.21,0.36,0.48,0.86,-2.03,1.02,-3.1,23.48,51.43,-16.9,0.82,0.42,0.5,-2.89,1.26,2.5
1900-01-01 17:56:58.421,26.6,21.42,3.9,0.37,0.46,0.84,0.07,-2.63,-2.6,21.5,53.0,-16.52,0.8,0.37,0.48,-3.44,5.64,0.27
1900-01-01 17:56:58.512,25.46,22.27,3.66,0.37,0.42,0.81,-1.45,0.06,-2.4,20.1,52.97,-16.49,0.78,0.33,0.48,-3.54,2.82,-0.17
1900-01-01 17:56:58.558,26.04,20.28,3.45,0.35,0.44,0.83,-2.99,-0.43,-2.01,20.39,51.69,-16.53,0.79,0.35,0.51,-4.16,2.15,-0.38
1900-01-01 17:56:58.664,25.31,20.92,3.3,0.36,0.43,0.83,-0.24,-0.65,-2.3,20.21,51.96,-16.59,0.78,0.34,0.5,-2.67,1.82,-1.32
1900-01-01 17:56:58.752,25.13,20.81,3.11,0.36,0.43,0.84,0.07,0.16,-1.81,19.79,52.06,-16.8,0.79,0.34,0.51,-0.83,2.21,-0.98
1900-01-01 17:56:58.794,25.84,20.84,2.99,0.36,0.45,0.84,0.15,-0.02,-1.47,20.57,51.63,-16.96,0.79,0.35,0.52,-0.74,1.12,0.11
1900-01-01 17:56:58.888,26.38,19.92,2.92,0.35,0.45,0.84,-0.74,-0.06,-1.44,20.71,51.38,-16.95,0.78,0.36,0.52,-1.54,1.16,-0.44
1900-01-01 17:56:58.997,26.36,19.97,2.86,0.34,0.45,0.84,0.44,-0.26,-2.31,21.16,51.08,-17.03,0.77,0.36,0.51,-0.61,3.57,-2.28
1900-01-01 17:56:59.030,25.68,20.51,2.67,0.35,0.44,0.84,0.27,0.39,-2.72,20.67,51.24,-17.39,0.77,0.35,0.51,-0.6,2.77,-2.09
1900-01-01 17:56:59.125,25.94,19.76,2.41,0.34,0.44,0.84,-0.38,0.27,-2.37,20.56,50.97,-17.71,0.78,0.35,0.52,-1.21,2.21,-0.85
1900-01-01 17:56:59.172,26.17,19.9,2.21,0.34,0.44,0.84,-0.89,-0.24,-1.39,20.69,50.98,-17.85,0.77,0.35,0.52,-1.73,1.95,-0.36
1900-01-01 17:56:59.250,26.43,19.6,2.15,0.34,0.45,0.84,-1.43,-0.25,-0.79,21.04,50.69,-17.92,0.78,0.36,0.53,-1.79,0.97,0.5
1900-01-01 17:56:59.357,26.49,20.31,2.19,0.35,0.45,0.84,-1.1,-1.07,-0.38,21.08,50.81,-17.85,0.77,0.36,0.52,-1.72,1.18,0.32
1900-01-01 17:56:59.405,26.74,19.18,2.29,0.33,0.46,0.85,-0.36,-1.77,0.11,21.12,50.19,-17.81,0.77,0.36,0.53,-1.88,2.13,-0.21
1900-01-01 17:56:59.495,26.35,20.66,2.47,0.36,0.45,0.83,0.63,-0.92,-0.08,21.12,50.55,-17.85,0.77,0.36,0.52,-1.27,2.16,-0.79
1900-01-01 17:56:59.591,26.63,20.57,2.61,0.36,0.46,0.84,0.42,-1.42,0.38,21.54,50.53,-17.98,0.78,0.37,0.53,-1.67,2.23,-0.92
1900-01-01 17:56:59.638,26.28,20.95,2.83,0.37,0.45,0.84,-0.76,-1.92,0.63,21.15,50.25,-18.13,0.78,0.37,0.54,-1.78,0.9,0.27
1900-01-01 17:56:59.732,26.92,21.17,3.08,0.37,0.46,0.83,-0.26,-1.17,1.3,21.64,50.27,-18.09,0.76,0.37,0.52,-1.73,2.01,0.39
1900-01-01 17:56:59.831,26.59,21.73,3.44,0.38,0.46,0.83,-0.44,-1.37,1.58,21.51,50.13,-18.04,0.78,0.37,0.53,-1.31,1.18,0.58
1900-01-01 17:56:59.872,26.91,21.02,3.84,0.36,0.46,0.83,-0.15,-0.47,2.76,21.66,49.48,-17.96,0.75,0.37,0.53,-2.87,1.89,2.4
1900-01-01 17:56:59.966,26.26,21.27,4.42,0.36,0.43,0.8,-0.98,1.66,3.31,21.4,49.73,-17.6,0.72,0.35,0.51,-1.97,2.58,3.01
1900-01-01 17:57:00.012,24.8,21.43,5.08,0.36,0.42,0.82,-1.31,3.75,2.31,17.87,50.7,-17.15,0.76,0.3,0.54,-1.15,1.54,1.97
1900-01-01 17:57:00.108,25.02,21.3,5.59,0.37,0.43,0.84,-0.24,1.95,0.62,18.18,50.85,-16.86,0.77,0.31,0.54,-1.75,2.73,1.03
1900-01-01 17:57:00.203,25.07,20.93,5.84,0.36,0.42,0.83,-0.58,1.79,0.08,18.84,50.87,-16.72,0.77,0.32,0.54,-1.32,1.75,1.14
1900-01-01 17:57:00.250,24.43,21.2,6.01,0.37,0.42,0.85,-0.26,1.59,-0.96,18.07,51.07,-16.55,0.78,0.31,0.55,-1.12,0.99,-0.05
1900-01-01 17:57:00.343,25.37,20.75,6.02,0.36,0.43,0.84,-0.11,1.13,-1.79,19.62,50.53,-16.57,0.77,0.34,0.54,-1.24,2.13,0.11
1900-01-01 17:57:00.390,25.15,20.65,5.91,0.35,0.43,0.84,-1.45,0.66,-1.84,18.98,50.75,-16.56,0.78,0.33,0.54,-1.33,1.12,-0.56
1900-01-01 17:57:00.470,24.92,21.05,5.79,0.36,0.43,0.84,0.44,0.07,-2.11,19.17,50.63,-16.65,0.77,0.33,0.54,-1.34,3.27,-1.16
1900-01-01 17:57:00.578,24.51,20.7,5.63,0.36,0.42,0.85,-1.03,-0.1,-2.9,18.18,50.92,-16.84,0.78,0.31,0.55,-2.3,-0.09,-1.44
1900-01-01 17:57:00.626,25.98,20.32,5.34,0.35,0.45,0.84,0.86,-0.9,-4.37,19.66,50.32,-17.07,0.77,0.34,0.54,-1.16,0.79,-3.53
1900-01-01 17:57:00.717,26.56,19.5,4.83,0.34,0.45,0.84,0.12,-0.36,-3.6,20.64,49.49,-17.61,0.77,0.36,0.55,-1.52,1.58,-2.41
1900-01-01 17:57:00.848,26.26,19.65,4.44,0.34,0.45,0.85,0.33,-1.49,-3.76,20.24,49.39,-17.99,0.76,0.35,0.56,-1.6,0.59,-2.92
1900-01-01 17:57:00.848,26.7,19.31,4.02,0.34,0.46,0.85,0.34,-2.29,-4.13,21.09,49.29,-18.45,0.76,0.36,0.55,-2.18,0.17,-3.63
1900-01-01 17:57:00.953,27.01,19.92,3.55,0.34,0.46,0.83,-0.24,-2.51,-3.88,22.02,48.87,-19.01,0.75,0.37,0.54,-1.9,0.93,-3.24
1900-01-01 17:57:01.004,27.51,19.97,3.11,0.35,0.47,0.83,-0.83,-1.67,-2.98,21.91,48.77,-19.51,0.75,0.37,0.54,-2.21,0.63,-2.46
1900-01-01 17:57:01.102,27.7,19.98,2.81,0.35,0.48,0.84,0.27,-2.52,-3.11,23.15,47.55,-19.9,0.76,0.4,0.56,-1.1,-0.43,-3.05
1900-01-01 17:57:01.203,28.72,20.22,2.5,0.35,0.49,0.82,1.28,-2.28,-1.17,23.53,48.06,-20.37,0.75,0.4,0.54,-0.46,0.15,-1.46
1900-01-01 17:57:01.235,28.01,21.0,2.48,0.36,0.47,0.81,2.28,-2.37,-1.02,22.84,48.65,-20.61,0.74,0.38,0.53,1.56,-0.49,-1.76
1900-01-01 17:57:01.324,28.73,20.87,2.48,0.35,0.48,0.8,4.18,-0.85,-1.57,23.88,48.49,-20.88,0.74,0.4,0.52,3.45,-1.13,-3.33
1900-01-01 17:57:01.420,29.39,20.6,2.4,0.36,0.5,0.8,2.73,0.02,0.13,24.38,48.56,-21.4,0.75,0.42,0.52,1.99,-0.62,-0.92
1900-01-01 17:57:01.466,28.56,20.71,2.58,0.36,0.48,0.81,2.5,-0.53,1.08,23.97,48.4,-21.55,0.74,0.4,0.52,0.49,1.96,0.47
1900-01-01 17:57:01.559,28.46,18.86,2.9,0.32,0.47,0.8,-0.21,0.76,2.63,23.05,49.1,-21.49,0.73,0.38,0.51,-0.6,2.24,3.34
1900-01-01 17:57:01.652,27.35,20.4,3.46,0.34,0.45,0.8,-3.03,1.53,2.08,21.03,50.66,-20.99,0.75,0.35,0.51,-4.46,3.23,3.15
1900-01-01 17:57:01.699,27.63,21.43,3.93,0.37,0.47,0.82,-3.43,0.24,-0.56,21.81,49.93,-20.51,0.77,0.38,0.53,-5.51,2.67,-2.22
1900-01-01 17:57:01.794,28.98,21.4,4.0,0.37,0.49,0.8,-2.62,0.97,-0.68,24.03,48.93,-20.86,0.74,0.4,0.51,-4.78,3.75,-1.56
1900-01-01 17:57:01.839,26.8,21.32,4.06,0.36,0.45,0.81,-1.69,1.22,-1.21,21.56,48.13,-21.11,0.72,0.35,0.54,-4.29,7.62,-2.62
1900-01-01 17:57:01.970,28.25,19.81,4.03,0.34,0.48,0.83,-2.58,2.15,-1.47,22.99,47.65,-21.52,0.74,0.39,0.55,-4.73,4.95,-0.69
1900-01-01 17:57:02.025,28.67,18.62,3.96,0.32,0.48,0.81,-2.21,3.37,-1.52,23.51,45.52,-21.63,0.7,0.39,0.56,-2.81,4.65,0.56
1900-01-01 17:57:02.072,27.52,19.89,3.89,0.34,0.47,0.82,-2.49,4.14,-2.4,21.93,47.17,-21.56,0.73,0.37,0.56,-3.5,5.25,-0.17
1900-01-01 17:57:02.195,27.8,19.17,3.68,0.34,0.48,0.84,-0.97,3.73,-2.48,23.09,45.6,-21.59,0.72,0.4,0.59,-2.31,2.18,-0.4
1900-01-01 17:57:02.223,27.47,18.54,3.46,0.32,0.47,0.84,-1.22,3.43,-2.34,22.14,45.63,-21.66,0.72,0.38,0.59,-3.47,6.89,-0.25
1900-01-01 17:57:02.308,27.1,16.88,3.26,0.29,0.46,0.85,-1.88,2.57,-1.5,21.51,43.88,-21.71,0.7,0.37,0.62,-2.88,3.87,0.39
1900-01-01 17:57:02.402,27.2,17.73,3.19,0.32,0.48,0.87,-1.83,-0.15,-0.61,21.68,44.7,-21.65,0.74,0.39,0.63,-1.95,2.1,1.18
1900-01-01 17:57:02.449,27.37,17.6,3.26,0.31,0.47,0.85,0.35,-1.93,-0.15,21.97,44.2,-21.48,0.7,0.37,0.61,-1.21,0.85,0.18
1900-01-01 17:57:02.550,27.08,18.14,3.39,0.32,0.46,0.85,1.69,-2.41,-0.14,22.01,45.4,-21.47,0.71,0.37,0.59,1.39,-1.32,0.56
1900-01-01 17:57:02.637,27.61,18.31,3.53,0.33,0.48,0.86,-0.55,-3.41,0.79,21.84,45.49,-21.39,0.73,0.38,0.61,1.31,-2.86,1.22
1900-01-01 17:57:02.681,27.71,19.15,3.81,0.33,0.47,0.84,0.04,-3.79,0.99,22.65,46.05,-21.21,0.72,0.38,0.58,0.79,-2.02,0.92
1900-01-01 17:57:02.772,27.21,19.42,4.12,0.33,0.46,0.83,0.18,-3.44,0.82,21.68,46.32,-21.08,0.71,0.36,0.58,1.14,-1.66,0.6
1900-01-01 17:57:02.866,26.76,19.91,4.4,0.34,0.45,0.83,-0.6,-3.02,0.39,22.25,46.85,-21.0,0.73,0.38,0.57,0.44,-1.86,0.83
1900-01-01 17:57:02.912,27.04,19.89,4.62,0.35,0.46,0.84,-0.77,-3.53,0.34,21.79,47.5,-20.88,0.73,0.37,0.56,-0.29,-0.89,0.22
1900-01-01 17:57:03.005,27.07,19.9,4.83,0.34,0.46,0.82,-1.07,-2.78,-0.06,22.53,47.06,-20.85,0.72,0.38,0.56,-0.31,-1.27,0.63
1900-01-01 17:57:03.118,26.85,21.14,4.98,0.36,0.45,0.81,-1.08,-2.71,-0.4,22.52,47.53,-20.76,0.73,0.38,0.55,-1.11,-0.66,0.09
1900-01-01 17:57:03.148,26.99,20.71,5.08,0.36,0.46,0.82,-0.49,-2.24,-0.52,21.88,47.67,-20.76,0.73,0.37,0.55,-0.54,-1.06,-0.6
1900-01-01 17:57:03.237,26.36,21.06,5.16,0.36,0.44,0.81,-0.46,-2.24,-0.63,22.11,48.28,-20.86,0.72,0.36,0.53,-0.36,-1.89,-0.35
1900-01-01 17:57:03.371,26.07,22.45,5.22,0.39,0.45,0.83,-0.73,-2.34,-2.18,22.86,48.36,-20.92,0.76,0.4,0.55,0.2,-1.44,-1.02
1900-01-01 17:57:03.371,26.7,22.25,5.04,0.38,0.45,0.82,-0.94,-2.76,-1.36,22.79,48.59,-21.09,0.74,0.38,0.53,-0.65,-0.6,-0.55
1900-01-01 17:57:03.474,26.5,22.13,4.99,0.38,0.45,0.81,-2.0,-2.02,-1.39,23.22,49.18,-21.18,0.74,0.39,0.51,-1.28,-0.93,0.14
1900-01-01 17:57:03.543,26.59,22.92,4.94,0.4,0.45,0.82,-1.57,-1.7,-1.73,23.05,49.21,-21.17,0.76,0.39,0.52,-1.05,0.45,-0.44
1900-01-01 17:57:03.614,26.59,22.78,4.83,0.39,0.46,0.82,-0.75,-2.48,-1.5,23.26,49.4,-21.24,0.76,0.4,0.52,-1.16,1.04,-0.69
1900-01-01 17:57:03.706,26.27,23.24,4.76,0.4,0.45,0.81,-0.05,-2.05,-1.79,22.97,50.16,-21.36,0.76,0.39,0.5,-0.87,0.5,-1.05
1900-01-01 17:57:03.755,27.02,23.17,4.65,0.39,0.46,0.8,-0.15,-1.1,-2.15,23.97,49.23,-21.52,0.74,0.4,0.5,-0.09,0.98,0.23
1900-01-01 17:57:03.848,26.61,23.03,4.48,0.39,0.45,0.81,-0.79,0.27,-1.69,23.53,49.33,-21.5,0.74,0.39,0.51,0.18,1.47,3.21
1900-01-01 17:57:03.943,27.26,22.73,4.38,0.39,0.46,0.8,0.16,1.1,-2.02,23.69,49.5,-21.02,0.75,0.4,0.5,0.98,0.18,2.16
1900-01-01 17:57:03.990,27.35,22.4,4.23,0.39,0.47,0.81,-0.46,1.74,-1.82,23.33,49.84,-20.7,0.76,0.39,0.51,0.55,2.02,1.66
1900-01-01 17:57:04.080,27.15,22.22,4.11,0.38,0.46,0.81,0.88,1.99,-1.71,22.12,50.72,-20.46,0.77,0.38,0.51,2.91,1.23,0.94
1900-01-01 17:57:04.129,27.72,22.0,4.01,0.38,0.47,0.81,3.7,1.85,-2.86,22.78,51.21,-20.32,0.77,0.38,0.49,5.4,-0.45,-3.43
1900-01-01 17:57:04.234,29.18,21.54,3.73,0.38,0.5,0.81,3.24,2.24,-2.86,26.28,49.85,-20.85,0.77,0.44,0.47,4.21,-1.5,-4.26
1900-01-01 17:57:04.316,28.64,20.59,3.45,0.35,0.48,0.8,-0.24,2.56,-2.76,25.36,49.99,-21.51,0.77,0.43,0.48,1.63,-5.6,0.56
1900-01-01 17:57:04.360,28.95,19.81,3.19,0.35,0.5,0.83,2.94,2.0,-3.08,26.95,50.62,-21.43,0.79,0.46,0.45,1.73,-3.67,-1.71
1900-01-01 17:57:04.456,29.7,19.69,2.88,0.34,0.51,0.82,1.37,-0.08,-2.41,26.12,51.61,-21.7,0.79,0.44,0.44,1.84,6.42,4.66
1900-01-01 17:57:04.549,29.7,20.16,2.67,0.35,0.51,0.82,1.03,-0.71,-2.23,26.25,51.44,-21.0,0.8,0.45,0.45,-0.03,0.14,0.73
1900-01-01 17:57:04.595,29.93,20.71,2.49,0.35,0.49,0.78,-0.89,-0.06,-1.0,25.93,51.86,-20.9,0.77,0.43,0.43,-0.4,-0.68,-1.24
1900-01-01 17:57:04.689,30.06,19.14,2.5,0.34,0.51,0.82,0.99,0.59,-1.96,26.84,51.85,-21.1,0.79,0.46,0.43,2.24,-3.59,0.15
1900-01-01 17:57:04.791,30.67,18.92,2.36,0.33,0.52,0.82,0.98,1.25,-2.21,27.14,51.85,-21.08,0.8,0.46,0.42,2.88,-2.24,2.08
1900-01-01 17:57:04.831,30.8,18.8,2.18,0.33,0.52,0.82,1.47,0.4,-2.13,26.41,52.89,-20.78,0.82,0.46,0.42,1.04,3.5,-0.21
1900-01-01 17:57:04.925,32.66,18.73,2.01,0.33,0.55,0.79,1.06,1.23,-1.38,26.53,52.97,-20.82,0.77,0.43,0.39,0.83,-0.13,0.15
1900-01-01 17:57:04.970,31.4,18.51,1.96,0.32,0.52,0.79,-0.86,0.39,-1.98,27.24,52.52,-20.8,0.8,0.46,0.4,-0.5,-3.05,0.01
1900-01-01 17:57:05.063,31.21,18.37,1.82,0.33,0.54,0.82,-0.5,-0.56,-0.78,27.55,52.75,-20.81,0.83,0.48,0.4,0.38,-0.5,2.69
1900-01-01 17:57:05.155,31.4,18.32,1.86,0.32,0.53,0.81,0.87,-2.05,-0.78,27.05,53.4,-20.41,0.81,0.46,0.39,-1.21,5.17,0.8
1900-01-01 17:57:05.201,30.93,19.67,1.9,0.34,0.51,0.79,-0.36,-0.37,-0.02,26.37,54.1,-20.29,0.8,0.44,0.38,-0.99,0.32,-1.4
1900-01-01 17:57:05.295,31.17,18.54,2.05,0.33,0.53,0.82,-1.59,-0.56,-0.36,26.74,53.33,-20.52,0.83,0.47,0.41,-1.34,0.37,2.47
1900-01-01 17:57:05.388,31.22,19.36,2.15,0.33,0.52,0.79,0.02,-1.37,-0.54,26.93,52.74,-20.15,0.8,0.45,0.4,-1.35,3.31,0.72
1900-01-01 17:57:05.433,31.16,19.8,2.23,0.34,0.52,0.79,-0.34,-0.56,-0.6,26.13,53.84,-20.05,0.8,0.44,0.39,-1.81,1.78,-0.46
1900-01-01 17:57:05.527,30.94,18.98,2.3,0.33,0.52,0.81,-0.76,-0.72,-0.5,26.47,53.38,-20.12,0.81,0.45,0.4,-1.53,1.72,-0.05
1900-01-01 17:57:05.579,30.73,19.54,2.38,0.34,0.52,0.8,-0.95,-0.8,-0.5,26.06,53.43,-20.14,0.81,0.44,0.4,-1.89,2.24,0.13
1900-01-01 17:57:05.670,30.94,19.79,2.46,0.34,0.52,0.79,-0.8,-0.53,-0.88,26.38,53.23,-20.13,0.8,0.44,0.4,-1.57,1.44,0.27
1900-01-01 17:57:05.762,31.01,19.21,2.49,0.33,0.52,0.8,-0.78,-0.04,-0.72,26.44,52.89,-20.1,0.8,0.45,0.41,-1.11,2.08,0.4
1900-01-01 17:57:05.808,30.75,19.48,2.53,0.33,0.51,0.79,-0.53,0.24,-0.42,25.69,53.45,-20.04,0.79,0.43,0.4,-1.42,2.37,0.11
1900-01-01 17:57:05.903,30.86,19.84,2.63,0.34,0.52,0.8,-0.53,0.47,-0.82,26.46,52.94,-20.04,0.8,0.45,0.41,-0.85,2.08,0.18
1900-01-01 17:57:05.994,31.08,20.08,2.66,0.35,0.53,0.81,-0.32,-0.21,-0.38,26.65,53.1,-20.02,0.82,0.46,0.41,-1.62,1.07,0.69
1900-01-01 17:57:06.041,30.59,19.53,2.76,0.34,0.51,0.8,-0.65,-0.53,-0.22,26.19,52.97,-19.92,0.8,0.44,0.41,-2.18,1.05,0.28
1900-01-01 17:57:06.135,31.32,19.67,2.89,0.34,0.53,0.8,-0.12,-0.4,-0.21,26.67,52.71,-19.89,0.8,0.45,0.41,-3.29,-0.09,-0.4
1900-01-01 17:57:06.249,31.36,19.74,3.01,0.34,0.53,0.79,0.21,-1.57,-0.26,26.0,52.81,-19.96,0.79,0.43,0.41,-1.73,0.73,-1.24
1900-01-01 17:57:06.277,30.39,20.88,3.13,0.34,0.49,0.76,-2.4,0.89,-0.45,25.85,53.61,-20.15,0.76,0.41,0.38,-0.48,-0.09,-2.37
1900-01-01 17:57:06.370,30.37,19.34,3.22,0.34,0.51,0.81,-1.76,1.87,-1.02,25.89,53.36,-20.52,0.82,0.45,0.42,-1.43,1.27,0.93
1900-01-01 17:57:06.417,30.3,19.49,3.22,0.35,0.52,0.83,0.37,-0.89,-0.84,26.19,53.44,-20.39,0.83,0.45,0.41,-0.72,3.42,0.4
1900-01-01 17:57:06.511,30.59,18.92,3.25,0.33,0.51,0.8,-1.76,-0.68,-0.68,26.55,52.38,-20.34,0.79,0.45,0.41,-2.77,1.18,0.82
1900-01-01 17:57:06.605,30.38,19.56,3.31,0.34,0.51,0.8,-1.46,-0.5,-0.82,25.74,53.11,-20.22,0.8,0.43,0.41,-0.86,2.31,0.65
1900-01-01 17:57:06.650,30.92,19.32,3.34,0.34,0.52,0.8,-0.73,-0.46,-0.84,26.35,52.64,-20.13,0.8,0.45,0.42,-1.11,2.41,-0.15
1900-01-01 17:57:06.745,30.24,19.42,3.37,0.34,0.51,0.8,-1.15,-0.77,-0.96,25.7,52.78,-20.16,0.8,0.43,0.42,-2.14,1.8,-0.79
1900-01-01 17:57:06.851,30.26,19.46,3.38,0.34,0.51,0.81,-2.52,-0.6,-0.64,25.7,52.56,-20.29,0.8,0.44,0.43,-2.01,2.5,-1.17
1900-01-01 17:57:06.888,29.77,20.04,3.44,0.34,0.5,0.8,-1.24,-1.41,-0.43,26.93,52.0,-20.48,0.79,0.45,0.42,-0.73,3.71,-2.0
1900-01-01 17:57:06.980,29.78,19.7,3.54,0.34,0.5,0.8,-0.03,-0.46,-1.64,27.56,51.11,-20.79,0.78,0.46,0.42,1.01,3.47,-1.63
1900-01-01 17:57:07.035,30.0,20.1,3.45,0.35,0.5,0.8,-0.89,-0.01,-0.73,28.02,50.67,-21.05,0.77,0.47,0.42,-0.1,3.02,0.32
1900-01-01 17:57:07.122,29.41,19.94,3.49,0.35,0.5,0.82,0.03,-0.93,-0.92,26.98,51.1,-21.01,0.79,0.46,0.44,-2.5,1.56,0.18
1900-01-01 17:57:07.217,29.91,19.75,3.51,0.35,0.51,0.82,-0.9,-1.89,0.79,26.57,51.33,-20.99,0.8,0.46,0.44,-5.41,-0.11,-0.73
1900-01-01 17:57:07.265,30.14,20.75,3.79,0.35,0.5,0.78,0.22,-0.79,-0.12,28.18,50.48,-21.11,0.75,0.46,0.41,-2.39,1.62,0.45
1900-01-01 17:57:07.357,29.81,20.04,3.93,0.35,0.5,0.81,-1.49,-0.79,-0.21,27.19,50.37,-21.05,0.78,0.46,0.45,-4.89,-0.26,0.89
1900-01-01 17:57:07.418,28.94,21.51,4.06,0.37,0.49,0.81,0.07,-0.24,-0.2,25.37,53.1,-20.92,0.8,0.43,0.42,-2.64,-1.19,1.81
1900-01-01 17:57:07.528,29.61,20.81,4.19,0.37,0.51,0.82,-1.2,-0.34,0.18,26.06,51.95,-20.66,0.81,0.45,0.45,-2.97,-0.44,2.65
1900-01-01 17:57:07.586,29.4,21.66,4.37,0.37,0.5,0.8,-1.79,-2.22,0.66,25.62,52.56,-20.26,0.79,0.43,0.43,-3.95,0.75,1.82
1900-01-01 17:57:07.670,29.37,21.19,4.63,0.37,0.5,0.81,-1.39,-2.09,0.16,25.52,52.44,-19.99,0.8,0.43,0.43,-2.52,-0.18,1.09
1900-01-01 17:57:07.771,29.04,21.21,4.81,0.36,0.49,0.8,-1.85,-1.61,0.14,24.82,52.73,-19.83,0.79,0.42,0.43,-1.92,1.32,0.43
1900-01-01 17:57:07.803,28.49,20.7,4.99,0.35,0.48,0.8,-0.97,-1.34,-0.14,24.29,52.29,-19.77,0.78,0.4,0.44,-1.69,1.26,0.29
1900-01-01 17:57:07.877,28.46,20.61,5.13,0.34,0.47,0.79,-0.33,-0.77,-1.18,24.26,51.93,-19.74,0.75,0.39,0.44,-0.79,1.26,-1.12
1900-01-01 17:57:07.969,28.25,22.11,5.11,0.38,0.48,0.81,-1.02,-0.78,-2.06,25.42,52.7,-19.92,0.81,0.44,0.44,-1.15,-1.55,-2.05
1900-01-01 17:57:08.100,29.53,21.39,4.95,0.38,0.51,0.82,-0.96,-2.47,-1.42,25.95,52.41,-20.24,0.81,0.45,0.44,-2.33,0.02,-0.24
1900-01-01 17:57:08.100,27.85,21.65,4.89,0.37,0.47,0.8,-0.05,-1.57,-1.65,25.04,52.66,-20.29,0.78,0.42,0.43,-1.13,-0.71,-1.27
1900-01-01 17:57:08.204,29.2,22.3,4.8,0.38,0.49,0.78,0.26,-1.03,-1.81,27.08,51.12,-20.49,0.77,0.45,0.43,-0.98,0.98,-0.85
1900-01-01 17:57:08.307,28.56,22.36,4.68,0.38,0.48,0.8,0.11,-1.15,-0.66,25.36,53.42,-20.63,0.8,0.43,0.41,-1.69,1.85,-0.24
1900-01-01 17:57:08.342,29.45,22.73,4.74,0.4,0.5,0.8,-0.97,-0.02,-0.9,27.07,52.22,-20.67,0.8,0.46,0.42,-1.08,1.32,0.18
1900-01-01 17:57:08.435,29.44,22.05,4.76,0.38,0.5,0.8,-0.44,0.8,0.21,25.55,52.09,-20.66,0.79,0.43,0.44,-1.82,1.71,0.54
1900-01-01 17:57:08.482,29.37,22.17,4.95,0.38,0.5,0.79,0.04,1.46,0.79,26.39,52.05,-20.58,0.79,0.44,0.43,-1.15,2.02,1.29
1900-01-01 17:57:08.600,28.57,22.31,5.23,0.38,0.48,0.8,-0.06,0.88,0.95,24.56,53.25,-20.39,0.8,0.42,0.43,-0.66,1.81,1.47
1900-01-01 17:57:08.669,28.38,22.09,5.53,0.38,0.48,0.8,-0.18,0.01,0.05,25.34,52.68,-20.18,0.79,0.43,0.43,-0.64,1.37,0.45
1900-01-01 17:57:08.716,28.96,22.31,5.69,0.38,0.49,0.8,0.25,-0.18,-0.44,26.02,52.37,-20.12,0.79,0.44,0.43,-1.48,0.5,-0.69
1900-01-01 17:57:08.810,28.21,22.08,5.79,0.38,0.48,0.81,-0.21,-1.28,-0.86,24.04,53.67,-20.23,0.81,0.41,0.43,-1.08,1.18,-2.06
1900-01-01 17:57:08.905,29.07,22.31,5.81,0.38,0.49,0.79,-0.25,-0.95,-0.68,25.98,52.37,-20.56,0.79,0.44,0.42,-1.98,1.01,-1.02
1900-01-01 17:57:08.951,28.89,22.65,5.87,0.39,0.49,0.79,-0.2,-1.05,-0.68,24.92,52.96,-20.72,0.79,0.42,0.43,-0.94,2.03,-0.5
1900-01-01 17:57:09.045,29.26,21.77,5.92,0.37,0.49,0.79,-0.28,0.41,-1.08,25.82,51.98,-20.81,0.78,0.43,0.43,-1.31,1.08,-0.26
1900-01-01 17:57:09.092,29.26,22.03,5.92,0.38,0.49,0.79,0.02,0.91,-1.24,25.87,52.17,-20.85,0.79,0.43,0.43,-1.05,1.6,-0.58
1900-01-01 17:57:09.200,28.86,22.54,5.88,0.39,0.49,0.8,0.0,0.64,-1.38,25.83,52.54,-20.95,0.8,0.44,0.43,-0.68,1.77,-0.74
1900-01-01 17:57:09.279,29.41,22.12,5.83,0.38,0.5,0.8,-0.2,-0.02,-1.04,25.81,52.39,-21.07,0.8,0.44,0.43,-1.32,1.87,-0.24
1900-01-01 17:57:09.326,29.45,21.62,5.83,0.37,0.49,0.79,0.11,0.25,-0.93,25.66,52.4,-21.12,0.78,0.43,0.42,-1.54,1.82,-0.09
1900-01-01 17:57:09.420,29.64,21.67,5.85,0.37,0.5,0.79,0.79,0.8,-1.08,26.06,51.91,-21.14,0.78,0.44,0.43,-0.47,2.21,-1.33
1900-01-01 17:57:09.514,29.71,21.89,5.84,0.38,0.5,0.8,0.06,0.68,-0.82,26.33,51.98,-21.35,0.79,0.45,0.43,-1.1,2.62,-0.51
1900-01-01 17:57:09.560,30.21,22.0,5.88,0.38,0.51,0.79,-0.19,1.55,-0.28,26.8,51.82,-21.44,0.79,0.45,0.42,-1.37,2.71,0.48
1900-01-01 17:57:09.653,30.86,21.88,5.99,0.38,0.52,0.78,0.5,1.86,0.33,27.57,51.06,-21.37,0.78,0.47,0.43,-1.54,3.76,0.08
1900-01-01 17:57:09.756,29.94,20.74,6.2,0.36,0.51,0.8,-0.91,1.73,0.38,25.38,51.77,-21.37,0.79,0.43,0.45,-1.24,2.74,1.07
1900-01-01 17:57:09.793,30.31,21.17,6.42,0.36,0.51,0.79,-0.91,2.38,0.78,26.54,50.89,-21.21,0.77,0.45,0.44,-1.8,3.48,1.83
1900-01-01 17:57:09.889,29.77,20.87,6.69,0.36,0.5,0.8,-0.58,1.7,0.87,25.6,51.57,-20.94,0.79,0.43,0.45,-1.26,3.11,1.82
1900-01-01 17:57:09.934,29.79,20.77,6.98,0.36,0.5,0.8,-0.96,2.11,1.47,24.5,52.04,-20.68,0.79,0.41,0.45,-1.55,3.24,1.73
1900-01-01 17:57:10.028,28.84,20.93,7.37,0.36,0.49,0.81,-1.2,1.21,1.29,24.62,51.79,-20.42,0.78,0.41,0.45,-0.73,3.41,2.25
1900-01-01 17:57:10.131,29.33,20.97,7.72,0.36,0.49,0.8,-0.86,2.01,1.0,25.08,51.27,-20.09,0.78,0.42,0.46,-1.25,3.11,2.26
1900-01-01 17:57:10.166,29.26,20.42,8.03,0.35,0.49,0.81,-0.56,1.23,0.52,24.58,51.43,-19.75,0.79,0.42,0.47,-0.64,2.62,1.25
1900-01-01 17:57:10.259,27.91,20.57,8.27,0.36,0.48,0.82,-0.95,0.77,0.69,23.72,51.73,-19.57,0.79,0.4,0.47,-0.15,3.32,2.12
1900-01-01 17:57:10.307,28.65,20.74,8.53,0.36,0.49,0.81,-1.24,1.19,1.08,24.02,51.26,-19.26,0.78,0.41,0.47,-1.09,2.15,2.73
1900-01-01 17:57:10.387,28.94,20.35,8.86,0.35,0.49,0.81,-0.41,0.67,0.52,24.22,51.09,-18.85,0.77,0.41,0.47,-0.37,2.27,1.56
1900-01-01 17:57:10.516,28.39,20.48,9.09,0.35,0.48,0.81,-0.24,-0.02,0.45,23.44,51.94,-18.62,0.78,0.4,0.47,-0.05,1.82,0.86
1900-01-01 17:57:10.547,28.32,20.5,9.32,0.35,0.48,0.82,0.26,-0.4,0.02,23.87,51.57,-18.5,0.78,0.4,0.47,-0.21,1.72,0.29
1900-01-01 17:57:10.635,28.57,20.67,9.48,0.36,0.48,0.81,-0.43,-0.07,0.02,23.57,51.8,-18.46,0.78,0.4,0.47,-0.57,1.47,0.81
1900-01-01 17:57:10.764,28.56,20.77,9.64,0.36,0.49,0.82,-0.81,-0.03,0.11,24.09,51.71,-18.35,0.79,0.41,0.47,-0.56,1.63,1.23
1900-01-01 17:57:10.792,28.59,20.42,9.82,0.35,0.49,0.82,-0.31,-0.11,0.15,24.0,51.37,-18.17,0.78,0.41,0.47,-0.5,2.16,0.84
1900-01-01 17:57:10.899,28.28,20.45,10.0,0.35,0.48,0.81,-0.71,0.21,0.02,22.96,51.88,-18.05,0.78,0.39,0.47,-0.73,1.49,0.66
1900-01-01 17:57:10.930,28.49,20.52,10.16,0.36,0.48,0.82,0.06,-0.4,-0.6,24.21,51.39,-17.95,0.78,0.41,0.47,-0.41,1.89,-0.08
1900-01-01 17:57:11.010,28.46,21.07,10.23,0.37,0.48,0.81,0.05,-0.01,-0.12,23.96,51.66,-17.98,0.79,0.41,0.47,-0.82,2.04,0.31
1900-01-01 17:57:11.105,28.46,20.96,10.37,0.36,0.48,0.81,-0.66,0.02,0.03,23.82,51.65,-17.94,0.78,0.4,0.47,-0.7,1.69,0.64
1900-01-01 17:57:11.150,28.29,20.7,10.53,0.36,0.48,0.81,-0.21,-0.24,0.0,23.53,51.5,-17.85,0.78,0.4,0.48,-0.93,1.98,0.49
1900-01-01 17:57:11.242,28.24,20.73,10.69,0.36,0.48,0.81,-0.01,-0.23,-0.54,23.73,51.28,-17.78,0.78,0.4,0.48,-0.53,1.34,-0.11
1900-01-01 17:57:11.337,28.08,21.06,10.76,0.36,0.47,0.81,0.29,-0.43,-0.87,23.51,51.71,-17.81,0.78,0.4,0.47,-0.73,1.74,-0.28
1900-01-01 17:57:11.384,28.5,20.73,10.79,0.36,0.48,0.81,-0.51,0.27,-0.7,23.56,51.54,-17.86,0.78,0.4,0.48,-1.03,1.76,-0.17
1900-01-01 17:57:11.476,29.12,20.52,10.84,0.35,0.49,0.81,-0.21,0.27,-0.62,24.55,50.69,-17.89,0.77,0.41,0.47,-1.3,1.52,-0.31
1900-01-01 17:57:11.570,28.17,20.49,10.9,0.35,0.47,0.81,-0.04,0.05,-0.92,23.31,51.35,-17.95,0.77,0.39,0.48,-0.88,1.4,-1.07
1900-01-01 17:57:11.615,28.37,20.37,10.92,0.35,0.48,0.81,-0.6,0.69,-1.06,23.61,51.2,-18.12,0.77,0.4,0.48,-1.24,2.5,-0.27
1900-01-01 17:57:11.709,28.66,20.34,10.92,0.35,0.48,0.81,-0.9,1.11,-1.09,23.83,51.23,-18.17,0.78,0.4,0.48,-1.49,1.9,-0.05
1900-01-01 17:57:11.762,29.03,20.74,10.91,0.35,0.49,0.8,-1.08,2.28,-1.33,24.45,51.2,-18.19,0.77,0.41,0.46,-1.81,2.56,-0.13
1900-01-01 17:57:11.905,28.83,19.99,10.86,0.34,0.48,0.81,-0.87,2.41,-1.82,23.41,51.52,-18.21,0.78,0.39,0.48,-1.62,2.99,-1.08
1900-01-01 17:57:11.967,28.76,20.2,10.74,0.35,0.48,0.81,-0.53,2.33,-3.3,23.97,51.21,-18.39,0.77,0.4,0.47,-1.46,2.61,-2.27
1900-01-01 17:57:11.996,28.94,19.69,10.4,0.34,0.49,0.83,-1.3,2.49,-2.96,24.29,50.47,-18.74,0.79,0.42,0.5,-1.76,1.89,-0.66
1900-01-01 17:57:12.090,28.79,19.1,10.1,0.34,0.51,0.85,-0.01,-0.24,-2.47,24.89,49.37,-18.85,0.79,0.44,0.52,-0.96,2.14,-0.72
1900-01-01 17:57:12.178,29.65,18.64,9.88,0.32,0.5,0.81,-1.53,0.98,-1.18,24.64,49.9,-18.97,0.75,0.41,0.48,-2.41,1.78,0.85
1900-01-01 17:57:12.225,29.14,17.77,9.86,0.31,0.49,0.82,-0.82,0.85,-2.21,24.21,49.71,-18.85,0.76,0.41,0.49,-1.61,2.06,-0.79
1900-01-01 17:57:12.318,29.26,17.57,9.68,0.31,0.49,0.83,-0.95,1.27,-2.46,24.53,49.28,-18.98,0.76,0.41,0.5,-1.44,1.85,-0.64
1900-01-01 17:57:12.421,28.98,17.77,9.46,0.31,0.49,0.83,-1.32,0.77,-2.49,24.39,49.63,-19.09,0.77,0.42,0.5,-1.37,1.87,-0.24
1900-01-01 17:57:12.460,29.19,17.44,9.24,0.3,0.49,0.82,-1.14,1.22,-2.26,24.84,49.31,-19.13,0.75,0.41,0.49,-1.55,2.13,-0.21
1900-01-01 17:57:12.555,29.03,17.13,9.06,0.29,0.48,0.82,-0.51,1.37,-2.59,24.33,49.24,-19.17,0.75,0.41,0.5,-0.95,2.22,-1.03
1900-01-01 17:57:12.605,29.81,17.31,8.82,0.3,0.5,0.82,0.0,1.23,-2.18,25.15,48.93,-19.34,0.74,0.42,0.49,-1.63,2.35,-1.0
1900-01-01 17:57:12.793,29.23,16.49,8.64,0.28,0.49,0.83,-0.66,1.24,-2.31,24.77,48.94,-19.5,0.75,0.42,0.5,-1.07,1.21,-1.11
1900-01-01 17:57:12.793,29.37,16.3,8.45,0.28,0.49,0.83,-0.44,1.56,-2.45,25.24,48.46,-19.68,0.74,0.42,0.5,-1.02,1.74,-0.58
1900-01-01 17:57:12.851,29.36,15.97,8.23,0.28,0.5,0.84,-0.97,1.74,-2.47,24.81,48.91,-19.77,0.76,0.42,0.51,-1.21,1.76,-0.6
1900-01-01 17:57:12.964,30.11,15.11,8.02,0.26,0.51,0.84,-0.35,1.29,-2.27,25.65,47.83,-19.87,0.74,0.43,0.52,-1.32,1.78,-0.56
1900-01-01 17:57:13.005,29.57,15.09,7.83,0.26,0.49,0.83,0.11,1.3,-2.23,25.35,48.13,-19.97,0.74,0.42,0.51,-1.29,2.6,-1.25
1900-01-01 17:57:13.141,29.92,14.94,7.65,0.26,0.51,0.84,0.21,0.93,-2.11,25.63,48.18,-20.17,0.75,0.44,0.51,-1.6,2.02,-1.18
1900-01-01 17:57:13.141,30.04,14.82,7.48,0.26,0.51,0.84,-0.24,1.05,-1.85,25.61,48.02,-20.36,0.74,0.43,0.51,-2.2,2.77,-0.92
1900-01-01 17:57:13.237,30.17,14.24,7.36,0.25,0.5,0.83,-0.25,1.25,-2.45,25.46,47.57,-20.51,0.73,0.42,0.51,-1.4,2.83,-1.73
1900-01-01 17:57:13.353,30.14,14.27,7.14,0.25,0.51,0.85,0.21,1.19,-2.5,26.04,47.1,-20.78,0.75,0.45,0.53,-1.35,2.03,-1.57
1900-01-01 17:57:13.382,30.27,14.31,6.92,0.25,0.51,0.84,-0.19,0.37,-1.49,26.08,46.88,-21.03,0.73,0.44,0.52,-1.63,2.34,-0.27
1900-01-01 17:57:13.472,30.59,13.54,6.85,0.24,0.51,0.83,-0.82,0.49,-1.43,25.69,47.02,-21.08,0.73,0.43,0.52,-1.79,1.71,-0.55
1900-01-01 17:57:13.520,31.03,13.73,6.79,0.24,0.53,0.85,-0.27,-0.21,-1.09,27.14,46.29,-21.17,0.74,0.47,0.53,-1.29,1.13,-0.08
1900-01-01 17:57:13.616,30.81,14.66,6.78,0.26,0.52,0.84,-0.71,-0.76,0.69,26.85,46.86,-21.19,0.74,0.46,0.52,-1.47,1.13,2.5
1900-01-01 17:57:13.724,30.96,13.88,7.05,0.24,0.52,0.83,-0.72,-1.45,1.59,25.92,46.58,-20.82,0.73,0.44,0.53,-0.68,0.66,2.6
1900-01-01 17:57:13.762,30.37,14.74,7.45,0.26,0.51,0.83,-0.72,-1.69,1.63,25.4,47.69,-20.43,0.73,0.42,0.51,-0.79,0.89,2.22
1900-01-01 17:57:13.844,29.8,14.37,7.85,0.25,0.5,0.84,-0.31,-1.66,1.28,25.05,47.47,-20.1,0.74,0.42,0.53,-0.26,0.5,1.57
1900-01-01 17:57:13.963,29.75,15.2,8.21,0.26,0.5,0.83,-0.74,-1.85,1.11,24.51,48.12,-19.87,0.74,0.41,0.52,-1.12,0.76,1.67
1900-01-01 17:57:13.991,29.79,15.54,8.53,0.27,0.51,0.84,-0.9,-2.21,0.6,25.02,48.24,-19.62,0.75,0.42,0.52,-0.76,-0.29,1.31
1900-01-01 17:57:14.076,29.43,15.81,8.78,0.28,0.5,0.84,-1.36,-2.34,0.65,24.51,48.7,-19.43,0.75,0.42,0.52,-0.47,-0.01,1.8
1900-01-01 17:57:14.177,29.29,16.03,9.04,0.28,0.49,0.83,-1.18,-2.4,0.49,23.91,49.27,-19.16,0.75,0.4,0.51,-0.68,-0.22,1.2
1900-01-01 17:57:14.216,29.11,16.27,9.28,0.28,0.48,0.82,-0.56,-2.05,-0.14,24.35,48.62,-18.99,0.74,0.41,0.51,0.08,-0.56,0.5
1900-01-01 17:57:14.307,29.37,16.59,9.41,0.29,0.49,0.83,-0.49,-1.61,-0.17,24.4,49.09,-18.92,0.75,0.41,0.5,-0.42,-0.02,0.5
1900-01-01 17:57:14.354,29.18,16.35,9.55,0.28,0.49,0.83,-0.44,-1.21,0.11,23.68,49.63,-18.85,0.75,0.4,0.5,-0.66,0.1,0.31
1900-01-01 17:57:14.447,29.12,17.12,9.72,0.29,0.49,0.82,-0.69,-1.15,-0.2,24.31,49.7,-18.81,0.75,0.4,0.49,-0.71,0.6,0.62
1900-01-01 17:57:14.540,29.39,17.41,9.85,0.3,0.5,0.83,-1.37,-1.08,-0.29,24.47,50.0,-18.73,0.76,0.41,0.49,-1.31,0.89,0.62
1900-01-01 17:57:14.587,29.43,17.55,9.96,0.31,0.5,0.83,-1.01,-1.33,-0.45,24.79,49.81,-18.64,0.77,0.42,0.49,-0.92,0.07,0.46
1900-01-01 17:57:14.680,29.29,17.44,10.05,0.3,0.5,0.83,-0.64,-1.29,-0.36,24.38,50.37,-18.58,0.77,0.41,0.49,-1.02,0.64,0.53
1900-01-01 17:57:14.772,28.8,17.35,10.16,0.3,0.49,0.84,-1.05,-1.27,-0.15,23.95,50.36,-18.51,0.77,0.41,0.49,-1.2,-0.03,0.98
1900-01-01 17:57:14.822,29.24,17.58,10.29,0.3,0.49,0.81,-0.74,-0.9,-0.53,24.16,50.15,-18.36,0.75,0.4,0.48,-1.1,1.23,0.56
1900-01-01 17:57:14.913,29.24,18.23,10.37,0.31,0.48,0.81,-0.24,-0.32,-0.66,24.08,50.09,-18.29,0.75,0.4,0.48,-1.18,0.82,-1.06
1900-01-01 17:57:15.032,28.79,18.64,10.43,0.33,0.49,0.83,-0.61,-0.21,-1.22,24.37,50.33,-18.46,0.78,0.42,0.49,-0.64,0.59,-0.21
1900-01-01 17:57:15.059,29.27,18.24,10.4,0.32,0.49,0.82,-0.31,-0.97,-0.78,24.41,50.79,-18.5,0.77,0.41,0.48,-1.01,1.37,0.49
1900-01-01 17:57:15.147,29.2,18.44,10.44,0.32,0.49,0.81,-0.56,-0.33,-0.95,24.58,50.27,-18.43,0.77,0.41,0.48,-1.0,1.03,-0.13
1900-01-01 17:57:15.194,29.3,18.3,10.45,0.31,0.49,0.82,-0.42,-0.34,-1.15,24.5,50.33,-18.46,0.76,0.41,0.48,-0.56,1.18,-0.37
1900-01-01 17:57:15.293,29.06,17.81,10.43,0.31,0.49,0.82,-0.23,0.08,-1.29,24.13,50.53,-18.52,0.77,0.41,0.48,-0.71,1.1,-0.31
1900-01-01 17:57:15.379,29.26,18.26,10.39,0.32,0.49,0.82,-0.44,-0.09,-1.45,24.71,50.41,-18.58,0.77,0.42,0.48,-0.66,1.4,-0.5
1900-01-01 17:57:15.499,29.76,17.97,10.33,0.31,0.5,0.82,-0.31,-0.05,-1.2,25.14,50.19,-18.67,0.77,0.43,0.48,-0.76,1.66,-0.47
1900-01-01 17:57:15.527,29.31,18.04,10.3,0.31,0.5,0.83,-0.61,0.27,-0.85,24.84,50.3,-18.75,0.77,0.42,0.48,-1.34,1.42,-0.32
1900-01-01 17:57:15.622,29.54,18.22,10.33,0.32,0.5,0.82,-0.98,0.02,-0.86,25.46,49.89,-18.8,0.77,0.43,0.48,-0.96,1.11,0.02
1900-01-01 17:57:15.656,30.51,17.99,10.36,0.31,0.52,0.82,0.04,0.56,-0.21,26.1,49.66,-18.81,0.76,0.44,0.48,-1.93,2.42,0.27
1900-01-01 17:57:15.748,30.18,17.93,10.48,0.31,0.51,0.82,-0.34,1.93,1.32,24.98,50.21,-18.78,0.77,0.42,0.48,-2.27,2.6,0.18
1900-01-01 17:57:15.843,29.58,17.58,10.84,0.31,0.5,0.83,-1.09,2.03,1.51,24.84,49.92,-18.76,0.77,0.42,0.49,-1.31,2.23,1.45
1900-01-01 17:57:15.890,28.9,17.24,11.23,0.3,0.49,0.83,-0.69,0.89,1.08,23.75,50.12,-18.54,0.77,0.4,0.5,-0.98,1.41,0.93
1900-01-01 17:57:15.983,27.68,17.12,11.56,0.29,0.46,0.83,0.37,-0.48,-0.47,24.71,49.37,-18.41,0.76,0.42,0.5,-0.44,1.86,-0.15
1900-01-01 17:57:16.076,28.44,17.07,11.64,0.29,0.48,0.83,-0.1,-0.56,-1.73,24.76,49.72,-18.44,0.76,0.41,0.49,-0.18,1.91,-0.75
1900-01-01 17:57:16.124,28.54,17.7,11.54,0.31,0.49,0.84,-0.73,-0.82,-1.05,24.04,50.25,-18.57,0.78,0.41,0.5,-1.51,1.92,0.4
1900-01-01 17:57:16.217,28.12,17.91,11.53,0.3,0.47,0.82,-1.82,-0.5,-0.69,22.73,51.11,-18.51,0.76,0.38,0.48,-1.15,0.97,1.15
1900-01-01 17:57:16.310,29.53,17.64,11.59,0.3,0.49,0.81,-0.55,-0.37,-2.02,25.12,49.29,-18.34,0.75,0.42,0.49,0.31,-0.68,-0.07
1900-01-01 17:57:16.356,28.69,17.32,11.43,0.3,0.49,0.84,0.75,-1.07,-2.59,23.7,50.66,-18.36,0.78,0.4,0.49,0.14,0.09,-1.28
1900-01-01 17:57:16.449,29.53,16.78,11.2,0.3,0.51,0.85,-0.61,-1.11,-2.63,25.35,49.62,-18.57,0.77,0.43,0.49,-1.79,1.14,-0.82
1900-01-01 17:57:16.500,28.42,17.87,10.95,0.31,0.48,0.83,-1.69,-0.97,-1.95,23.71,50.6,-18.7,0.77,0.4,0.49,-2.29,1.82,0.17
1900-01-01 17:57:16.590,28.97,18.0,10.81,0.31,0.48,0.81,-1.92,-1.37,-1.49,24.64,50.47,-18.69,0.76,0.41,0.47,-1.79,0.48,0.31
1900-01-01 17:57:16.683,29.49,17.56,10.74,0.31,0.5,0.83,-0.15,-1.47,-1.83,24.42,50.22,-18.65,0.77,0.42,0.49,-1.24,-0.24,-0.89
1900-01-01 17:57:16.729,29.27,17.04,10.62,0.3,0.5,0.84,-0.09,-2.22,-2.4,25.14,49.45,-18.79,0.77,0.43,0.5,-1.99,0.57,-1.53
1900-01-01 17:57:16.838,29.08,18.17,10.41,0.32,0.49,0.83,0.18,-1.85,-1.66,25.12,50.62,-19.03,0.77,0.43,0.47,-2.24,1.1,-1.17
1900-01-01 17:57:16.916,29.2,18.48,10.31,0.32,0.49,0.82,-1.92,-1.74,-0.82,24.61,50.89,-19.22,0.78,0.42,0.47,-2.26,0.09,-0.45
1900-01-01 17:57:16.964,30.27,18.47,10.35,0.32,0.51,0.81,-0.4,-1.23,-0.95,26.03,49.54,-19.3,0.76,0.44,0.48,-2.21,0.92,-0.53
1900-01-01 17:57:17.056,29.61,18.28,10.36,0.32,0.5,0.82,0.54,-2.01,-0.15,24.79,50.93,-19.39,0.77,0.42,0.47,-1.85,1.24,-1.64
1900-01-01 17:57:17.186,29.1,19.23,10.49,0.33,0.49,0.81,0.7,-0.71,-0.31,24.61,50.58,-19.65,0.77,0.42,0.48,-1.32,0.45,-0.86
1900-01-01 17:57:17.186,29.34,18.73,10.6,0.32,0.5,0.82,-0.73,-1.49,-0.6,24.63,50.75,-19.79,0.77,0.42,0.48,-1.44,0.08,-0.37
1900-01-01 17:57:17.270,29.9,19.54,10.67,0.33,0.5,0.8,-1.56,-0.78,-1.18,25.44,50.51,-19.86,0.77,0.43,0.47,-1.68,0.28,0.27
1900-01-01 17:57:17.350,29.82,19.23,10.65,0.33,0.5,0.81,-1.28,0.33,-1.21,25.16,50.59,-19.82,0.77,0.43,0.47,-1.34,1.39,0.12
1900-01-01 17:57:17.440,29.63,18.95,10.62,0.33,0.5,0.81,-0.16,0.28,-1.17,25.46,49.97,-19.81,0.76,0.43,0.48,-0.58,1.64,-0.16
1900-01-01 17:57:17.538,29.04,18.82,10.6,0.33,0.49,0.82,-0.71,0.51,-1.47,24.63,50.57,-19.85,0.77,0.42,0.48,-0.61,1.22,0.21
1900-01-01 17:57:17.576,29.38,19.07,10.54,0.33,0.5,0.82,0.15,-0.1,-1.43,25.15,50.98,-19.82,0.77,0.42,0.46,-0.74,1.73,-0.63
1900-01-01 17:57:17.664,29.86,18.99,10.48,0.33,0.5,0.81,0.21,0.21,-1.99,25.69,50.12,-19.93,0.77,0.44,0.48,-1.62,2.01,-2.44
1900-01-01 17:57:17.759,29.85,18.23,10.33,0.31,0.5,0.81,2.0,-0.53,-1.49,25.97,48.46,-20.31,0.75,0.44,0.5,1.4,-0.3,-0.92
1900-01-01 17:57:17.804,30.12,18.55,10.26,0.32,0.5,0.8,-0.62,-0.45,-0.83,25.43,50.83,-20.46,0.76,0.42,0.46,0.53,0.27,0.38
1900-01-01 17:57:17.898,29.48,19.27,10.29,0.34,0.5,0.82,-2.45,-0.34,-1.35,24.46,51.13,-20.41,0.78,0.42,0.47,-2.86,1.03,-0.14
1900-01-01 17:57:17.990,30.44,18.44,10.25,0.32,0.51,0.81,-1.59,-0.05,-1.8,26.33,50.18,-20.44,0.76,0.44,0.46,-2.05,1.0,-0.16
1900-01-01 17:57:18.037,29.92,18.55,10.13,0.32,0.51,0.82,-1.18,0.18,-1.73,24.99,51.02,-20.47,0.78,0.42,0.47,-1.79,1.44,-0.46
1900-01-01 17:57:18.131,30.32,16.68,10.02,0.29,0.51,0.82,-0.85,-0.77,-1.37,26.38,48.72,-20.55,0.75,0.44,0.49,-0.63,0.24,0.33
1900-01-01 17:57:18.257,29.8,17.61,9.97,0.3,0.5,0.81,-1.91,0.01,-0.97,24.64,51.48,-20.51,0.77,0.41,0.46,-1.41,0.84,-0.21
1900-01-01 17:57:18.286,29.43,17.85,9.98,0.31,0.5,0.83,-1.27,0.28,-2.24,25.54,49.44,-20.55,0.77,0.44,0.49,-2.01,1.32,-0.37
1900-01-01 17:57:18.381,29.82,18.03,9.79,0.31,0.5,0.82,-1.13,-1.14,-1.44,26.53,49.88,-20.61,0.76,0.45,0.46,-0.64,0.95,0.24
1900-01-01 17:57:18.412,30.09,17.43,9.73,0.3,0.51,0.82,-0.95,-0.46,-1.35,25.66,50.25,-20.59,0.77,0.43,0.47,-1.63,0.74,-0.29
1900-01-01 17:57:18.506,30.23,16.93,9.68,0.3,0.51,0.82,-1.11,0.08,-0.94,25.73,50.01,-20.64,0.77,0.44,0.48,-1.71,0.77,-0.04
1900-01-01 17:57:18.598,29.73,17.6,9.7,0.3,0.5,0.82,-0.76,-0.27,-0.82,25.67,50.2,-20.65,0.77,0.43,0.47,-0.95,1.07,-0.11
1900-01-01 17:57:18.645,29.56,17.77,9.73,0.31,0.5,0.82,-0.49,-0.32,-0.82,25.44,50.52,-20.68,0.76,0.43,0.46,-0.91,1.43,-0.26
1900-01-01 17:57:18.737,29.73,17.92,9.76,0.31,0.5,0.82,-0.35,-0.46,-0.7,24.98,50.86,-20.73,0.77,0.42,0.47,-1.16,1.45,-0.59
1900-01-01 17:57:18.833,29.79,17.96,9.81,0.31,0.5,0.82,-0.18,-0.44,-0.98,25.85,50.23,-20.82,0.77,0.44,0.47,-1.11,1.33,-0.37
1900-01-01 17:57:18.877,29.84,18.19,9.82,0.32,0.5,0.82,-0.24,-0.53,-0.9,26.26,50.13,-20.89,0.77,0.44,0.46,-0.85,1.39,-0.14
1900-01-01 17:57:18.969,30.19,17.85,9.84,0.31,0.51,0.82,-0.55,-0.44,-0.79,26.41,49.97,-20.92,0.76,0.44,0.46,-1.34,1.44,-0.12
1900-01-01 17:57:19.063,29.91,17.87,9.88,0.31,0.5,0.82,-0.52,-0.34,-0.89,26.16,50.0,-20.95,0.76,0.44,0.47,-0.94,1.4,-0.23
1900-01-01 17:57:19.110,29.9,18.06,9.9,0.31,0.5,0.82,-0.82,-0.19,-0.76,25.91,50.23,-20.99,0.77,0.44,0.47,-1.27,1.31,0.04
1900-01-01 17:57:19.205,29.59,18.07,9.95,0.31,0.5,0.82,-0.56,-0.48,-0.95,26.0,50.12,-20.99,0.76,0.44,0.47,-0.92,1.63,-0.02
1900-01-01 17:57:19.335,30.04,17.74,9.96,0.31,0.51,0.82,-0.91,-0.4,-0.81,26.08,50.12,-21.0,0.77,0.44,0.47,-1.36,1.53,-0.1
1900-01-01 17:57:19.335,29.84,17.84,9.99,0.31,0.5,0.82,-0.66,-0.31,-0.85,25.91,50.18,-21.03,0.77,0.44,0.47,-1.34,1.56,-0.23
1900-01-01 17:57:19.438,29.51,18.05,10.02,0.31,0.49,0.82,-0.55,-0.2,-0.95,25.53,50.32,-21.07,0.77,0.43,0.47,-1.07,1.3,-0.24
1900-01-01 17:57:19.486,29.95,17.99,10.03,0.31,0.51,0.82,-0.76,-0.3,-0.94,26.15,49.91,-21.12,0.77,0.44,0.47,-1.43,1.19,0.22
1900-01-01 17:57:19.580,29.88,18.01,10.05,0.31,0.5,0.82,-0.79,-0.4,-0.83,26.0,50.12,-21.09,0.77,0.44,0.47,-1.19,1.32,0.05
1900-01-01 17:57:19.673,29.85,18.02,10.08,0.31,0.5,0.81,-0.54,-0.32,-0.84,26.15,49.95,-21.09,0.76,0.44,0.47,-1.16,1.38,-0.09
1900-01-01 17:57:19.721,29.81,17.88,10.11,0.31,0.5,0.82,-0.12,-0.28,-0.92,26.26,49.83,-21.12,0.76,0.44,0.47,-1.18,1.33,-0.21
1900-01-01 17:57:19.814,29.89,18.1,10.13,0.31,0.5,0.82,-0.31,-0.34,-0.8,26.11,49.94,-21.16,0.77,0.44,0.47,-1.12,1.49,-0.27
1900-01-01 17:57:19.906,30.06,17.6,10.16,0.31,0.51,0.82,-0.28,-0.34,-0.64,25.85,49.71,-21.21,0.76,0.44,0.48,-1.34,1.38,-0.19
1900-01-01 17:57:19.952,29.85,18.45,10.22,0.32,0.5,0.81,0.17,-0.77,-0.67,26.41,49.71,-21.24,0.76,0.44,0.46,-1.16,1.31,-0.46
1900-01-01 17:57:20.047,30.39,17.23,10.28,0.3,0.51,0.82,-0.15,-0.85,-0.21,26.3,49.66,-21.32,0.76,0.44,0.47,-1.28,0.84,-0.13
1900-01-01 17:57:20.092,30.21,18.64,10.4,0.32,0.51,0.81,-0.27,-0.4,-1.08,26.83,50.14,-21.35,0.77,0.45,0.45,-1.11,1.59,-0.71
1900-01-01 17:57:20.210,30.26,17.86,10.4,0.31,0.51,0.81,-0.24,-0.41,-1.06,25.83,49.95,-21.47,0.77,0.44,0.47,-0.89,1.45,-0.41
1900-01-01 17:57:20.281,30.52,17.89,10.39,0.31,0.51,0.81,0.4,-0.29,-1.07,26.68,49.44,-21.54,0.75,0.45,0.47,-1.02,1.21,-0.79
1900-01-01 17:57:20.329,30.35,17.97,10.39,0.31,0.51,0.81,0.34,-0.34,-0.96,26.42,49.46,-21.67,0.76,0.44,0.47,-1.07,1.71,-0.63
1900-01-01 17:57:20.421,30.29,18.48,10.4,0.32,0.51,0.81,0.34,-0.24,-0.91,26.74,49.5,-21.78,0.76,0.45,0.47,-1.05,1.74,-0.5
1900-01-01 17:57:20.514,30.65,18.29,10.42,0.32,0.51,0.81,0.18,-0.58,-0.97,26.75,49.71,-21.86,0.76,0.45,0.46,-1.01,1.66,-0.67
1900-01-01 17:57:20.560,30.77,17.85,10.43,0.31,0.51,0.81,-0.13,0.11,-1.13,26.71,49.27,-21.97,0.76,0.45,0.47,-1.34,1.34,-0.39
1900-01-01 17:57:20.654,31.26,17.91,10.41,0.31,0.53,0.81,-0.11,-0.08,-0.8,27.08,49.17,-22.04,0.76,0.46,0.47,-1.6,1.82,-0.15
1900-01-01 17:57:20.745,30.88,17.94,10.45,0.31,0.52,0.81,-0.42,-0.76,-0.54,26.95,49.07,-22.07,0.76,0.46,0.47,-1.28,1.41,-0.08
1900-01-01 17:57:20.795,30.87,18.66,10.52,0.32,0.52,0.8,0.04,-0.37,-0.7,27.4,48.97,-22.09,0.76,0.46,0.47,-1.31,1.38,0.0
1900-01-01 17:57:20.887,31.41,17.77,10.57,0.31,0.53,0.8,0.39,0.07,-0.74,27.37,48.53,-22.1,0.75,0.46,0.48,0.15,-0.15,0.68
1900-01-01 17:57:21.004,31.06,18.89,10.62,0.33,0.52,0.8,-0.73,-0.8,-0.13,26.76,50.19,-22.01,0.76,0.45,0.45,-1.56,1.64,0.24
1900-01-01 17:57:21.036,30.88,18.66,10.76,0.32,0.51,0.79,-0.98,-0.14,-0.41,26.65,49.6,-21.98,0.75,0.44,0.46,-0.59,1.32,0.22
1900-01-01 17:57:21.108,31.27,17.84,10.85,0.31,0.53,0.82,-0.54,-0.17,-0.75,26.74,48.88,-21.95,0.77,0.46,0.49,-0.95,1.04,0.13
1900-01-01 17:57:21.171,31.51,17.6,10.9,0.31,0.53,0.81,1.33,-1.16,-1.32,27.74,47.07,-21.94,0.74,0.47,0.5,-0.52,1.11,-0.69
1900-01-01 17:57:21.258,31.14,17.84,10.85,0.31,0.53,0.81,0.45,-0.61,0.23,27.36,48.85,-22.06,0.75,0.46,0.47,-0.79,2.31,0.03
1900-01-01 17:57:21.353,30.35,20.06,11.05,0.34,0.51,0.8,-1.02,-1.0,0.37,26.1,50.88,-22.06,0.77,0.44,0.45,-1.24,1.61,0.68
1900-01-01 17:57:21.400,30.93,20.05,11.26,0.34,0.51,0.77,1.32,-0.98,0.23,27.67,48.72,-21.96,0.74,0.46,0.46,0.37,1.71,-0.65
1900-01-01 17:57:21.491,32.27,18.88,11.46,0.33,0.54,0.79,1.32,-0.57,0.92,27.89,49.07,-22.07,0.76,0.47,0.46,1.36,-0.27,-0.36
1900-01-01 17:57:21.584,31.82,19.02,11.75,0.33,0.53,0.79,3.49,-0.82,-0.15,28.1,48.7,-22.14,0.75,0.47,0.46,1.56,-0.05,-2.35
1900-01-01 17:57:21.633,32.14,19.07,11.89,0.33,0.54,0.79,2.17,-1.09,-0.47,27.9,49.07,-22.5,0.75,0.47,0.46,1.37,1.26,-1.0
1900-01-01 17:57:21.726,31.94,19.59,11.98,0.34,0.53,0.78,1.69,-0.38,-0.27,28.1,49.22,-22.67,0.75,0.47,0.45,2.17,0.84,0.49
1900-01-01 17:57:21.839,32.36,20.1,12.09,0.34,0.54,0.77,0.3,-0.83,0.22,28.07,50.55,-22.6,0.76,0.46,0.42,-0.08,1.43,0.19
1900-01-01 17:57:21.868,33.38,20.25,12.28,0.35,0.56,0.77,-0.4,-0.58,-0.76,29.18,48.86,-22.58,0.75,0.49,0.44,-0.4,0.94,-0.15
1900-01-01 17:57:21.960,33.19,19.58,12.33,0.34,0.55,0.77,0.69,-1.19,-0.89,28.7,49.72,-22.61,0.75,0.47,0.42,-0.21,1.98,-0.99
1900-01-01 17:57:22.008,32.94,20.0,12.35,0.35,0.55,0.78,0.18,-0.38,-1.66,28.98,50.07,-22.77,0.77,0.49,0.42,-0.44,1.73,-1.29
1900-01-01 17:57:22.099,33.05,20.36,12.25,0.35,0.55,0.77,-2.53,-0.09,-0.89,29.29,49.18,-22.98,0.75,0.49,0.43,-2.28,2.58,0.2
1900-01-01 17:57:22.195,31.77,20.97,12.27,0.36,0.53,0.78,-4.18,-0.81,-0.81,27.8,51.77,-22.96,0.79,0.47,0.41,-2.19,2.67,0.5
1900-01-01 17:57:22.240,33.0,20.67,12.31,0.36,0.55,0.77,-3.2,-0.11,-1.89,29.66,48.27,-22.89,0.75,0.5,0.45,-4.34,2.4,-0.08
1900-01-01 17:57:22.336,32.53,17.93,12.18,0.31,0.55,0.8,-1.18,-0.69,-1.37,29.02,46.45,-22.91,0.73,0.49,0.49,-1.53,0.34,0.01
1900-01-01 17:57:22.389,31.74,18.37,12.12,0.31,0.52,0.78,-1.08,-0.82,0.06,27.71,48.66,-22.92,0.73,0.45,0.45,-1.15,0.19,0.43
1900-01-01 17:57:22.487,31.23,19.3,12.29,0.33,0.52,0.79,-1.89,-0.34,-0.55,28.17,48.61,-22.86,0.75,0.47,0.46,-1.08,0.51,0.97
1900-01-01 17:57:22.569,31.78,19.94,12.37,0.35,0.54,0.79,-2.15,-0.31,0.01,27.95,49.49,-22.72,0.76,0.47,0.45,-1.69,0.25,1.68
1900-01-01 17:57:22.665,31.96,19.97,12.53,0.35,0.54,0.79,-1.24,-0.77,-0.38,28.18,49.41,-22.47,0.75,0.47,0.44,-1.36,0.89,0.56
1900-01-01 17:57:22.712,31.51,19.45,12.63,0.34,0.53,0.79,-0.11,-0.58,-0.99,27.89,48.87,-22.39,0.76,0.47,0.46,-0.69,1.21,-0.4
1900-01-01 17:57:22.805,31.19,19.6,12.63,0.34,0.52,0.79,-0.95,-0.33,-0.79,27.83,49.28,-22.47,0.75,0.46,0.45,-0.98,1.44,0.34
1900-01-01 17:57:22.853,31.73,20.08,12.67,0.35,0.53,0.78,-1.64,-0.22,-0.88,28.29,49.65,-22.42,0.76,0.47,0.44,-0.63,0.65,0.81
1900-01-01 17:57:22.945,31.84,20.11,12.69,0.35,0.54,0.8,-0.64,-0.32,-0.95,28.36,49.54,-22.31,0.78,0.48,0.45,-1.37,1.24,-0.16
1900-01-01 17:57:23.040,31.38,19.48,12.71,0.33,0.52,0.79,0.27,-0.86,-0.58,27.56,49.78,-22.34,0.75,0.46,0.44,-1.38,2.08,-0.44
1900-01-01 17:57:23.086,31.16,20.36,12.78,0.35,0.52,0.79,-0.71,-0.42,-0.35,28.23,49.68,-22.41,0.76,0.47,0.44,-1.35,1.44,0.09
1900-01-01 17:57:23.181,33.22,20.98,12.88,0.37,0.56,0.78,-0.5,1.37,0.71,29.49,49.29,-22.41,0.77,0.5,0.43,-2.79,2.83,0.86
1900-01-01 17:57:23.281,30.68,19.04,13.15,0.32,0.51,0.79,-0.61,0.59,2.17,26.28,49.33,-22.29,0.75,0.44,0.47,-1.24,2.81,1.98
1900-01-01 17:57:23.321,30.06,19.82,13.64,0.34,0.5,0.79,-0.36,0.4,0.76,25.62,49.85,-21.99,0.75,0.43,0.47,-0.17,0.92,0.69
1900-01-01 17:57:23.415,30.94,20.03,13.91,0.35,0.52,0.8,-0.4,-0.14,-0.16,27.74,49.36,-21.9,0.76,0.47,0.46,-0.18,1.25,0.64
1900-01-01 17:57:23.463,30.83,20.25,14.05,0.35,0.52,0.8,-0.76,0.22,0.18,26.88,49.94,-21.81,0.77,0.45,0.46,-1.1,1.85,0.59
1900-01-01 17:57:23.558,30.53,19.94,14.23,0.34,0.51,0.79,-0.9,0.17,-0.35,26.8,49.81,-21.73,0.76,0.45,0.46,-0.78,1.51,0.18
1900-01-01 17:57:23.652,30.65,19.83,14.34,0.34,0.51,0.79,-0.9,-0.25,-0.56,26.56,49.89,-21.71,0.75,0.44,0.46,-1.3,1.81,0.3
1900-01-01 17:57:23.699,30.87,20.02,14.41,0.35,0.52,0.8,-0.98,-0.47,-1.28,27.13,49.59,-21.67,0.76,0.46,0.46,-0.4,0.92,-0.08
1900-01-01 17:57:23.792,31.03,20.34,14.37,0.35,0.52,0.79,-0.19,-0.94,-1.59,27.66,49.69,-21.69,0.77,0.47,0.45,-0.47,1.39,-0.81
1900-01-01 17:57:23.887,31.58,20.21,14.28,0.35,0.53,0.79,-0.29,-0.26,-0.86,28.24,49.19,-21.82,0.76,0.47,0.45,-1.57,1.46,0.31
1900-01-01 17:57:23.933,30.87,20.19,14.31,0.35,0.52,0.79,-1.02,0.21,-0.23,27.15,49.54,-21.78,0.76,0.46,0.46,-1.66,1.89,0.66
1900-01-01 17:57:24.026,31.04,20.18,14.43,0.35,0.52,0.79,-1.16,-0.19,-0.46,27.4,49.56,-21.69,0.76,0.46,0.45,-1.2,1.61,0.56
1900-01-01 17:57:24.072,31.36,20.07,14.52,0.35,0.52,0.79,-0.29,-0.27,-0.89,27.46,49.41,-21.62,0.76,0.46,0.46,-0.86,0.84,-0.08
1900-01-01 17:57:24.189,31.28,19.83,14.54,0.34,0.53,0.8,-0.31,-0.41,-0.99,27.9,48.96,-21.64,0.75,0.47,0.46,-0.73,1.05,-0.11
1900-01-01 17:57:24.260,30.87,19.99,14.55,0.35,0.52,0.8,-0.53,-0.34,-1.1,27.35,49.5,-21.66,0.76,0.46,0.46,-0.82,1.38,-0.05
1900-01-01 17:57:24.307,31.08,19.86,14.54,0.34,0.52,0.79,-1.4,-0.47,-1.06,27.16,49.71,-21.68,0.76,0.46,0.46,-1.38,1.62,0.41
1900-01-01 17:57:24.401,31.25,20.02,14.54,0.34,0.52,0.79,-1.14,-0.25,-1.15,27.32,49.69,-21.62,0.76,0.46,0.45,-1.15,1.42,0.48
1900-01-01 17:57:24.496,31.15,20.07,14.52,0.34,0.52,0.79,-0.43,-0.08,-1.43,27.11,49.68,-21.56,0.75,0.45,0.45,-0.55,1.49,-0.05
1900-01-01 17:57:24.542,31.21,19.86,14.46,0.34,0.52,0.79,-0.12,0.18,-2.03,27.41,49.46,-21.57,0.75,0.46,0.46,-0.18,1.21,-0.27
1900-01-01 17:57:24.633,31.18,19.98,14.31,0.35,0.53,0.8,-1.16,0.25,-1.51,27.89,49.51,-21.62,0.76,0.47,0.45,-1.33,0.98,-0.22
1900-01-01 17:57:24.737,31.09,19.76,14.23,0.34,0.53,0.8,-0.68,-0.22,-1.31,27.67,49.55,-21.67,0.77,0.47,0.46,-1.01,1.08,-0.05
1900-01-01 17:57:24.774,31.32,19.77,14.19,0.34,0.53,0.8,-0.85,-0.23,-1.04,27.96,49.49,-21.68,0.76,0.47,0.45,-0.8,1.46,0.63
1900-01-01 17:57:24.866,31.22,19.62,14.19,0.34,0.52,0.79,-0.79,-0.36,-0.85,27.86,49.41,-21.59,0.76,0.47,0.45,-1.05,1.33,0.27
1900-01-01 17:57:24.914,31.19,19.63,14.22,0.34,0.52,0.79,-0.19,-0.19,-1.23,27.43,49.8,-21.56,0.76,0.46,0.45,-0.48,1.29,-0.82
1900-01-01 17:57:25.031,31.08,19.69,14.19,0.34,0.52,0.8,0.63,0.05,-1.57,27.28,50.11,-21.7,0.77,0.46,0.45,1.34,1.85,-2.34
1900-01-01 17:57:25.101,31.75,19.45,14.11,0.34,0.53,0.79,-1.1,-0.01,-1.46,28.9,48.8,-22.06,0.75,0.48,0.45,-1.03,0.9,-0.58
1900-01-01 17:57:25.147,31.3,19.32,14.04,0.33,0.52,0.79,-0.87,-0.05,-1.79,24.88,50.95,-22.16,0.77,0.42,0.47,0.35,-1.85,-4.19
1900-01-01 17:57:25.270,31.97,19.23,13.92,0.33,0.53,0.79,-1.12,-0.31,-2.06,29.59,48.88,-22.81,0.74,0.49,0.43,-0.92,-0.52,-2.73
1900-01-01 17:57:25.336,31.8,19.47,13.77,0.34,0.53,0.79,-0.53,-0.22,-1.82,29.89,48.78,-23.24,0.76,0.5,0.43,-0.14,-0.23,-3.98
1900-01-01 17:57:25.382,31.62,19.39,13.64,0.34,0.53,0.79,-0.76,-0.34,-1.57,30.45,48.2,-23.86,0.74,0.5,0.43,-0.31,0.2,-3.91
1900-01-01 17:57:25.475,32.11,19.23,13.56,0.33,0.53,0.79,-0.4,-0.56,-1.66,30.94,47.81,-24.47,0.73,0.51,0.43,-0.95,0.88,-3.53
1900-01-01 17:57:25.585,31.64,19.07,13.46,0.33,0.53,0.79,-1.22,-0.49,-1.38,31.06,47.79,-25.02,0.74,0.52,0.43,-0.92,0.89,-2.75
1900-01-01 17:57:25.617,31.86,19.02,13.41,0.33,0.53,0.79,-0.75,-0.66,-1.3,31.81,47.31,-25.45,0.73,0.52,0.42,-1.11,0.6,-2.82
1900-01-01 17:57:25.709,31.49,18.78,13.37,0.33,0.53,0.8,-0.37,-0.5,-1.5,31.49,47.7,-25.89,0.74,0.52,0.42,0.26,2.25,-3.84
1900-01-01 17:57:25.758,31.33,19.03,13.3,0.34,0.54,0.81,3.63,-1.39,-0.88,31.72,47.51,-26.49,0.75,0.53,0.43,0.8,3.53,-3.18
1900-01-01 17:57:25.888,32.42,19.0,13.32,0.33,0.54,0.78,0.08,-1.13,-0.4,32.5,46.58,-26.98,0.71,0.53,0.42,-3.34,1.35,1.08
1900-01-01 17:57:25.920,32.96,19.24,13.42,0.33,0.55,0.78,-0.12,-1.05,-0.82,32.79,46.1,-26.83,0.72,0.54,0.43,-2.53,1.2,2.06
1900-01-01 17:57:25.990,32.26,19.22,13.45,0.33,0.54,0.79,-0.54,-1.23,-0.69,31.15,47.33,-26.52,0.74,0.52,0.44,-1.58,1.85,0.6
1900-01-01 17:57:26.083,32.69,19.19,13.51,0.33,0.54,0.77,-0.78,-0.72,-0.75,31.87,46.87,-26.44,0.72,0.52,0.43,-1.58,1.69,0.53
1900-01-01 17:57:26.177,32.56,19.7,13.55,0.34,0.54,0.78,-0.3,-0.26,-0.89,31.65,46.95,-26.36,0.73,0.52,0.43,-1.63,1.73,0.08
1900-01-01 17:57:26.223,32.59,19.55,13.57,0.34,0.54,0.78,-0.26,-0.37,-1.07,32.05,46.68,-26.36,0.72,0.53,0.43,-1.34,1.45,-0.01
1900-01-01 17:57:26.317,32.57,19.48,13.57,0.34,0.54,0.78,-0.65,-0.6,-0.88,31.56,47.08,-26.37,0.73,0.52,0.43,-1.53,1.54,0.49
1900-01-01 17:57:26.416,32.81,19.38,13.59,0.34,0.55,0.78,-0.77,-0.15,-0.8,31.46,47.22,-26.3,0.73,0.52,0.43,-1.56,1.66,0.55
1900-01-01 17:57:26.457,32.95,19.66,13.63,0.34,0.54,0.77,-0.91,0.95,-0.56,31.66,46.82,-26.23,0.71,0.51,0.42,0.06,1.08,1.34
1900-01-01 17:57:26.551,32.25,19.46,13.7,0.34,0.54,0.79,-1.15,0.56,-1.15,31.44,47.29,-26.03,0.76,0.54,0.45,-0.01,0.4,2.34
1900-01-01 17:57:26.598,32.15,19.3,13.68,0.34,0.54,0.79,-0.7,-0.47,-0.71,31.25,47.63,-25.68,0.74,0.52,0.43,-1.59,1.83,0.18
1900-01-01 17:57:26.693,31.93,19.14,13.73,0.33,0.53,0.78,-1.58,-0.47,-0.53,30.56,47.75,-25.66,0.73,0.5,0.43,-1.31,2.76,1.02
1900-01-01 17:57:26.786,32.37,19.54,13.81,0.34,0.54,0.79,-1.76,0.1,-0.57,31.34,47.34,-25.52,0.74,0.52,0.44,-2.0,1.55,1.5
1900-01-01 17:57:26.832,32.81,18.9,13.88,0.33,0.55,0.79,-5.24,-0.22,0.47,29.85,47.95,-25.3,0.74,0.5,0.45,-6.82,1.63,8.67
1900-01-01 17:57:26.926,31.38,19.23,14.11,0.33,0.53,0.8,-0.54,0.06,0.18,29.38,48.17,-23.98,0.75,0.49,0.45,-2.44,3.72,4.36
1900-01-01 17:57:27.023,30.56,19.91,14.3,0.34,0.51,0.79,-2.18,-0.24,-0.17,26.46,49.96,-23.32,0.76,0.44,0.46,-2.08,2.22,2.34
1900-01-01 17:57:27.068,31.17,19.4,14.43,0.34,0.52,0.8,-0.56,-0.12,-1.11,28.07,49.2,-22.97,0.76,0.47,0.45,-1.12,0.93,-0.56
1900-01-01 17:57:27.161,31.09,19.42,14.42,0.34,0.52,0.8,-0.45,0.11,-1.08,28.15,49.06,-23.07,0.76,0.47,0.46,-0.62,1.6,-0.28
1900-01-01 17:57:27.297,31.1,19.19,14.41,0.33,0.52,0.8,-0.78,0.35,-1.02,28.35,48.56,-23.12,0.75,0.48,0.46,-1.04,2.31,-0.18
1900-01-01 17:57:27.297,31.24,19.11,14.41,0.33,0.52,0.8,-2.07,0.24,-0.53,28.75,48.29,-23.15,0.74,0.48,0.45,-3.62,0.05,1.31
1900-01-01 17:57:27.418,31.12,19.6,14.49,0.34,0.52,0.79,-9.5,1.76,0.79,29.17,48.52,-22.96,0.75,0.49,0.45,-12.37,-2.97,8.08
1900-01-01 17:57:27.444,29.28,18.41,14.77,0.32,0.5,0.83,-5.12,0.52,-0.15,25.47,50.14,-21.73,0.78,0.44,0.48,-8.61,0.79,3.01
1900-01-01 17:57:27.536,28.46,18.77,14.9,0.32,0.48,0.82,-4.37,-0.65,-0.93,23.8,50.88,-21.28,0.76,0.4,0.48,-8.65,1.62,0.17
1900-01-01 17:57:27.629,29.81,18.08,14.92,0.33,0.53,0.86,-7.08,-0.92,0.43,22.9,52.19,-21.26,0.81,0.4,0.49,-11.22,-7.46,7.31
1900-01-01 17:57:27.677,27.64,19.09,15.14,0.32,0.46,0.82,-1.89,0.77,-1.22,22.64,51.38,-20.15,0.76,0.37,0.48,-4.97,2.66,0.96
1900-01-01 17:57:27.770,27.42,19.4,15.12,0.34,0.47,0.84,-1.06,1.12,-1.78,23.1,51.36,-20.01,0.79,0.4,0.49,-2.69,1.31,0.69
1900-01-01 17:57:27.863,27.26,19.68,15.0,0.33,0.45,0.81,-3.78,0.33,-1.15,22.26,51.61,-19.91,0.75,0.36,0.47,-6.37,-1.45,1.76
1900-01-01 17:57:27.910,26.25,20.21,14.98,0.35,0.44,0.83,-4.03,0.27,-0.91,23.08,52.46,-19.65,0.79,0.39,0.47,-2.42,-2.02,2.66
1900-01-01 17:57:28.004,24.25,17.97,15.0,0.32,0.43,0.89,-1.18,-2.45,-2.82,17.18,54.92,-19.25,0.84,0.3,0.51,-0.63,-1.51,2.24
1900-01-01 17:57:28.058,24.78,18.64,14.73,0.32,0.42,0.85,2.08,-5.44,-6.34,21.32,53.04,-18.92,0.77,0.35,0.46,1.46,0.64,-2.93
1900-01-01 17:57:28.144,28.56,18.28,13.92,0.32,0.49,0.84,-0.34,-3.73,-5.45,25.57,49.85,-19.37,0.78,0.44,0.49,-1.13,-2.4,-2.73
1900-01-01 17:57:28.238,25.42,20.09,13.24,0.36,0.45,0.87,-1.65,-4.39,-4.24,19.44,55.18,-19.8,0.85,0.34,0.48,-3.96,-1.92,-3.24
1900-01-01 17:57:28.303,26.34,20.14,12.74,0.35,0.44,0.83,0.07,-4.69,-5.21,21.93,54.87,-20.31,0.8,0.37,0.43,-4.57,0.09,-4.64
1900-01-01 17:57:28.404,28.14,19.47,12.11,0.34,0.48,0.82,-3.23,-3.77,-4.99,23.47,53.04,-21.03,0.8,0.4,0.45,-2.53,0.05,-3.52
1900-01-01 17:57:28.471,28.38,19.73,11.5,0.34,0.48,0.83,-0.54,-4.64,-4.73,23.84,52.55,-21.58,0.8,0.41,0.46,-1.02,-0.72,-3.81
1900-01-01 17:57:28.518,30.09,18.67,10.93,0.32,0.5,0.8,0.68,-1.29,-2.94,29.26,47.59,-22.17,0.74,0.49,0.46,-0.31,1.74,-1.7
1900-01-01 17:57:28.612,26.84,20.18,10.64,0.34,0.45,0.82,-1.79,-1.76,-1.78,20.84,54.21,-22.44,0.81,0.35,0.46,-2.82,0.3,-0.69
1900-01-01 17:57:28.704,30.34,19.47,10.52,0.33,0.51,0.8,0.79,-1.31,-3.02,28.75,49.66,-22.56,0.76,0.48,0.43,-0.82,2.08,-3.56
1900-01-01 17:57:28.752,28.07,21.16,10.22,0.37,0.48,0.83,0.14,-0.89,-1.2,22.21,53.74,-23.11,0.82,0.39,0.46,-3.95,3.05,-1.94
1900-01-01 17:57:28.845,27.73,20.96,10.19,0.36,0.47,0.83,0.22,-3.69,-2.98,25.41,51.07,-23.42,0.77,0.43,0.45,-1.21,2.29,-3.74
1900-01-01 17:57:28.964,30.88,18.66,9.89,0.32,0.51,0.79,0.58,1.11,-0.12,27.89,48.35,-24.0,0.73,0.46,0.46,0.38,2.19,-0.72
1900-01-01 17:57:28.990,30.73,19.35,10.03,0.33,0.51,0.79,3.53,3.47,0.82,29.36,47.26,-24.12,0.72,0.48,0.46,0.67,4.29,0.38
1900-01-01 17:57:29.079,27.44,20.36,10.32,0.35,0.47,0.83,0.13,5.36,2.62,20.28,55.02,-24.07,0.83,0.35,0.46,-0.54,1.53,2.31
1900-01-01 17:57:29.126,30.19,20.37,10.87,0.36,0.51,0.81,1.55,2.22,-1.1,27.37,50.34,-23.72,0.77,0.46,0.44,-0.42,0.6,-0.25
1900-01-01 17:57:29.222,29.9,19.81,10.86,0.34,0.5,0.81,-1.89,1.7,0.21,25.12,50.78,-23.77,0.79,0.43,0.48,-3.6,0.56,0.72
1900-01-01 17:57:29.316,29.03,19.24,11.06,0.34,0.5,0.83,-1.2,0.5,1.05,24.42,50.68,-23.67,0.78,0.42,0.48,-0.59,1.81,1.76
1900-01-01 17:57:29.363,28.27,19.17,11.37,0.33,0.47,0.81,-1.19,0.78,0.4,24.0,51.65,-23.41,0.77,0.4,0.46,0.67,2.3,2.89
1900-01-01 17:57:29.459,28.62,19.95,11.59,0.34,0.48,0.81,-1.8,1.15,0.43,23.69,52.7,-22.98,0.79,0.4,0.45,-0.57,1.82,2.05
1900-01-01 17:57:29.507,29.23,18.89,11.82,0.33,0.5,0.82,-0.19,-0.14,-0.57,24.53,51.47,-22.68,0.79,0.42,0.47,-0.63,1.12,0.73
1900-01-01 17:57:29.599,28.61,19.7,11.89,0.34,0.49,0.82,-1.31,-0.99,-0.39,24.48,51.96,-22.57,0.8,0.42,0.46,-0.87,0.0,0.62
1900-01-01 17:57:29.691,27.52,19.49,11.99,0.35,0.48,0.85,-2.31,-2.18,0.18,22.66,52.91,-22.49,0.82,0.4,0.48,-0.66,-0.48,1.37
1900-01-01 17:57:29.739,28.35,19.82,12.17,0.34,0.48,0.82,-2.03,-4.07,-0.65,23.69,52.24,-22.28,0.78,0.4,0.46,-1.06,-0.37,0.43
1900-01-01 17:57:29.832,28.57,19.76,12.23,0.34,0.48,0.8,-1.53,-2.19,-0.73,24.77,51.75,-22.23,0.77,0.41,0.44,-1.08,0.32,0.31
1900-01-01 17:57:29.940,27.82,19.65,12.28,0.33,0.46,0.81,-0.37,-0.95,-0.96,23.55,52.58,-22.19,0.78,0.39,0.45,-0.53,0.81,-0.38
1900-01-01 17:57:29.973,28.03,20.34,12.29,0.36,0.48,0.83,-1.73,-0.37,-0.74,23.82,52.95,-22.25,0.81,0.41,0.45,-1.1,1.23,0.17
1900-01-01 17:57:30.067,27.79,19.73,12.33,0.34,0.46,0.81,-0.07,0.18,-0.79,23.87,52.78,-22.24,0.78,0.4,0.44,-0.29,1.58,0.19
1900-01-01 17:57:30.186,27.93,21.13,12.37,0.37,0.48,0.83,-1.86,-0.44,-1.09,24.71,52.66,-22.22,0.82,0.43,0.45,-1.44,0.88,0.44
1900-01-01 17:57:30.209,26.93,20.64,12.36,0.36,0.46,0.83,-1.34,-2.63,-1.81,22.73,53.41,-22.16,0.81,0.39,0.46,-1.92,-0.08,-1.86
1900-01-01 17:57:30.300,28.2,19.74,12.24,0.34,0.47,0.81,-0.15,-2.51,-2.88,24.2,52.52,-22.45,0.78,0.4,0.44,-1.93,-0.44,-2.9
1900-01-01 17:57:30.349,27.86,20.18,11.96,0.35,0.47,0.82,-0.37,-1.88,-2.65,24.57,52.4,-22.91,0.8,0.42,0.45,-1.29,0.34,-2.2
1900-01-01 17:57:30.440,28.19,20.86,11.71,0.36,0.48,0.82,-0.65,-1.5,-2.02,24.81,52.35,-23.25,0.8,0.42,0.45,-1.77,0.44,-0.46
1900-01-01 17:57:30.534,28.38,20.31,11.56,0.35,0.48,0.82,-0.47,-1.02,-1.31,25.67,51.55,-23.33,0.78,0.43,0.44,-0.63,1.27,-0.43
1900-01-01 17:57:30.582,28.61,21.08,11.51,0.36,0.48,0.8,-1.25,-0.11,-0.75,23.96,53.3,-23.41,0.8,0.4,0.44,-1.96,1.12,0.7
1900-01-01 17:57:30.676,29.2,21.04,11.56,0.36,0.49,0.81,1.21,-1.0,-1.29,26.48,51.92,-23.31,0.78,0.44,0.42,-0.3,0.57,-1.16
1900-01-01 17:57:30.789,28.2,21.06,11.52,0.37,0.48,0.82,-0.56,0.0,-0.27,25.3,52.6,-23.49,0.81,0.44,0.44,-0.5,0.92,1.6
1900-01-01 17:57:30.817,28.15,21.83,11.64,0.38,0.48,0.81,-0.62,0.21,0.4,24.49,53.34,-23.26,0.8,0.41,0.43,-0.85,1.76,1.38
1900-01-01 17:57:30.910,28.64,20.68,11.86,0.36,0.48,0.81,-0.69,0.19,-0.26,24.72,52.67,-23.05,0.79,0.42,0.44,-1.34,1.22,0.87
1900-01-01 17:57:31.003,28.67,21.17,11.98,0.36,0.48,0.8,-0.44,-0.12,-0.63,24.54,53.09,-22.93,0.79,0.41,0.43,-0.44,1.09,-0.3
1900-01-01 17:57:31.049,28.58,21.07,12.04,0.37,0.49,0.82,0.72,0.3,-0.67,25.27,52.48,-22.98,0.8,0.43,0.44,-0.08,1.25,0.02
1900-01-01 17:57:31.143,28.14,21.11,12.09,0.37,0.48,0.82,-0.69,-0.47,-0.68,24.46,53.22,-22.99,0.81,0.42,0.44,-1.34,1.04,-0.06
1900-01-01 17:57:31.190,28.26,20.95,12.15,0.36,0.48,0.81,-1.27,-0.76,-0.91,24.79,52.96,-23.01,0.79,0.42,0.43,-1.18,1.24,0.15
1900-01-01 17:57:31.282,28.1,21.22,12.17,0.37,0.48,0.82,0.2,-0.95,-0.89,24.39,53.24,-22.99,0.8,0.41,0.43,-0.5,1.68,-0.38
1900-01-01 17:57:31.375,28.33,21.45,12.19,0.37,0.48,0.82,-1.38,-0.37,-0.75,24.58,53.18,-23.06,0.81,0.42,0.44,-1.03,1.15,0.54
1900-01-01 17:57:31.424,28.61,20.85,12.23,0.36,0.48,0.81,0.0,-1.43,-0.7,24.7,52.87,-22.99,0.79,0.42,0.43,-0.47,1.76,-0.3
1900-01-01 17:57:31.515,28.39,20.61,12.28,0.35,0.48,0.81,-0.36,-0.16,-0.95,24.65,52.67,-23.04,0.79,0.42,0.44,0.09,2.02,-0.62
1900-01-01 17:57:31.615,28.34,21.52,12.3,0.37,0.48,0.82,0.23,-0.92,-1.09,24.92,53.0,-23.14,0.8,0.42,0.43,-0.64,2.98,-0.56
1900-01-01 17:57:31.655,28.4,21.49,12.29,0.37,0.48,0.81,0.11,0.05,-0.76,25.37,52.34,-23.24,0.79,0.43,0.44,-1.08,2.41,0.14
1900-01-01 17:57:31.751,28.72,21.71,12.33,0.37,0.48,0.79,-0.92,-0.15,-0.81,25.6,52.22,-23.22,0.78,0.43,0.43,-1.78,0.58,0.4
1900-01-01 17:57:31.865,28.81,21.83,12.36,0.38,0.49,0.81,0.63,-0.77,-0.78,25.52,52.8,-23.17,0.8,0.43,0.42,-0.38,1.36,-0.69
1900-01-01 17:57:31.895,28.55,21.24,12.4,0.36,0.48,0.8,-0.67,0.2,-1.08,25.1,52.44,-23.29,0.78,0.42,0.43,-1.18,0.84,0.18
1900-01-01 17:57:31.985,28.39,21.72,12.4,0.37,0.48,0.8,-1.88,1.5,-0.88,25.41,52.73,-23.27,0.8,0.43,0.43,-2.92,-0.67,0.38
1900-01-01 17:57:32.031,28.61,20.97,12.42,0.36,0.49,0.81,0.6,1.35,-0.77,24.81,53.09,-23.22,0.8,0.42,0.43,-0.1,0.37,-0.31
1900-01-01 17:57:32.155,28.25,20.68,12.46,0.36,0.48,0.82,-0.04,0.26,-1.09,24.97,52.89,-23.27,0.8,0.43,0.43,-0.33,0.92,-0.34
1900-01-01 17:57:32.205,28.52,20.91,12.45,0.36,0.49,0.82,-0.38,-0.36,-0.71,24.52,53.24,-23.33,0.8,0.42,0.43,-0.89,1.57,-0.12
1900-01-01 17:57:32.321,28.58,21.03,12.5,0.36,0.48,0.81,-0.64,-0.5,-0.79,25.27,52.93,-23.36,0.79,0.42,0.42,-0.79,1.82,-0.15
1900-01-01 17:57:32.357,28.93,20.94,12.54,0.36,0.49,0.81,-0.73,-0.35,-0.83,25.3,52.76,-23.39,0.79,0.43,0.43,-0.53,1.89,-0.15
1900-01-01 17:57:32.451,28.97,21.12,12.57,0.36,0.49,0.8,0.52,0.08,-1.03,26.21,51.99,-23.42,0.79,0.44,0.43,-0.11,1.41,-0.28
1900-01-01 17:57:32.500,29.42,20.92,12.57,0.36,0.49,0.8,-0.2,1.35,0.15,26.74,51.68,-23.47,0.78,0.45,0.42,-1.05,0.88,1.57
1900-01-01 17:57:32.592,29.47,20.02,12.75,0.34,0.49,0.8,-1.08,1.72,1.15,25.55,52.22,-23.24,0.79,0.43,0.43,-1.21,0.79,1.96
1900-01-01 17:57:32.718,28.84,19.79,13.09,0.34,0.48,0.81,-0.12,2.27,1.07,24.23,53.18,-22.95,0.79,0.4,0.43,-1.25,1.71,1.0
1900-01-01 17:57:32.718,28.97,19.81,13.41,0.34,0.49,0.81,-0.28,3.27,0.76,25.27,52.8,-22.81,0.8,0.43,0.43,-1.05,2.65,1.53
1900-01-01 17:57:32.825,28.96,20.35,13.68,0.35,0.49,0.81,0.43,3.39,1.88,25.22,52.9,-22.58,0.81,0.43,0.43,-1.3,3.95,2.58
1900-01-01 17:57:32.873,28.56,20.23,14.13,0.35,0.48,0.81,0.28,3.29,1.18,24.01,53.57,-22.2,0.8,0.4,0.43,-2.15,4.7,0.94
1900-01-01 17:57:32.966,29.75,19.97,14.46,0.35,0.5,0.81,-0.66,5.47,2.37,25.45,52.34,-22.07,0.79,0.43,0.44,-2.2,5.12,2.75
1900-01-01 17:57:33.060,28.63,19.92,14.98,0.35,0.49,0.82,-1.24,4.6,2.84,23.71,53.74,-21.66,0.81,0.4,0.44,-2.63,6.66,2.0
1900-01-01 17:57:33.105,28.28,18.81,15.58,0.33,0.48,0.83,-1.92,4.94,2.26,22.92,52.29,-21.36,0.8,0.39,0.48,-2.31,5.35,2.41
1900-01-01 17:57:33.200,27.85,18.62,16.08,0.32,0.47,0.83,-1.52,4.52,1.92,21.96,52.52,-21.0,0.79,0.37,0.48,-2.19,5.9,2.44
1900-01-01 17:57:33.296,27.18,16.86,16.53,0.29,0.46,0.85,-1.23,2.89,0.33,21.43,52.26,-20.64,0.78,0.36,0.49,-1.5,4.95,0.73
1900-01-01 17:57:33.339,28.0,17.56,16.74,0.3,0.47,0.84,-0.98,3.55,-0.24,23.05,50.87,-20.53,0.77,0.39,0.49,-1.57,4.47,1.8
1900-01-01 17:57:33.433,26.25,17.59,16.86,0.31,0.46,0.87,-0.76,1.76,-1.27,22.48,50.02,-20.27,0.79,0.39,0.53,-0.13,4.55,1.21
1900-01-01 17:57:33.479,28.21,16.85,16.82,0.29,0.48,0.85,-1.6,2.84,0.67,22.58,49.82,-20.09,0.77,0.39,0.53,-1.72,3.0,2.08
1900-01-01 17:57:33.575,26.93,16.11,17.09,0.28,0.46,0.85,-0.82,1.11,1.02,20.64,50.49,-19.78,0.77,0.35,0.53,-1.38,2.79,0.37
1900-01-01 17:57:33.668,26.24,15.5,17.4,0.26,0.44,0.85,-0.71,0.69,-0.27,20.52,51.21,-19.73,0.76,0.34,0.5,-1.29,1.7,-0.13
1900-01-01 17:57:33.716,26.19,16.16,17.52,0.28,0.44,0.85,-1.21,1.7,-1.87,20.77,50.69,-19.76,0.77,0.35,0.52,-1.57,1.52,-0.7
1900-01-01 17:57:33.809,27.02,17.21,17.39,0.3,0.47,0.86,-1.01,0.98,-2.6,21.76,51.0,-19.88,0.79,0.38,0.52,-2.1,1.5,-0.6
1900-01-01 17:57:33.903,27.68,15.97,17.15,0.28,0.47,0.86,-0.42,0.85,-2.02,22.63,49.79,-19.98,0.77,0.39,0.52,-1.63,3.54,-0.13
1900-01-01 17:57:33.948,26.92,15.4,17.0,0.27,0.46,0.87,-0.6,-0.18,-1.78,21.45,49.89,-20.01,0.78,0.37,0.54,-0.96,0.69,-0.85
1900-01-01 17:57:34.041,27.33,15.41,16.88,0.27,0.47,0.87,-0.52,-1.12,-1.29,22.21,49.65,-20.15,0.77,0.38,0.53,-1.08,0.72,0.1
1900-01-01 17:57:34.137,27.5,16.0,16.84,0.28,0.46,0.85,-1.15,-0.79,-1.08,22.79,49.75,-20.14,0.76,0.38,0.51,-0.67,0.8,0.42
1900-01-01 17:57:34.181,27.09,15.79,16.84,0.28,0.46,0.87,-1.3,-0.72,-0.44,21.87,50.35,-20.08,0.78,0.38,0.53,-1.43,0.27,1.05
1900-01-01 17:57:34.276,26.88,16.12,16.93,0.28,0.46,0.86,-0.99,-1.68,0.4,21.61,51.06,-19.93,0.77,0.37,0.51,-0.66,1.48,0.82
1900-01-01 17:57:34.323,27.39,16.16,17.15,0.28,0.47,0.85,-1.63,-1.46,0.08,22.17,50.54,-19.81,0.77,0.38,0.51,-0.44,0.15,1.01
1900-01-01 17:57:34.416,26.82,16.39,17.32,0.29,0.46,0.86,0.08,-2.53,0.07,21.31,51.1,-19.67,0.78,0.36,0.51,0.08,1.95,-0.2
1900-01-01 17:57:34.509,26.72,16.54,17.49,0.28,0.45,0.84,-1.38,-1.04,-0.15,20.92,50.97,-19.71,0.76,0.35,0.51,-0.92,0.6,0.21
1900-01-01 17:57:34.556,26.43,16.47,17.62,0.29,0.45,0.87,-1.17,-1.86,-0.65,21.04,51.3,-19.68,0.79,0.36,0.52,-0.75,0.09,-0.23
1900-01-01 17:57:34.651,27.19,17.02,17.68,0.3,0.46,0.85,-2.06,-1.21,-0.54,21.77,51.52,-19.73,0.77,0.37,0.49,-1.13,0.44,-0.32
