Time,Roll2,Pitch2,Yaw2,AccX2,AccY2,AccZ2,RotX2,RotY2,RotZ2,Roll1,Pitch1,Yaw1,AccX1,AccY1,AccZ1,RotX1,RotY1,RotZ1
1900-01-01 12:18:41.970,39.22,7.92,0.46,0.14,0.63,0.76,1.86,-0.93,-0.83,26.24,18.24,-0.25,0.3,0.43,0.81,-0.26,0.16,-0.37
1900-01-01 12:18:42.065,39.97,9.27,0.49,0.16,0.64,0.75,0.79,0.26,-0.99,27.15,18.99,-0.32,0.32,0.44,0.81,-0.42,0.66,0.26
1900-01-01 12:18:42.112,39.98,9.02,0.5,0.16,0.64,0.75,-0.5,0.03,-1.11,27.19,19.0,-0.29,0.32,0.44,0.8,-1.15,1.4,0.21
1900-01-01 12:18:42.207,39.94,8.55,0.49,0.15,0.64,0.75,-0.69,-0.34,-1.02,26.7,18.88,-0.26,0.31,0.44,0.81,-0.98,1.5,0.0
1900-01-01 12:18:42.255,40.14,8.95,0.49,0.16,0.64,0.75,-0.39,-0.42,-0.87,27.29,18.83,-0.27,0.31,0.44,0.8,-1.5,1.27,-0.05
1900-01-01 12:18:42.348,39.74,8.73,0.52,0.15,0.64,0.75,-0.5,-0.21,-1.08,26.8,18.87,-0.29,0.31,0.44,0.81,-1.25,1.27,-0.03
1900-01-01 12:18:42.442,40.13,8.83,0.51,0.15,0.64,0.75,-0.61,-0.09,-1.02,27.15,18.95,-0.3,0.31,0.44,0.8,-1.56,1.31,0.11
1900-01-01 12:18:42.489,39.93,8.73,0.51,0.15,0.64,0.75,-0.69,-0.26,-0.98,26.73,18.66,-0.29,0.31,0.44,0.81,-1.25,1.44,0.02
1900-01-01 12:18:42.583,40.09,8.87,0.52,0.15,0.64,0.75,-0.6,-0.31,-0.85,26.86,18.92,-0.3,0.32,0.44,0.81,-1.64,1.31,0.0
1900-01-01 12:18:42.630,40.0,8.71,0.55,0.15,0.64,0.75,-0.59,-0.37,-1.03,26.87,18.82,-0.31,0.31,0.44,0.81,-1.38,1.27,-0.11
1900-01-01 12:18:42.724,40.12,8.85,0.55,0.15,0.64,0.75,-1.15,-0.21,-1.06,26.79,18.88,-0.33,0.31,0.44,0.81,-1.69,1.45,0.01
1900-01-01 12:18:42.818,39.75,8.89,0.55,0.15,0.64,0.75,-0.93,-0.34,-1.2,27.56,19.02,-0.34,0.32,0.45,0.8,-0.63,1.7,0.11
1900-01-01 12:18:42.866,38.0,9.78,0.53,0.17,0.62,0.77,-4.56,-0.46,-1.11,26.01,20.28,-0.33,0.34,0.42,0.8,0.54,4.66,0.93
1900-01-01 12:18:42.960,39.62,8.7,0.52,0.15,0.64,0.75,-0.71,1.05,-2.78,28.02,17.71,-0.2,0.29,0.46,0.8,-1.04,9.69,-0.13
1900-01-01 12:18:43.054,39.97,6.99,0.25,0.12,0.63,0.74,-1.95,2.18,-2.19,27.38,16.4,-0.23,0.27,0.44,0.81,-2.27,4.29,2.5
1900-01-01 12:18:43.102,39.25,8.52,0.08,0.15,0.63,0.76,-2.31,0.95,-1.69,27.05,17.18,0.15,0.29,0.44,0.81,-3.09,4.98,1.39
1900-01-01 12:18:43.198,39.66,8.01,-0.02,0.14,0.64,0.76,-1.51,0.73,-1.5,27.21,16.86,0.35,0.28,0.44,0.82,-2.04,5.37,4.95
1900-01-01 12:18:43.246,38.71,7.51,-0.09,0.13,0.62,0.76,-0.69,0.32,-1.44,25.89,16.21,1.09,0.27,0.42,0.83,-2.37,5.13,3.44
1900-01-01 12:18:43.341,38.65,7.43,-0.15,0.13,0.62,0.77,-1.22,0.4,-0.81,25.73,16.46,1.6,0.27,0.42,0.83,-4.75,2.82,-0.08
1900-01-01 12:18:43.389,38.09,7.28,-0.11,0.13,0.62,0.78,-1.02,0.92,-1.08,25.37,16.07,1.58,0.27,0.42,0.84,-4.18,3.33,0.15
1900-01-01 12:18:43.484,39.25,6.49,-0.12,0.11,0.62,0.76,-0.1,0.4,-0.43,24.76,14.9,1.6,0.25,0.4,0.84,-3.44,1.09,-0.95
1900-01-01 12:18:43.580,37.66,7.26,-0.02,0.13,0.61,0.78,-0.97,-0.22,-0.74,24.46,16.28,1.44,0.27,0.4,0.84,-0.73,0.36,-0.63
1900-01-01 12:18:43.628,38.18,7.63,0.02,0.13,0.63,0.79,-1.44,0.11,-0.72,24.98,16.32,1.34,0.27,0.41,0.84,-1.85,1.91,-0.89
1900-01-01 12:18:43.723,38.77,6.61,0.07,0.11,0.62,0.77,-0.44,-0.46,-1.06,23.79,15.19,1.2,0.25,0.39,0.84,-1.08,0.53,-0.5
1900-01-01 12:18:43.770,37.67,7.32,0.07,0.13,0.61,0.78,1.34,-0.21,-2.18,25.11,16.1,1.11,0.27,0.41,0.84,1.06,0.76,-0.29
1900-01-01 12:18:43.866,38.26,7.26,-0.1,0.13,0.62,0.78,-0.43,-0.12,-1.57,25.35,16.72,1.06,0.28,0.41,0.82,0.23,3.0,-1.06
1900-01-01 12:18:43.961,38.55,6.29,-0.18,0.11,0.62,0.77,-0.3,-0.06,-1.6,25.63,14.96,0.89,0.25,0.42,0.84,0.0,0.89,-0.15
1900-01-01 12:18:44.010,39.08,6.89,-0.27,0.12,0.62,0.76,1.87,-0.23,-1.18,25.58,14.62,0.86,0.25,0.42,0.84,1.93,-2.34,1.44
1900-01-01 12:18:44.104,39.68,5.61,-0.29,0.1,0.63,0.76,0.27,-0.45,-0.63,26.57,15.13,1.07,0.26,0.44,0.84,5.11,-8.05,4.22
1900-01-01 12:18:44.151,38.61,6.08,-0.23,0.11,0.62,0.77,0.05,-2.05,-0.9,26.49,18.22,1.7,0.3,0.43,0.81,6.13,-5.63,2.84
1900-01-01 12:18:44.246,39.02,6.28,-0.2,0.11,0.63,0.77,5.06,-5.01,-1.24,27.94,18.99,2.12,0.31,0.45,0.79,12.22,1.68,-0.7
1900-01-01 12:18:44.342,41.0,7.65,-0.23,0.13,0.65,0.74,5.88,-3.76,1.09,32.78,18.14,2.01,0.3,0.52,0.76,6.34,0.97,-3.29
1900-01-01 12:18:44.389,41.45,9.86,0.09,0.17,0.66,0.72,-1.24,-0.51,1.43,32.24,19.59,1.5,0.32,0.51,0.75,-3.44,-1.85,-5.46
1900-01-01 12:18:44.485,40.94,10.77,0.47,0.19,0.66,0.73,-1.59,-0.47,0.37,31.83,19.83,0.66,0.33,0.51,0.76,-4.7,-1.04,-2.02
1900-01-01 12:18:44.533,39.38,9.79,0.68,0.17,0.64,0.76,-1.5,-0.88,-0.6,29.66,20.23,0.34,0.34,0.48,0.78,-1.51,-0.9,-0.11
1900-01-01 12:18:44.629,40.1,8.34,0.75,0.14,0.64,0.75,-0.05,0.34,-0.34,30.86,20.01,0.32,0.33,0.49,0.76,-0.18,-2.69,-1.34
1900-01-01 12:18:44.724,40.47,8.67,0.85,0.15,0.65,0.75,-0.5,-0.18,-1.14,30.98,19.08,0.11,0.32,0.5,0.77,0.1,1.74,1.22
1900-01-01 12:18:44.771,41.72,9.02,0.84,0.16,0.66,0.73,0.45,0.42,-0.53,32.88,18.85,0.28,0.32,0.53,0.76,-1.62,0.59,-0.63
1900-01-01 12:18:44.867,40.57,8.36,0.92,0.14,0.65,0.74,-0.49,-0.56,-0.19,30.02,18.6,0.18,0.31,0.49,0.79,-0.7,-0.06,-0.4
1900-01-01 12:18:44.915,40.33,9.24,1.05,0.16,0.65,0.75,-1.34,-0.54,-0.78,31.58,20.73,0.11,0.34,0.51,0.75,-1.32,0.32,-0.61
1900-01-01 12:18:45.010,40.71,8.42,1.09,0.15,0.65,0.74,0.18,-0.7,-1.44,31.35,19.54,0.01,0.32,0.51,0.76,0.19,0.85,1.25
1900-01-01 12:18:45.105,40.97,8.71,1.03,0.15,0.66,0.74,0.18,-0.9,-1.24,32.41,19.4,0.19,0.32,0.52,0.75,1.63,3.63,4.25
1900-01-01 12:18:45.152,40.18,9.27,1.0,0.16,0.64,0.74,-2.06,0.37,-0.63,30.77,20.74,0.82,0.34,0.5,0.76,-0.87,1.38,0.98
1900-01-01 12:18:45.247,40.79,8.52,1.07,0.15,0.65,0.74,-0.66,-0.11,-1.37,32.24,19.22,0.96,0.32,0.52,0.76,-0.78,0.79,1.84
1900-01-01 12:18:45.295,41.27,8.84,1.02,0.15,0.65,0.73,-0.18,0.12,-1.35,32.48,19.11,1.24,0.32,0.53,0.77,0.21,-5.49,4.4
1900-01-01 12:18:45.390,39.51,8.84,0.97,0.15,0.63,0.75,-2.14,0.24,-1.47,30.09,23.94,1.89,0.39,0.48,0.73,-4.06,-8.14,-0.37
1900-01-01 12:18:45.486,40.75,9.1,0.9,0.16,0.65,0.74,-0.37,0.41,-1.47,31.07,24.95,1.83,0.4,0.49,0.7,-13.46,2.02,-11.64
1900-01-01 12:18:45.533,41.17,8.08,0.84,0.14,0.65,0.73,-0.86,0.05,-1.63,32.89,16.53,0.04,0.29,0.55,0.81,-3.36,5.37,-2.5
1900-01-01 12:18:45.629,39.25,7.63,0.75,0.13,0.63,0.76,-5.77,0.63,-0.54,29.7,20.47,-0.34,0.34,0.48,0.77,-2.11,5.53,8.21
1900-01-01 12:18:45.677,38.3,7.97,0.83,0.14,0.61,0.77,-3.66,0.68,-0.91,27.53,21.27,0.89,0.35,0.45,0.78,0.92,4.34,4.72
1900-01-01 12:18:45.771,39.23,8.4,0.85,0.15,0.63,0.76,-1.09,-0.15,-1.01,29.7,21.06,1.6,0.35,0.48,0.77,-0.81,1.21,0.2
1900-01-01 12:18:45.818,39.18,8.02,0.85,0.14,0.63,0.76,-0.19,-0.33,-1.18,29.86,20.34,1.62,0.34,0.48,0.77,-0.07,0.66,0.31
1900-01-01 12:18:45.912,38.54,8.31,0.83,0.14,0.62,0.76,-0.84,-0.32,-0.85,29.0,21.04,1.66,0.35,0.47,0.77,-1.46,0.96,0.23
1900-01-01 12:18:46.007,39.48,8.06,0.86,0.14,0.64,0.76,-0.92,-0.21,-1.04,30.13,20.84,1.69,0.35,0.49,0.77,-0.56,1.6,0.77
1900-01-01 12:18:46.054,38.9,8.07,0.86,0.14,0.63,0.76,-1.2,0.07,-0.92,29.29,21.26,1.79,0.35,0.47,0.77,-1.27,1.47,-0.23
1900-01-01 12:18:46.148,39.24,8.07,0.88,0.14,0.63,0.76,-1.53,-0.21,-0.92,29.8,20.84,1.75,0.35,0.48,0.77,-1.32,0.79,0.49
1900-01-01 12:18:46.243,38.72,8.11,0.9,0.14,0.62,0.77,-1.85,-0.32,-0.86,29.71,21.07,1.82,0.35,0.48,0.77,-1.73,1.86,0.66
1900-01-01 12:18:46.290,38.34,7.99,0.93,0.14,0.62,0.77,-1.04,0.03,-0.9,29.49,21.02,1.91,0.35,0.48,0.77,-1.61,1.66,-0.19
1900-01-01 12:18:46.386,38.4,8.18,0.95,0.14,0.62,0.77,-0.79,-0.22,-0.98,29.18,20.98,1.87,0.35,0.48,0.78,-2.06,1.64,0.19
1900-01-01 12:18:46.433,38.64,8.18,0.96,0.14,0.62,0.77,-0.2,-0.21,-1.05,29.91,20.78,1.89,0.35,0.49,0.77,-2.44,0.53,-0.45
1900-01-01 12:18:46.529,38.31,8.15,0.96,0.14,0.62,0.77,-0.56,0.76,-0.66,28.48,20.67,1.81,0.34,0.47,0.79,-5.44,-0.72,-2.04
1900-01-01 12:18:46.576,38.31,7.76,1.02,0.13,0.62,0.77,0.24,0.45,-1.06,27.94,21.15,1.5,0.35,0.45,0.78,-5.53,-1.83,-5.69
1900-01-01 12:18:46.672,38.9,7.74,1.01,0.13,0.63,0.77,-0.31,-0.15,-0.94,28.04,21.3,0.62,0.35,0.45,0.78,-4.75,-1.98,-6.17
1900-01-01 12:18:46.767,39.55,7.81,1.03,0.14,0.64,0.76,-0.14,-0.37,-1.15,29.98,20.26,-0.32,0.34,0.49,0.77,-2.31,0.02,-2.47
1900-01-01 12:18:46.815,38.6,7.87,1.01,0.14,0.62,0.77,-0.79,0.15,-1.05,27.41,21.02,-0.71,0.35,0.45,0.79,-3.57,-0.73,-3.78
1900-01-01 12:18:46.910,38.47,7.5,1.01,0.13,0.62,0.77,0.0,-0.33,-1.47,29.41,20.38,-1.29,0.34,0.48,0.78,-1.08,1.2,-1.79
1900-01-01 12:18:46.958,37.78,7.87,0.95,0.14,0.61,0.78,-1.24,0.24,-0.91,27.76,21.3,-1.57,0.35,0.45,0.78,-2.15,1.66,-1.32
1900-01-01 12:18:47.052,38.68,7.48,0.97,0.13,0.62,0.77,0.02,-0.03,-1.0,27.91,20.5,-1.78,0.34,0.45,0.79,-2.76,0.87,-1.78
1900-01-01 12:18:47.148,38.92,7.57,0.97,0.13,0.63,0.77,-0.2,-0.49,-1.12,29.02,20.33,-2.06,0.34,0.47,0.78,-1.2,1.37,0.21
1900-01-01 12:18:47.195,38.68,7.39,0.96,0.13,0.62,0.77,0.37,-0.07,-2.29,29.14,19.49,-2.04,0.33,0.48,0.79,3.16,4.73,6.6
1900-01-01 12:18:47.290,38.99,7.48,0.77,0.13,0.63,0.76,-1.37,0.21,-0.99,29.64,20.9,-1.05,0.35,0.48,0.77,1.86,5.01,8.08
1900-01-01 12:18:47.338,38.3,7.48,0.78,0.13,0.62,0.77,-1.36,-0.34,-0.92,27.34,20.82,0.17,0.35,0.45,0.79,0.3,3.98,5.2
1900-01-01 12:18:47.433,38.3,7.15,0.8,0.12,0.62,0.77,0.31,-0.18,-0.71,28.64,20.34,0.94,0.34,0.47,0.78,-1.14,0.98,-0.16
1900-01-01 12:18:47.528,38.97,7.48,0.85,0.13,0.63,0.77,-0.2,-0.23,-0.37,28.3,21.08,0.91,0.35,0.46,0.78,-2.56,1.04,-1.13
1900-01-01 12:18:47.574,38.4,7.43,0.95,0.13,0.62,0.77,-0.98,-0.22,-0.66,28.08,21.02,0.73,0.35,0.46,0.78,0.18,1.89,0.72
1900-01-01 12:18:47.669,39.73,6.8,1.01,0.12,0.64,0.76,-0.85,-0.11,-0.83,28.61,20.0,0.83,0.33,0.46,0.78,2.31,1.56,2.39
1900-01-01 12:18:47.717,38.49,7.85,1.04,0.14,0.62,0.77,0.63,-0.91,-1.21,29.26,21.35,1.18,0.35,0.47,0.77,3.37,1.72,1.15
1900-01-01 12:18:47.810,38.73,7.89,1.02,0.14,0.63,0.77,-0.31,-0.62,-0.71,30.01,21.19,1.35,0.35,0.49,0.77,-1.58,0.96,0.2
1900-01-01 12:18:47.906,38.34,7.48,1.07,0.13,0.62,0.77,-0.95,-0.37,-0.84,29.45,21.31,1.37,0.35,0.48,0.77,-0.73,1.66,0.94
1900-01-01 12:18:47.954,39.92,7.66,1.1,0.13,0.64,0.76,-1.6,0.08,-0.79,29.63,20.82,1.51,0.35,0.48,0.77,-1.64,2.18,1.37
1900-01-01 12:18:48.049,39.06,7.42,1.14,0.13,0.63,0.76,-0.68,-0.53,-0.65,30.46,21.12,1.7,0.35,0.49,0.76,-3.05,2.14,-1.75
1900-01-01 12:18:48.096,38.7,6.98,1.2,0.12,0.62,0.77,1.11,-0.95,-0.94,28.62,20.17,1.43,0.33,0.46,0.78,-0.04,-0.01,-0.24
1900-01-01 12:18:48.192,38.54,7.83,1.21,0.14,0.62,0.77,0.22,0.06,-1.02,30.01,21.07,1.39,0.35,0.49,0.77,-0.81,0.92,0.73
1900-01-01 12:18:48.287,38.74,7.51,1.22,0.13,0.62,0.76,-1.07,0.1,-1.1,29.55,21.19,1.49,0.35,0.48,0.77,-1.37,1.47,0.41
1900-01-01 12:18:48.335,38.62,7.61,1.21,0.13,0.62,0.77,-1.08,-0.5,-0.82,29.66,21.31,1.54,0.35,0.48,0.76,-2.34,2.18,-0.07
1900-01-01 12:18:48.431,38.39,7.53,1.24,0.13,0.62,0.77,-0.69,-0.75,-0.95,29.35,20.58,1.52,0.34,0.48,0.78,-2.27,2.89,1.29
1900-01-01 12:18:48.479,38.19,7.45,1.26,0.13,0.62,0.77,-0.92,-0.09,-0.88,29.56,20.98,1.71,0.35,0.48,0.77,-1.58,2.05,2.34
1900-01-01 12:18:48.575,38.13,7.44,1.28,0.13,0.61,0.77,-0.68,-0.23,-1.09,28.97,20.36,2.06,0.34,0.47,0.78,0.18,3.84,4.34
1900-01-01 12:18:48.670,38.83,7.45,1.27,0.13,0.62,0.77,-0.07,-0.8,-1.11,29.55,21.26,2.7,0.35,0.48,0.77,1.8,4.17,5.45
1900-01-01 12:18:48.717,38.8,7.76,1.27,0.13,0.63,0.77,0.55,-0.87,-1.06,29.22,21.0,3.52,0.35,0.47,0.77,3.76,2.95,2.27
1900-01-01 12:18:48.812,39.1,8.22,1.26,0.14,0.63,0.76,-1.49,-0.2,-0.74,29.53,21.19,3.86,0.35,0.48,0.77,-0.91,1.52,0.91
1900-01-01 12:18:48.860,38.95,7.72,1.31,0.13,0.63,0.77,-0.6,-0.28,-1.1,30.34,20.66,3.99,0.34,0.49,0.76,-0.69,1.45,0.9
1900-01-01 12:18:48.955,38.85,7.58,1.3,0.13,0.63,0.77,-0.16,-0.35,-1.17,30.26,21.1,4.11,0.35,0.49,0.76,0.21,1.91,1.5
1900-01-01 12:18:49.051,38.7,7.87,1.28,0.14,0.62,0.77,-0.83,0.11,-0.78,30.22,21.26,4.33,0.35,0.49,0.76,-1.9,1.31,-0.37
1900-01-01 12:18:49.098,38.88,7.74,1.32,0.13,0.63,0.77,-0.21,-0.24,-1.02,30.32,20.86,4.27,0.35,0.49,0.76,-1.7,0.81,-0.72
1900-01-01 12:18:49.193,38.11,7.63,1.33,0.13,0.62,0.78,-0.98,-0.15,-0.44,29.07,21.4,4.15,0.35,0.47,0.77,-3.52,0.41,-0.44
1900-01-01 12:18:49.239,38.26,7.81,1.42,0.14,0.62,0.77,-1.49,-0.05,-0.5,29.53,21.51,4.08,0.36,0.48,0.77,-4.37,0.4,-2.66
1900-01-01 12:18:49.334,38.32,7.85,1.5,0.14,0.62,0.77,-2.54,-0.21,-0.29,28.89,21.6,3.66,0.36,0.47,0.77,-4.57,1.97,-1.03
1900-01-01 12:18:49.430,38.91,7.14,1.61,0.12,0.63,0.77,1.46,-1.23,-1.3,29.2,19.89,3.5,0.33,0.47,0.78,-0.16,0.26,0.32
1900-01-01 12:18:49.477,37.98,7.92,1.58,0.14,0.62,0.78,0.68,-0.5,-1.24,28.88,21.32,3.54,0.35,0.47,0.77,0.85,2.27,0.69
1900-01-01 12:18:49.572,38.85,8.85,1.55,0.16,0.63,0.77,0.27,-0.6,-0.99,30.76,22.57,3.63,0.37,0.5,0.75,-2.24,4.71,0.52
1900-01-01 12:18:49.620,37.98,9.14,1.55,0.16,0.62,0.77,1.56,-1.18,-0.67,28.76,21.43,3.7,0.36,0.47,0.78,-3.25,9.55,-1.44
1900-01-01 12:18:49.714,39.78,7.9,1.61,0.14,0.64,0.76,-1.19,-0.67,-0.44,28.52,18.22,3.47,0.31,0.47,0.8,-4.92,8.76,1.3
1900-01-01 12:18:49.762,38.56,8.94,1.7,0.15,0.62,0.76,-0.59,-0.77,-0.4,28.57,18.15,3.66,0.3,0.46,0.79,-0.13,7.98,3.25
1900-01-01 12:18:49.858,39.18,6.98,1.8,0.12,0.63,0.76,-1.09,0.74,-0.62,28.42,16.85,4.15,0.28,0.46,0.8,1.61,3.24,3.27
1900-01-01 12:18:49.952,38.31,7.05,1.86,0.12,0.62,0.77,-1.6,0.31,-0.56,28.67,16.67,4.63,0.28,0.46,0.8,1.4,4.53,2.76
1900-01-01 12:18:50.000,38.54,7.06,1.94,0.12,0.62,0.77,-0.56,0.37,-0.67,29.29,16.56,5.04,0.28,0.47,0.8,-2.08,0.31,-0.53
1900-01-01 12:18:50.096,38.82,8.57,2.0,0.15,0.64,0.78,-1.25,-0.39,-0.2,27.63,19.23,4.95,0.32,0.45,0.8,-5.36,2.1,-4.02
1900-01-01 12:18:50.143,37.95,8.41,2.12,0.15,0.61,0.77,-0.21,-0.95,-0.69,28.79,16.44,4.33,0.27,0.47,0.8,-4.96,2.26,-4.92
1900-01-01 12:18:50.237,38.26,7.99,2.18,0.14,0.62,0.77,-1.3,-0.19,-0.63,28.0,16.77,3.58,0.28,0.45,0.81,-4.13,2.07,-0.82
1900-01-01 12:18:50.331,38.19,8.95,2.24,0.16,0.62,0.77,-1.28,0.63,-0.84,27.83,17.38,3.44,0.29,0.45,0.8,-4.61,3.01,-0.01
1900-01-01 12:18:50.378,38.2,6.64,2.27,0.12,0.62,0.77,-3.5,2.27,-1.84,26.95,14.26,3.43,0.24,0.45,0.84,-1.6,1.78,0.05
1900-01-01 12:18:50.472,37.72,7.43,2.15,0.13,0.61,0.78,-2.12,1.26,-0.24,27.22,16.38,3.43,0.27,0.44,0.82,-2.54,0.98,0.52
1900-01-01 12:18:50.520,37.64,7.71,2.27,0.13,0.61,0.78,-0.66,0.3,-0.55,27.27,16.65,3.5,0.28,0.45,0.83,-2.95,0.22,-1.25
1900-01-01 12:18:50.613,38.04,7.07,2.35,0.12,0.61,0.76,0.45,-0.73,-0.49,25.62,15.91,3.3,0.26,0.41,0.82,-4.29,-1.0,-0.63
1900-01-01 12:18:50.707,36.75,7.71,2.43,0.13,0.6,0.79,0.78,-0.59,-1.48,25.63,17.41,3.2,0.29,0.42,0.83,-0.37,-0.48,-0.13
1900-01-01 12:18:50.754,38.1,7.75,2.36,0.13,0.62,0.77,-0.31,-0.53,-1.39,27.25,17.21,3.17,0.29,0.44,0.81,-0.27,0.4,0.05
1900-01-01 12:18:50.849,37.77,7.29,2.31,0.13,0.61,0.77,0.53,-0.55,-1.29,26.21,17.87,3.17,0.29,0.42,0.8,-0.23,1.11,0.39
1900-01-01 12:18:50.945,38.02,7.57,2.27,0.13,0.61,0.77,0.34,-0.42,-1.03,28.0,16.44,3.22,0.28,0.46,0.82,0.98,-0.37,-0.4
1900-01-01 12:18:50.992,39.39,7.19,2.28,0.12,0.63,0.75,2.37,0.04,0.01,27.79,16.61,3.15,0.28,0.45,0.81,-4.5,-6.29,-2.47
1900-01-01 12:18:51.087,37.19,7.44,2.44,0.13,0.61,0.79,-0.49,-0.79,-1.08,26.38,19.51,2.77,0.32,0.43,0.8,0.41,-3.18,-1.72
1900-01-01 12:18:51.135,38.59,7.99,2.43,0.14,0.63,0.77,-1.03,-0.31,-1.36,27.8,19.15,2.5,0.32,0.45,0.8,0.07,0.95,0.76
1900-01-01 12:18:51.229,38.91,7.65,2.38,0.13,0.63,0.76,-0.03,-0.23,-1.01,27.81,19.14,2.61,0.32,0.45,0.8,-0.26,-0.9,0.18
1900-01-01 12:18:51.276,38.66,7.53,2.39,0.13,0.62,0.77,-0.1,-0.56,-1.18,27.47,19.25,2.63,0.32,0.45,0.8,0.18,-0.69,0.04
1900-01-01 12:18:51.371,39.04,7.48,2.37,0.13,0.63,0.76,0.18,-0.93,-1.2,28.0,19.38,2.62,0.32,0.46,0.8,-0.6,-0.18,0.22
1900-01-01 12:18:51.466,38.69,7.41,2.34,0.13,0.62,0.77,-0.41,-1.01,-1.09,28.04,19.77,2.65,0.33,0.46,0.79,-0.15,0.36,0.02
1900-01-01 12:18:51.514,38.94,8.0,2.34,0.14,0.63,0.77,-0.46,-0.85,-0.89,28.34,20.11,2.64,0.33,0.46,0.78,-1.12,0.71,0.02
1900-01-01 12:18:51.610,38.79,8.0,2.36,0.14,0.63,0.77,-0.33,-0.36,-1.07,28.06,20.05,2.64,0.33,0.46,0.79,-1.16,0.98,0.18
1900-01-01 12:18:51.704,39.01,7.76,2.36,0.13,0.63,0.77,-0.65,-0.38,-0.98,28.49,19.69,2.66,0.33,0.46,0.79,-1.08,1.13,0.31
1900-01-01 12:18:51.752,38.71,7.63,2.36,0.13,0.62,0.77,-0.42,-0.32,-0.82,28.07,20.12,2.69,0.33,0.46,0.79,-1.06,1.07,0.11
1900-01-01 12:18:51.847,39.02,7.88,2.4,0.14,0.63,0.76,-0.11,-0.44,-0.88,28.45,20.1,2.7,0.33,0.46,0.78,-0.95,0.97,0.08
1900-01-01 12:18:51.895,38.82,7.8,2.42,0.14,0.63,0.77,-0.35,-0.49,-0.89,28.21,20.24,2.71,0.34,0.46,0.79,-1.05,0.94,0.29
1900-01-01 12:18:51.989,38.78,8.02,2.45,0.14,0.63,0.77,-0.88,-0.17,-0.95,28.32,20.48,2.74,0.34,0.46,0.78,-1.27,1.18,0.07
1900-01-01 12:18:52.036,39.29,7.79,2.46,0.14,0.63,0.76,-0.33,-0.3,-0.98,28.53,20.02,2.74,0.33,0.46,0.79,-1.02,1.06,0.03
1900-01-01 12:18:52.131,38.84,7.64,2.47,0.13,0.62,0.76,-0.09,-0.53,-0.92,28.43,20.16,2.74,0.33,0.46,0.78,-1.32,0.66,-0.07
1900-01-01 12:18:52.227,39.09,7.88,2.49,0.14,0.63,0.76,-1.12,-0.73,-0.71,28.66,20.21,2.72,0.34,0.47,0.78,-2.41,0.53,0.65
1900-01-01 12:18:52.275,38.42,8.11,2.54,0.14,0.62,0.77,-0.62,-0.53,-0.97,28.06,20.63,2.81,0.34,0.46,0.79,-1.37,0.76,-0.42
1900-01-01 12:18:52.370,38.9,7.92,2.55,0.14,0.63,0.77,-0.41,-0.42,-0.92,28.13,20.49,2.74,0.34,0.46,0.79,-1.43,0.55,-0.16
1900-01-01 12:18:52.417,39.09,7.8,2.57,0.14,0.63,0.76,-0.59,-0.32,-1.07,28.26,20.47,2.71,0.34,0.46,0.78,-1.02,0.17,-0.29
1900-01-01 12:18:52.511,39.12,8.22,2.57,0.14,0.63,0.76,-2.47,-0.49,-0.66,28.54,20.91,2.65,0.35,0.46,0.78,-4.14,-0.79,0.45
1900-01-01 12:18:52.604,37.74,7.76,2.63,0.13,0.61,0.78,-0.64,-0.12,-1.47,27.46,21.11,2.71,0.35,0.45,0.79,0.14,0.79,-0.82
1900-01-01 12:18:52.652,38.67,7.76,2.56,0.13,0.62,0.77,-1.22,0.02,-0.43,27.14,21.35,2.58,0.35,0.44,0.79,-1.87,0.83,0.02
1900-01-01 12:18:52.747,39.01,7.94,2.66,0.14,0.63,0.76,0.24,-0.26,-1.12,28.84,20.84,2.57,0.35,0.47,0.78,-0.69,0.94,-0.44
1900-01-01 12:18:52.841,38.46,7.87,2.64,0.14,0.62,0.77,0.36,-0.73,-1.0,27.54,20.97,2.5,0.35,0.45,0.79,-0.79,1.14,-0.92
1900-01-01 12:18:52.889,38.92,7.68,2.65,0.13,0.63,0.76,-0.42,-0.57,-0.98,28.47,20.74,2.35,0.34,0.46,0.78,-1.11,0.82,-0.36
1900-01-01 12:18:52.985,38.76,8.0,2.66,0.14,0.63,0.77,-0.51,-0.44,-0.74,28.22,21.07,2.29,0.35,0.46,0.78,-1.54,1.0,-0.13
1900-01-01 12:18:53.032,38.79,8.04,2.71,0.14,0.63,0.77,-0.86,-0.07,-0.86,28.28,20.88,2.26,0.35,0.46,0.78,-1.6,1.08,0.11
1900-01-01 12:18:53.127,38.55,7.9,2.73,0.14,0.62,0.77,-1.23,0.25,-0.9,28.06,21.03,2.27,0.35,0.46,0.78,-1.94,1.57,-0.09
1900-01-01 12:18:53.173,39.42,7.65,2.76,0.13,0.64,0.76,-0.37,-0.33,-0.88,28.64,20.46,2.25,0.34,0.46,0.78,-1.34,0.97,-0.08
1900-01-01 12:18:53.268,38.83,7.83,2.78,0.14,0.62,0.76,-0.38,-0.21,-0.93,28.23,21.13,2.23,0.35,0.46,0.78,-0.73,0.61,0.3
1900-01-01 12:18:53.362,38.45,8.0,2.8,0.14,0.62,0.77,-0.89,0.19,-0.76,27.95,21.28,2.26,0.35,0.46,0.78,-1.48,1.95,-0.2
1900-01-01 12:18:53.409,38.88,7.49,2.84,0.13,0.63,0.76,-0.37,-0.68,-1.0,28.1,20.63,2.22,0.34,0.46,0.78,-1.27,1.08,0.05
1900-01-01 12:18:53.505,38.74,8.1,2.85,0.14,0.63,0.77,-0.2,-0.43,-0.83,28.3,21.07,2.22,0.35,0.46,0.78,-0.91,1.15,0.19
1900-01-01 12:18:53.600,38.67,8.0,2.88,0.14,0.62,0.77,-0.33,-0.26,-0.8,27.99,21.0,2.24,0.35,0.46,0.79,-1.17,1.26,0.13
1900-01-01 12:18:53.648,38.59,7.83,2.92,0.14,0.62,0.77,-0.63,-0.31,-0.7,28.13,21.02,2.26,0.35,0.46,0.78,-1.14,1.14,0.02
1900-01-01 12:18:53.740,38.79,7.99,2.97,0.14,0.63,0.77,-0.36,-0.16,-0.97,28.24,21.23,2.25,0.35,0.46,0.78,-0.99,1.31,0.0
1900-01-01 12:18:53.786,38.71,7.79,2.98,0.13,0.62,0.76,-0.63,-0.16,-0.94,28.06,20.92,2.24,0.35,0.46,0.78,-1.28,1.32,0.04
1900-01-01 12:18:53.880,38.81,7.93,2.99,0.14,0.63,0.77,-0.57,-0.37,-0.76,28.13,20.97,2.24,0.35,0.46,0.78,-1.78,1.18,-0.07
1900-01-01 12:18:53.976,38.73,7.85,3.04,0.14,0.62,0.77,-0.36,-0.4,-1.06,28.28,20.95,2.22,0.35,0.46,0.78,-1.24,1.11,-0.08
1900-01-01 12:18:54.024,38.59,7.96,3.04,0.14,0.62,0.77,-1.58,0.47,-0.75,28.08,21.12,2.2,0.35,0.46,0.78,-2.16,0.58,0.69
1900-01-01 12:18:54.118,38.84,7.84,3.08,0.14,0.62,0.76,-1.04,0.66,-1.06,28.19,21.31,2.3,0.35,0.46,0.78,-1.63,1.23,0.13
1900-01-01 12:18:54.166,38.6,7.68,3.08,0.13,0.62,0.77,-0.54,-0.68,-1.12,27.68,21.43,2.31,0.35,0.45,0.78,-1.42,1.16,-0.26
1900-01-01 12:18:54.260,38.6,7.7,3.07,0.13,0.62,0.77,-0.21,-0.76,-0.99,27.88,21.25,2.26,0.35,0.45,0.78,-0.93,0.87,-0.28
1900-01-01 12:18:54.356,38.8,7.85,3.07,0.14,0.63,0.77,-0.57,-0.85,-0.99,28.02,21.08,2.21,0.35,0.46,0.78,-1.34,1.09,-0.3
1900-01-01 12:18:54.403,38.96,7.91,3.08,0.14,0.63,0.76,-1.16,-0.53,-1.04,28.29,20.93,2.15,0.35,0.46,0.78,-0.64,1.59,-1.61
1900-01-01 12:18:54.498,36.18,7.47,3.08,0.13,0.58,0.78,-1.19,0.42,0.0,23.44,22.37,1.9,0.37,0.38,0.8,-9.92,-5.0,-15.67
1900-01-01 12:18:54.546,38.86,7.36,3.24,0.13,0.63,0.77,2.52,-0.68,-1.41,28.06,20.58,-0.49,0.34,0.46,0.79,-5.59,-7.94,-17.72
1900-01-01 12:18:54.641,39.83,7.83,3.18,0.14,0.64,0.76,1.4,-0.36,-1.32,30.82,20.21,-3.21,0.34,0.5,0.77,-1.84,-2.73,-7.71
1900-01-01 12:18:54.735,39.02,7.97,3.14,0.14,0.63,0.76,-1.31,-0.32,-0.47,27.73,20.73,-4.39,0.34,0.45,0.79,-0.57,0.85,0.23
1900-01-01 12:18:54.783,38.22,7.66,3.23,0.13,0.62,0.77,-1.56,-0.15,-0.8,28.33,21.4,-4.36,0.35,0.46,0.78,1.68,1.59,2.04
1900-01-01 12:18:54.878,41.58,8.16,3.26,0.14,0.67,0.74,-0.66,-0.04,-1.03,30.9,19.92,-4.06,0.33,0.5,0.77,0.47,4.94,9.03
1900-01-01 12:18:54.925,38.04,7.52,3.26,0.13,0.61,0.77,-1.78,0.54,-0.16,26.27,21.77,-2.7,0.36,0.43,0.79,-2.19,1.45,0.33
1900-01-01 12:18:55.019,39.45,7.73,3.4,0.13,0.63,0.76,-0.16,-0.53,-0.6,28.97,21.02,-2.66,0.35,0.47,0.77,-2.16,0.91,-0.26
1900-01-01 12:18:55.114,38.47,7.9,3.47,0.14,0.62,0.77,-0.39,-0.4,-0.47,28.34,21.48,-2.71,0.35,0.46,0.78,-2.54,0.95,-1.16
1900-01-01 12:18:55.162,38.81,7.93,3.55,0.14,0.63,0.76,-0.89,-0.47,-0.95,28.93,21.07,-2.89,0.35,0.47,0.78,-1.32,1.49,-0.28
1900-01-01 12:18:55.257,38.93,7.99,3.57,0.14,0.62,0.76,-0.18,-0.85,-1.2,28.54,20.55,-2.94,0.34,0.46,0.78,-1.17,1.47,-0.38
1900-01-01 12:18:55.305,38.2,7.95,3.54,0.14,0.62,0.77,0.25,-0.76,-0.99,28.26,21.09,-3.01,0.35,0.46,0.78,-0.92,0.78,0.6
1900-01-01 12:18:55.400,38.95,8.2,3.55,0.14,0.63,0.76,-0.39,0.21,-1.18,28.97,20.99,-2.93,0.35,0.47,0.78,-1.28,1.19,0.34
1900-01-01 12:18:55.494,38.63,7.72,3.53,0.13,0.62,0.77,-0.94,0.02,-1.03,28.37,21.37,-2.89,0.35,0.46,0.77,-1.56,1.42,0.18
1900-01-01 12:18:55.541,38.71,7.87,3.53,0.14,0.62,0.77,-0.78,-0.29,-1.04,28.59,21.08,-2.87,0.35,0.47,0.78,-1.7,1.39,0.08
1900-01-01 12:18:55.636,38.79,7.66,3.53,0.13,0.63,0.77,-0.71,-0.13,-1.01,28.02,21.15,-2.86,0.35,0.45,0.78,-1.68,1.08,0.09
1900-01-01 12:18:55.683,38.9,7.86,3.54,0.14,0.63,0.77,-0.35,-0.31,-1.0,28.56,21.09,-2.86,0.35,0.47,0.78,-1.37,1.13,0.01
1900-01-01 12:18:55.777,38.69,7.68,3.54,0.13,0.62,0.77,-0.73,-0.34,-0.98,27.98,20.79,-2.87,0.34,0.45,0.78,-1.73,0.63,-0.32
1900-01-01 12:18:55.871,38.29,7.85,3.55,0.14,0.62,0.77,-1.38,-0.27,-0.84,28.45,21.11,-2.92,0.35,0.46,0.78,-1.35,1.46,-0.16
1900-01-01 12:18:55.917,38.31,7.64,3.58,0.13,0.62,0.77,-0.95,-0.02,-0.83,27.97,21.1,-2.96,0.35,0.46,0.78,-1.69,1.27,0.48
1900-01-01 12:18:56.013,38.36,7.76,3.62,0.13,0.62,0.77,-1.58,0.29,-0.8,28.51,21.25,-2.89,0.35,0.46,0.78,-1.48,2.13,0.97
1900-01-01 12:18:56.061,38.18,7.47,3.65,0.13,0.62,0.77,-1.05,0.3,-0.85,27.87,21.06,-2.75,0.35,0.45,0.78,-1.36,1.65,0.92
1900-01-01 12:18:56.157,38.61,7.4,3.68,0.13,0.62,0.77,-1.11,-0.13,-0.88,27.48,20.92,-2.62,0.35,0.45,0.79,-0.76,1.44,1.95
1900-01-01 12:18:56.252,39.58,7.82,3.71,0.14,0.65,0.77,-3.51,0.41,-2.06,27.81,20.41,-2.33,0.34,0.46,0.8,5.77,-2.42,2.25
1900-01-01 12:18:56.300,37.33,7.21,3.55,0.13,0.61,0.79,-3.66,-0.26,-0.22,29.8,21.99,-2.0,0.37,0.49,0.78,5.9,-7.23,-1.99
1900-01-01 12:18:56.396,37.84,8.06,3.68,0.14,0.62,0.78,-1.66,0.48,-0.59,28.05,24.93,-2.31,0.4,0.45,0.74,-0.79,-4.24,-4.12
1900-01-01 12:18:56.442,37.99,7.6,3.75,0.13,0.62,0.78,1.47,-0.05,-0.63,32.01,22.63,-2.95,0.37,0.51,0.73,1.02,5.81,-3.14
1900-01-01 12:18:56.537,36.29,7.46,3.81,0.13,0.59,0.79,-0.63,-0.35,-0.52,29.36,23.19,-3.43,0.38,0.48,0.75,-2.4,4.67,1.33
1900-01-01 12:18:56.631,37.21,7.17,3.89,0.12,0.6,0.78,1.96,-1.44,-1.77,30.09,22.21,-3.24,0.37,0.49,0.75,-1.34,5.88,6.5
1900-01-01 12:18:56.677,38.05,7.56,3.78,0.13,0.61,0.77,-0.92,-0.2,-0.56,28.9,21.89,-2.26,0.36,0.47,0.77,-1.31,2.56,2.82
1900-01-01 12:18:56.774,37.97,7.34,3.85,0.13,0.61,0.78,0.69,-1.29,-0.86,29.74,21.88,-1.84,0.36,0.48,0.76,-0.55,0.17,1.24
1900-01-01 12:18:56.868,37.69,8.01,3.88,0.14,0.61,0.78,0.53,-1.44,-0.9,30.89,23.12,-1.66,0.38,0.49,0.74,-1.76,6.56,6.15
1900-01-01 12:18:56.914,37.46,7.48,3.9,0.13,0.6,0.78,1.47,-1.66,-1.38,29.44,21.21,-0.73,0.35,0.48,0.78,-1.4,8.98,12.67
1900-01-01 12:18:57.009,41.51,8.02,3.85,0.14,0.67,0.74,-0.31,-0.28,-0.22,27.38,21.32,1.19,0.35,0.45,0.79,-3.44,1.44,4.41
1900-01-01 12:18:57.055,38.65,8.41,3.97,0.15,0.62,0.77,1.4,-0.46,-0.84,27.12,22.66,1.85,0.38,0.44,0.78,-2.24,-3.29,-2.78
1900-01-01 12:18:57.150,39.31,8.29,4.0,0.14,0.63,0.76,0.28,-0.05,-1.08,28.24,23.45,1.42,0.39,0.46,0.76,-4.47,-2.82,-4.67
1900-01-01 12:18:57.245,39.47,7.74,4.0,0.13,0.64,0.76,-1.48,0.0,-0.98,28.47,22.81,0.7,0.38,0.46,0.77,-4.31,-2.52,-3.31
1900-01-01 12:18:57.292,38.77,7.91,4.01,0.14,0.63,0.77,-0.31,0.09,-1.38,27.03,23.27,0.18,0.38,0.44,0.77,-2.74,1.35,-5.29
1900-01-01 12:18:57.387,39.55,8.22,3.95,0.14,0.64,0.76,-0.32,-0.44,-1.53,28.38,22.76,-0.63,0.38,0.46,0.77,-3.92,0.81,-4.83
1900-01-01 12:18:57.435,38.29,7.46,3.88,0.13,0.62,0.77,-1.2,-0.1,-1.58,28.09,22.53,-1.37,0.37,0.46,0.77,-2.01,2.58,-1.85
1900-01-01 12:18:57.530,38.35,7.49,3.8,0.13,0.62,0.77,-2.28,0.1,-1.47,27.07,22.83,-1.66,0.37,0.44,0.77,-0.22,2.53,0.03
1900-01-01 12:18:57.623,39.12,7.49,3.73,0.13,0.63,0.77,-1.41,-1.13,-2.2,30.19,21.53,-1.67,0.36,0.49,0.76,2.49,7.98,8.5
1900-01-01 12:18:57.671,37.19,7.39,3.56,0.13,0.61,0.79,-2.32,-1.09,-0.78,27.59,21.82,-0.38,0.36,0.45,0.78,2.43,13.36,14.14
1900-01-01 12:18:57.764,37.97,7.73,3.6,0.13,0.61,0.77,-0.04,-1.64,-0.14,27.41,20.06,1.76,0.33,0.45,0.8,2.89,11.6,10.53
1900-01-01 12:18:57.811,38.48,7.76,3.73,0.13,0.62,0.77,0.28,-1.29,-0.74,27.7,19.67,3.36,0.33,0.45,0.8,1.98,5.63,5.61
1900-01-01 12:18:57.906,38.96,7.92,3.78,0.14,0.63,0.76,1.75,0.36,-0.2,27.81,19.36,4.2,0.33,0.46,0.81,-3.63,-1.85,0.54
1900-01-01 12:18:58.001,38.59,7.91,3.91,0.14,0.62,0.77,-0.56,0.85,-0.24,26.34,23.03,4.27,0.37,0.42,0.76,-6.01,-6.97,-2.74
1900-01-01 12:18:58.048,38.66,8.36,4.03,0.14,0.62,0.77,0.4,0.69,-0.79,26.35,23.01,3.84,0.38,0.43,0.77,-3.79,3.08,-5.99
1900-01-01 12:18:58.144,40.22,7.92,4.07,0.14,0.65,0.75,-0.95,-0.07,-0.95,27.78,19.29,2.93,0.33,0.46,0.82,-2.5,2.27,-0.4
1900-01-01 12:18:58.191,38.34,6.66,4.08,0.12,0.63,0.79,-1.21,-1.26,-1.45,27.41,19.73,2.86,0.33,0.45,0.79,0.81,4.84,1.29
1900-01-01 12:18:58.286,38.44,8.16,4.02,0.14,0.61,0.76,-1.69,-0.08,-1.14,27.43,20.03,3.05,0.34,0.46,0.81,-3.21,3.4,1.04
1900-01-01 12:18:58.380,39.23,7.6,4.01,0.13,0.63,0.76,-1.39,-0.82,-1.2,26.89,19.77,3.19,0.33,0.44,0.8,-2.31,4.63,0.78
1900-01-01 12:18:58.427,38.89,7.96,3.99,0.14,0.63,0.77,-0.64,-0.94,-0.9,27.08,19.53,3.3,0.32,0.44,0.8,-2.46,2.62,-0.41
1900-01-01 12:18:58.522,38.14,7.7,4.01,0.13,0.62,0.77,-0.89,-0.73,-0.69,26.3,18.97,3.23,0.32,0.43,0.82,-2.22,1.85,-0.27
1900-01-01 12:18:58.568,38.34,8.18,4.06,0.14,0.62,0.77,-0.12,-0.21,-1.54,27.05,19.29,3.18,0.32,0.44,0.8,0.47,0.57,0.61
1900-01-01 12:18:58.663,37.65,7.2,3.99,0.12,0.61,0.78,-0.62,0.39,-1.5,27.86,18.83,3.27,0.31,0.45,0.8,-0.35,0.82,0.89
1900-01-01 12:18:58.758,37.48,8.06,3.92,0.14,0.6,0.77,0.0,0.1,-1.26,26.8,20.05,3.39,0.33,0.44,0.8,-1.01,-2.08,-1.03
1900-01-01 12:18:58.806,37.95,8.12,3.89,0.14,0.61,0.77,0.12,0.37,-1.37,28.14,20.18,3.23,0.33,0.46,0.78,0.21,-2.55,-1.36
1900-01-01 12:18:58.902,37.62,7.8,3.84,0.13,0.61,0.78,-1.16,1.64,-0.03,26.08,20.81,3.02,0.34,0.43,0.8,-0.96,-0.71,-0.45
1900-01-01 12:18:58.948,37.77,8.01,3.99,0.14,0.61,0.77,-0.38,0.58,0.41,28.71,20.95,2.94,0.35,0.47,0.78,-1.14,1.35,0.37
1900-01-01 12:18:59.044,37.66,7.14,4.21,0.12,0.61,0.78,-0.51,-0.71,0.57,25.74,20.62,2.99,0.34,0.42,0.8,-2.35,0.01,-0.25
1900-01-01 12:18:59.140,37.84,7.3,4.46,0.13,0.62,0.78,-0.53,-1.63,-1.27,27.0,20.09,2.94,0.33,0.44,0.8,-1.14,2.01,-0.91
1900-01-01 12:18:59.188,37.1,7.97,4.42,0.14,0.6,0.78,-1.27,0.32,-2.45,26.72,20.97,2.79,0.35,0.43,0.79,-0.66,2.05,-0.17
1900-01-01 12:18:59.284,38.18,7.9,4.21,0.14,0.61,0.77,-1.62,0.85,-1.91,27.6,20.78,2.76,0.34,0.45,0.79,-1.63,1.13,0.34
1900-01-01 12:18:59.330,37.6,7.34,4.08,0.13,0.6,0.77,-0.8,-0.76,-1.34,26.88,20.47,2.8,0.34,0.44,0.79,-0.72,1.37,-0.38
1900-01-01 12:18:59.425,38.0,7.64,4.03,0.13,0.6,0.76,-1.2,-0.14,-0.66,27.74,19.17,2.73,0.32,0.45,0.8,-1.33,2.51,-0.27
1900-01-01 12:18:59.522,35.82,8.94,4.09,0.15,0.57,0.77,-0.79,0.14,-2.19,29.47,20.48,2.68,0.34,0.48,0.77,3.65,2.05,-1.79
1900-01-01 12:18:59.566,35.05,7.72,3.92,0.13,0.57,0.8,-7.58,1.92,-0.61,22.68,20.61,2.41,0.32,0.36,0.79,-0.69,2.65,-0.04
1900-01-01 12:18:59.660,35.75,7.99,3.98,0.13,0.56,0.77,-4.31,0.5,-1.3,26.82,20.78,2.39,0.34,0.43,0.78,0.97,1.96,-0.76
1900-01-01 12:18:59.706,36.0,7.33,3.94,0.13,0.59,0.8,-5.06,-0.01,0.37,22.93,21.1,2.27,0.34,0.37,0.81,-4.77,5.82,2.3
1900-01-01 12:18:59.799,37.27,6.77,4.16,0.12,0.61,0.79,-1.89,-1.27,-0.85,25.55,19.54,2.61,0.32,0.42,0.81,-2.09,6.74,2.4
1900-01-01 12:18:59.893,37.61,7.35,4.19,0.13,0.61,0.78,-2.35,-0.58,0.11,23.78,19.19,2.96,0.31,0.38,0.81,-4.62,3.39,-1.24
1900-01-01 12:18:59.941,37.71,6.84,4.36,0.12,0.62,0.79,-0.41,-0.38,-0.03,23.85,18.53,2.77,0.3,0.39,0.82,-1.0,-0.63,-1.37
1900-01-01 12:19:00.037,37.53,7.26,4.52,0.13,0.61,0.79,-1.45,0.07,0.4,24.5,19.49,2.55,0.32,0.4,0.81,-2.21,-1.89,-1.79
1900-01-01 12:19:00.082,37.62,7.13,4.74,0.12,0.61,0.78,-1.25,-0.45,-0.18,24.94,19.02,2.27,0.31,0.41,0.81,-1.46,0.5,-0.04
1900-01-01 12:19:00.176,38.26,5.76,4.87,0.1,0.63,0.8,-1.93,-0.57,-0.56,24.49,17.64,2.25,0.29,0.4,0.83,1.4,-2.45,2.0
1900-01-01 12:19:00.269,39.44,5.84,4.94,0.1,0.65,0.78,7.3,-1.02,-1.53,33.09,18.01,2.55,0.3,0.53,0.75,5.12,-1.64,-1.27
1900-01-01 12:19:00.316,37.21,7.32,4.87,0.13,0.61,0.79,-1.49,-0.69,-0.69,26.05,21.15,2.35,0.35,0.43,0.8,-2.04,2.92,1.0
1900-01-01 12:19:00.410,37.45,7.27,4.92,0.13,0.6,0.78,1.76,-0.55,-3.31,28.87,20.36,2.49,0.34,0.47,0.78,1.87,0.64,-1.29
1900-01-01 12:19:00.505,36.97,5.27,4.58,0.09,0.59,0.77,-0.63,-0.84,-2.24,25.56,18.34,2.29,0.31,0.43,0.84,-0.36,-5.8,1.31
1900-01-01 12:19:00.552,37.32,8.5,4.4,0.15,0.61,0.79,0.31,-1.26,-0.7,29.02,24.75,2.48,0.4,0.47,0.74,0.69,-1.05,-0.21
1900-01-01 12:19:00.645,37.82,7.57,4.45,0.13,0.61,0.78,-0.9,0.18,-0.22,26.44,20.29,2.44,0.35,0.45,0.83,-3.7,2.63,0.93
1900-01-01 12:19:00.692,38.01,8.16,4.57,0.14,0.63,0.79,-2.27,-0.86,-0.64,26.1,22.42,2.57,0.37,0.43,0.79,-2.35,1.44,0.42
1900-01-01 12:19:00.788,38.03,6.99,4.63,0.12,0.62,0.78,-3.15,0.71,-0.57,25.64,21.33,2.63,0.35,0.41,0.79,-3.8,2.5,-0.18
1900-01-01 12:19:00.881,37.39,7.29,4.7,0.13,0.6,0.78,-1.78,-0.43,-0.73,27.11,20.76,2.59,0.34,0.44,0.78,0.22,1.72,-0.49
1900-01-01 12:19:00.928,36.48,8.93,4.75,0.15,0.58,0.77,-0.61,-1.26,-0.39,30.12,20.18,2.51,0.33,0.47,0.75,3.11,2.16,-4.11
1900-01-01 12:19:01.023,33.76,7.23,4.85,0.12,0.54,0.8,-3.11,-0.48,-0.27,24.7,20.78,1.87,0.34,0.4,0.8,-0.82,2.64,-1.47
1900-01-01 12:19:01.070,35.6,8.41,4.97,0.14,0.57,0.78,-1.05,-0.47,-1.4,28.41,20.02,1.64,0.33,0.46,0.79,1.24,2.16,-1.35
1900-01-01 12:19:01.164,36.13,7.61,4.91,0.13,0.58,0.79,-0.66,-0.1,-0.98,25.51,21.09,1.43,0.35,0.42,0.8,-0.82,0.42,-0.72
1900-01-01 12:19:01.257,37.09,8.2,4.92,0.14,0.6,0.78,-0.8,-0.47,-0.75,26.99,21.41,1.31,0.35,0.43,0.77,-1.21,0.68,-0.3
1900-01-01 12:19:01.305,36.9,7.57,4.97,0.13,0.6,0.78,-1.99,-0.38,-0.43,25.12,20.98,1.26,0.34,0.4,0.78,0.18,0.54,-1.11
1900-01-01 12:19:01.399,35.8,8.81,5.06,0.15,0.58,0.79,-3.41,-0.79,-1.0,28.22,20.36,1.08,0.34,0.46,0.78,0.89,2.66,-2.66
1900-01-01 12:19:01.493,35.04,8.21,5.07,0.14,0.56,0.79,-3.66,-0.9,-1.14,27.08,18.83,0.67,0.31,0.44,0.81,-2.57,4.31,-3.2
1900-01-01 12:19:01.540,35.79,7.35,5.05,0.13,0.57,0.78,-0.52,-0.96,-1.58,25.74,18.81,0.17,0.31,0.42,0.81,1.66,-0.18,0.08
1900-01-01 12:19:01.633,35.83,7.9,4.97,0.14,0.58,0.79,0.46,-0.13,-2.47,27.18,20.98,0.18,0.36,0.46,0.82,3.44,0.73,0.53
1900-01-01 12:19:01.681,38.65,8.1,4.76,0.14,0.6,0.74,6.24,0.22,-3.27,34.67,19.73,0.25,0.34,0.57,0.75,1.63,0.11,-2.84
1900-01-01 12:19:01.776,35.33,6.14,4.42,0.1,0.55,0.77,-2.32,-0.08,-1.47,25.54,21.38,-0.19,0.35,0.41,0.79,0.64,0.76,-0.18
1900-01-01 12:19:01.872,36.78,8.33,4.36,0.14,0.59,0.78,0.72,-1.05,-1.66,29.77,19.99,-0.22,0.33,0.48,0.78,1.85,1.21,-0.84
1900-01-01 12:19:01.918,35.26,7.53,4.26,0.13,0.57,0.79,-2.84,-0.18,-0.77,24.24,22.01,-0.36,0.36,0.39,0.79,-1.92,1.56,-0.16
1900-01-01 12:19:02.012,37.28,8.16,4.3,0.14,0.6,0.78,-0.99,-0.37,-0.85,27.55,20.85,-0.39,0.34,0.44,0.78,-1.4,1.33,-0.64
1900-01-01 12:19:02.059,35.89,7.61,4.33,0.13,0.58,0.79,-2.37,-0.24,-0.85,24.46,21.29,-0.5,0.35,0.4,0.8,-0.95,1.46,-1.13
1900-01-01 12:19:02.153,37.17,8.26,4.36,0.14,0.61,0.79,-2.07,-0.44,-0.49,26.38,22.0,-0.68,0.37,0.43,0.8,-1.26,0.18,-0.18
1900-01-01 12:19:02.247,37.37,7.34,4.45,0.13,0.61,0.78,-2.26,0.02,-0.5,25.7,21.35,-0.71,0.35,0.42,0.79,-2.76,1.97,-0.46
1900-01-01 12:19:02.294,38.21,7.2,4.53,0.13,0.63,0.79,-0.87,-0.16,-0.42,25.71,21.51,-0.79,0.36,0.43,0.81,-3.56,1.6,0.35
1900-01-01 12:19:02.387,39.28,7.48,4.62,0.13,0.64,0.77,-2.28,0.44,0.05,24.99,21.86,-0.75,0.36,0.41,0.8,-4.5,0.53,1.5
1900-01-01 12:19:02.434,38.65,6.95,4.79,0.12,0.63,0.78,-1.07,-0.4,-0.68,26.49,20.84,-0.53,0.34,0.43,0.79,-1.03,0.91,0.61
1900-01-01 12:19:02.529,36.56,5.3,4.84,0.09,0.6,0.8,1.24,0.1,-1.45,26.72,16.53,-0.44,0.29,0.45,0.85,2.99,-3.29,4.12
1900-01-01 12:19:02.624,38.37,5.03,4.78,0.09,0.62,0.78,-5.22,-2.86,2.5,22.52,21.41,0.17,0.36,0.38,0.85,8.17,-21.36,13.33
1900-01-01 12:19:02.671,36.08,4.19,5.32,0.08,0.62,0.84,-10.44,-13.29,5.73,26.98,21.67,2.19,0.41,0.51,0.91,-3.83,-30.04,30.55
1900-01-01 12:19:02.766,36.07,12.94,6.36,0.23,0.6,0.8,-13.73,-16.56,6.79,19.93,47.26,6.86,0.67,0.31,0.54,34.55,-57.22,37.95
1900-01-01 12:19:02.860,39.03,13.52,7.56,0.26,0.7,0.83,-15.93,-13.22,9.26,3.7,69.26,12.68,1.32,0.09,0.49,-70.91,-64.05,45.36
1900-01-01 12:19:02.906,29.17,21.68,9.14,0.37,0.49,0.8,5.08,-8.86,0.02,4.55,65.56,19.65,0.88,0.08,0.39,-25.66,-30.96,-12.59
1900-01-01 12:19:03.000,27.57,18.98,9.3,0.32,0.46,0.82,-7.11,-10.82,-10.11,7.31,67.91,17.71,0.91,0.12,0.35,-48.86,-21.83,-28.26
1900-01-01 12:19:03.094,34.06,17.11,7.9,0.29,0.56,0.77,-1.64,-11.66,-13.61,14.51,60.83,13.33,0.81,0.23,0.39,-29.42,19.18,-65.16
1900-01-01 12:19:03.141,37.2,10.05,5.95,0.16,0.56,0.72,21.64,-3.67,-14.68,43.13,21.66,3.26,0.35,0.64,0.59,31.8,47.6,-37.89
1900-01-01 12:19:03.235,35.06,8.1,3.86,0.15,0.63,0.88,-1.05,2.5,-1.5,26.42,34.67,-2.57,0.61,0.48,0.74,15.0,-14.44,2.03
1900-01-01 12:19:03.282,46.85,7.66,3.79,0.2,1.1,1.01,-20.18,-8.59,11.02,17.49,60.59,-2.26,0.8,0.28,0.36,-3.09,-13.46,51.43
1900-01-01 12:19:03.375,37.87,12.95,5.64,0.26,0.7,0.87,-0.47,-0.35,0.72,22.87,53.01,5.62,0.87,0.42,0.5,-5.29,10.3,21.17
1900-01-01 12:19:03.469,26.11,22.02,5.91,0.38,0.44,0.82,19.12,2.61,-8.59,32.08,51.13,8.84,0.9,0.62,0.39,-1.81,10.39,6.01
1900-01-01 12:19:03.516,34.84,17.19,4.76,0.29,0.56,0.76,1.13,-1.14,1.5,24.77,55.28,9.75,0.82,0.42,0.38,4.08,1.48,6.11
1900-01-01 12:19:03.609,31.54,19.04,5.14,0.32,0.52,0.78,3.13,-4.44,-0.45,20.98,61.94,10.66,0.83,0.34,0.29,-1.95,12.72,-7.61
1900-01-01 12:19:03.702,39.69,14.97,5.23,0.28,0.69,0.78,1.9,-1.49,1.37,29.59,44.17,9.49,0.77,0.55,0.58,2.42,-0.37,1.7
1900-01-01 12:19:03.750,31.21,16.38,5.6,0.27,0.49,0.77,3.01,-2.55,1.69,25.96,48.93,9.74,0.69,0.4,0.45,0.08,1.13,-1.34
1900-01-01 12:19:03.844,34.06,11.71,6.01,0.2,0.56,0.8,-2.18,1.26,1.23,25.86,45.12,9.53,0.72,0.44,0.56,0.6,0.24,0.31
1900-01-01 12:19:03.890,34.59,15.06,6.36,0.26,0.56,0.77,-1.37,-0.39,-0.39,25.13,53.37,9.57,0.77,0.41,0.4,-1.99,6.86,-3.56
1900-01-01 12:19:03.985,36.51,15.03,6.46,0.28,0.64,0.81,1.21,-0.09,1.95,28.48,46.2,9.02,0.78,0.52,0.54,-1.87,10.76,2.28
1900-01-01 12:19:04.079,33.71,19.69,6.91,0.34,0.56,0.76,0.22,-4.43,1.06,27.89,49.17,9.36,0.75,0.46,0.45,-2.44,2.28,-2.45
1900-01-01 12:19:04.126,33.31,18.49,7.23,0.31,0.54,0.76,1.05,-1.26,-0.76,25.94,48.94,8.97,0.74,0.43,0.48,0.26,0.08,0.69
1900-01-01 12:19:04.219,36.15,17.55,7.28,0.3,0.6,0.76,3.08,-0.18,-3.18,29.41,46.21,9.07,0.74,0.5,0.5,-0.91,-3.5,0.5
1900-01-01 12:19:04.267,34.14,16.37,6.95,0.28,0.55,0.77,1.02,-0.83,-1.74,28.07,47.47,9.14,0.73,0.47,0.48,-1.35,-3.51,-2.11
1900-01-01 12:19:04.360,34.28,16.89,6.84,0.3,0.58,0.8,1.05,-0.82,-0.99,26.71,49.31,8.81,0.76,0.45,0.48,-4.31,2.03,0.06
1900-01-01 12:19:04.454,36.22,18.67,6.85,0.32,0.59,0.74,0.79,1.21,-1.02,27.18,49.19,8.81,0.75,0.45,0.46,-2.18,2.59,0.2
1900-01-01 12:19:04.501,35.23,16.27,6.86,0.29,0.59,0.78,-1.15,0.84,-0.7,27.37,48.48,8.83,0.76,0.47,0.49,-7.66,2.6,-2.24
1900-01-01 12:19:04.595,33.63,17.51,6.91,0.29,0.54,0.75,-0.18,0.82,-1.66,26.36,48.27,8.48,0.72,0.43,0.48,-2.03,4.15,-0.25
1900-01-01 12:19:04.641,35.72,16.96,6.81,0.3,0.6,0.77,-0.06,1.31,-1.65,26.83,47.66,8.44,0.75,0.46,0.51,-1.01,4.57,-2.79
1900-01-01 12:19:04.735,35.16,16.18,6.72,0.28,0.58,0.78,-1.5,0.08,-0.76,28.11,45.76,8.0,0.72,0.48,0.52,2.34,7.11,-3.73
1900-01-01 12:19:04.829,35.74,16.37,6.77,0.27,0.57,0.74,0.43,-0.65,1.11,28.11,43.55,7.43,0.67,0.46,0.53,-3.82,7.6,-3.76
1900-01-01 12:19:04.876,35.56,16.32,7.09,0.29,0.59,0.78,1.34,-2.21,1.21,27.89,45.65,6.85,0.72,0.47,0.52,-1.53,8.56,-6.18
1900-01-01 12:19:04.971,34.8,16.75,7.44,0.29,0.58,0.78,3.05,-0.73,0.34,30.09,40.99,5.9,0.66,0.5,0.57,-4.0,4.95,-6.87
1900-01-01 12:19:05.065,34.2,17.36,7.65,0.31,0.58,0.8,-7.92,1.26,2.29,27.37,43.38,4.85,0.69,0.46,0.57,-19.69,11.59,-0.37
1900-01-01 12:19:05.111,34.45,20.84,8.15,0.35,0.56,0.74,3.54,3.15,0.67,29.87,42.03,4.79,0.67,0.5,0.55,8.44,8.36,0.76
1900-01-01 12:19:05.205,36.43,19.37,8.41,0.33,0.6,0.74,-1.27,-2.07,0.31,26.93,41.18,4.89,0.66,0.45,0.6,-0.4,5.09,0.46
1900-01-01 12:19:05.252,36.21,17.33,8.62,0.3,0.59,0.75,2.21,-3.24,-2.54,28.59,40.4,4.95,0.62,0.46,0.57,-1.64,0.38,-2.12
1900-01-01 12:19:05.346,36.1,18.05,8.39,0.32,0.61,0.77,0.57,-0.05,-3.11,29.77,37.89,4.62,0.63,0.51,0.62,-4.68,6.3,-1.3
1900-01-01 12:19:05.440,34.84,17.67,8.07,0.31,0.59,0.78,-1.62,1.56,-1.05,27.29,39.77,4.42,0.64,0.46,0.61,-8.48,7.62,0.21
1900-01-01 12:19:05.486,34.57,17.19,8.07,0.29,0.55,0.75,-1.31,3.19,0.4,26.89,37.93,4.44,0.59,0.43,0.62,-5.05,5.62,1.24
1900-01-01 12:19:05.580,34.12,17.57,8.29,0.3,0.55,0.76,-1.79,2.99,0.65,25.3,37.49,4.62,0.59,0.42,0.65,-2.45,5.53,1.0
1900-01-01 12:19:05.674,36.19,17.32,8.55,0.3,0.59,0.75,-0.93,1.34,0.41,27.41,36.89,4.76,0.6,0.46,0.65,-2.0,2.6,1.22
1900-01-01 12:19:05.721,35.3,17.17,8.77,0.3,0.58,0.77,0.11,-0.08,0.61,26.1,38.07,4.94,0.61,0.44,0.65,-0.34,2.11,0.35
1900-01-01 12:19:05.813,35.45,17.95,9.02,0.3,0.57,0.75,1.15,-0.33,-0.76,27.32,37.43,4.98,0.59,0.44,0.62,-1.0,1.29,-0.77
1900-01-01 12:19:05.861,35.41,17.45,9.06,0.3,0.59,0.77,-0.53,0.02,-1.15,26.26,37.72,4.86,0.61,0.44,0.66,-1.85,1.89,-1.48
1900-01-01 12:19:05.956,34.93,17.28,9.05,0.3,0.58,0.77,-0.02,-0.33,-0.7,26.9,37.29,4.62,0.6,0.45,0.65,-2.15,2.15,-1.27
1900-01-01 12:19:06.049,35.3,17.33,9.1,0.3,0.59,0.77,0.15,-1.04,-0.89,26.92,36.31,4.42,0.59,0.45,0.66,-3.27,2.16,-1.69
1900-01-01 12:19:06.096,34.82,17.41,9.12,0.3,0.57,0.76,-0.1,-0.92,-0.82,26.19,37.33,4.16,0.59,0.43,0.64,-3.92,1.9,-1.05
1900-01-01 12:19:06.189,35.38,17.8,9.16,0.31,0.58,0.76,-1.11,0.75,-1.03,27.46,36.62,3.99,0.59,0.45,0.64,-1.89,2.79,0.18
1900-01-01 12:19:06.236,34.92,17.84,9.16,0.31,0.57,0.76,-1.03,1.3,-1.49,25.84,37.71,4.01,0.6,0.43,0.64,-2.41,2.47,-0.32
1900-01-01 12:19:06.330,35.65,17.05,9.09,0.3,0.59,0.77,-1.15,1.27,-2.47,26.68,36.15,3.95,0.59,0.45,0.67,-3.62,2.02,-1.02
1900-01-01 12:19:06.424,35.07,17.18,8.87,0.3,0.59,0.78,-0.6,0.31,-2.7,26.26,36.47,3.79,0.59,0.44,0.67,-3.39,3.89,-1.02
1900-01-01 12:19:06.472,35.34,15.44,8.62,0.27,0.58,0.77,-0.92,-0.26,-2.16,25.98,34.64,3.62,0.56,0.43,0.69,-4.37,1.97,-0.55
1900-01-01 12:19:06.565,34.46,16.58,8.45,0.28,0.55,0.76,-1.85,0.69,-0.87,25.6,36.31,3.53,0.56,0.41,0.65,-3.15,2.36,-0.23
1900-01-01 12:19:06.659,34.79,16.18,8.47,0.28,0.57,0.77,-0.27,0.28,0.1,25.9,34.82,3.49,0.57,0.43,0.69,-1.24,2.73,-0.33
1900-01-01 12:19:06.706,35.36,16.25,8.65,0.29,0.59,0.78,-0.31,0.05,-0.54,26.2,35.35,3.43,0.58,0.44,0.69,-0.98,1.72,-0.11
1900-01-01 12:19:06.786,35.35,16.1,8.72,0.28,0.58,0.77,-0.53,-0.47,-0.42,25.96,34.95,3.4,0.56,0.43,0.68,-1.37,3.21,-1.32
1900-01-01 12:19:06.879,35.36,16.33,8.82,0.28,0.58,0.76,0.18,-0.38,-0.84,26.01,33.97,3.19,0.55,0.43,0.69,-2.49,1.59,-0.86
1900-01-01 12:19:06.927,35.26,16.47,8.85,0.29,0.58,0.77,-0.95,0.15,-0.35,25.65,35.13,3.05,0.57,0.43,0.68,-0.71,3.18,-0.34
1900-01-01 12:19:07.021,35.47,16.37,8.95,0.29,0.59,0.78,-0.31,-0.53,-0.16,26.06,34.57,2.99,0.56,0.43,0.69,-2.28,1.62,0.2
1900-01-01 12:19:07.115,34.83,16.63,9.09,0.29,0.57,0.77,-1.14,0.53,-1.0,25.74,34.75,3.02,0.56,0.43,0.69,-2.02,2.06,0.59
1900-01-01 12:19:07.161,35.18,16.44,9.1,0.28,0.58,0.77,-2.12,0.18,-0.94,25.8,33.92,3.1,0.55,0.43,0.7,-3.17,3.15,-0.2
1900-01-01 12:19:07.255,34.95,16.84,9.11,0.29,0.57,0.77,-0.89,-0.17,-0.24,25.04,35.45,3.06,0.56,0.41,0.67,-1.21,1.02,0.37
1900-01-01 12:19:07.302,34.36,16.22,9.23,0.28,0.57,0.78,-0.39,-0.46,-0.76,24.78,34.41,3.11,0.56,0.42,0.7,-0.9,1.56,-0.5
1900-01-01 12:19:07.396,34.95,16.57,9.28,0.29,0.58,0.78,-0.47,-0.67,-0.85,26.02,34.21,3.02,0.56,0.44,0.7,-2.3,1.33,0.63
1900-01-01 12:19:07.490,34.58,16.29,9.31,0.28,0.57,0.78,-0.37,-1.27,0.16,25.07,34.5,3.11,0.56,0.42,0.7,-0.34,1.56,0.72
1900-01-01 12:19:07.538,35.23,16.21,9.49,0.28,0.58,0.77,-0.17,-0.95,-0.13,25.72,33.45,3.21,0.54,0.42,0.7,-1.67,2.06,0.47
1900-01-01 12:19:07.633,34.84,17.05,9.63,0.29,0.57,0.76,-0.21,0.01,-0.64,25.68,34.91,3.27,0.56,0.42,0.68,-0.84,0.02,0.98
1900-01-01 12:19:07.726,35.12,17.0,9.69,0.3,0.58,0.77,-0.11,-0.43,-1.07,25.61,33.81,3.41,0.55,0.43,0.7,-1.27,0.61,-0.35
1900-01-01 12:19:07.772,34.87,17.21,9.68,0.29,0.57,0.76,-0.13,0.31,-1.3,25.81,35.76,3.35,0.56,0.42,0.66,-0.07,-0.22,-0.35
1900-01-01 12:19:07.867,34.74,16.57,9.64,0.29,0.58,0.78,-1.1,0.28,-1.35,25.61,35.07,3.29,0.58,0.43,0.7,-1.38,1.15,-0.55
1900-01-01 12:19:07.914,34.14,17.35,9.6,0.3,0.57,0.78,-0.18,-0.62,-0.67,25.98,34.85,3.19,0.56,0.43,0.69,-1.71,1.65,-0.7
1900-01-01 12:19:08.007,34.73,16.85,9.65,0.29,0.58,0.78,-1.09,-0.17,-0.46,26.0,34.68,3.08,0.56,0.43,0.69,0.7,2.12,-0.39
1900-01-01 12:19:08.101,35.02,16.52,9.74,0.28,0.57,0.77,-0.28,-0.06,-0.85,26.43,33.46,3.01,0.55,0.44,0.7,-1.95,0.45,0.58
1900-01-01 12:19:08.148,34.52,16.86,9.77,0.29,0.56,0.77,0.43,-0.02,-0.16,25.49,34.72,3.09,0.55,0.42,0.68,-0.76,1.13,0.71
1900-01-01 12:19:08.242,34.47,16.71,9.9,0.29,0.56,0.77,-0.08,-0.54,-0.31,25.26,34.99,3.19,0.56,0.42,0.69,0.57,-0.47,0.01
1900-01-01 12:19:08.336,35.22,17.85,10.02,0.3,0.57,0.75,0.4,-0.34,-0.54,26.54,34.53,3.18,0.54,0.42,0.66,-1.03,1.08,-1.02
1900-01-01 12:19:08.383,35.18,16.4,10.09,0.29,0.58,0.78,-1.17,0.61,-0.72,25.6,35.88,3.02,0.58,0.42,0.67,-0.7,0.69,0.6
1900-01-01 12:19:08.476,34.05,17.4,10.14,0.3,0.56,0.77,0.32,0.92,-1.42,25.95,35.26,3.1,0.56,0.43,0.67,-0.77,5.49,-1.04
1900-01-01 12:19:08.522,35.44,16.34,10.08,0.28,0.59,0.77,-0.74,1.27,-1.82,26.06,33.1,2.94,0.55,0.44,0.72,-3.02,2.48,0.18
1900-01-01 12:19:08.617,35.43,16.24,9.96,0.28,0.58,0.77,0.02,0.89,-0.78,26.24,34.6,2.95,0.56,0.44,0.68,-1.31,0.37,0.6
1900-01-01 12:19:08.711,34.09,15.81,10.01,0.27,0.56,0.78,0.27,-0.61,-1.11,23.62,34.81,3.04,0.56,0.4,0.71,8.06,0.33,-0.31
1900-01-01 12:19:08.758,35.55,16.57,9.99,0.29,0.59,0.77,-0.87,-0.66,-0.63,28.54,35.72,2.98,0.57,0.47,0.64,7.89,-0.18,2.15
1900-01-01 12:19:08.852,35.77,16.13,10.06,0.28,0.58,0.76,0.27,-0.47,-1.14,27.35,34.73,3.3,0.55,0.45,0.66,0.37,-0.69,-0.05
1900-01-01 12:19:08.898,35.61,15.8,10.04,0.28,0.59,0.78,0.18,-1.3,-0.54,27.3,35.79,3.28,0.58,0.46,0.66,-4.04,0.55,-0.57
1900-01-01 12:19:08.992,35.12,16.72,10.12,0.28,0.57,0.76,1.52,-1.31,-1.08,28.05,34.84,3.19,0.55,0.45,0.65,-1.7,1.75,-1.08
1900-01-01 12:19:09.086,35.57,16.46,10.11,0.29,0.59,0.77,-0.73,0.5,-1.07,27.02,36.62,3.01,0.58,0.44,0.64,-1.62,3.37,-0.42
1900-01-01 12:19:09.133,35.87,15.56,10.11,0.27,0.6,0.78,-1.11,0.79,-1.13,27.92,34.89,2.94,0.57,0.47,0.68,3.37,0.08,0.75
1900-01-01 12:19:09.228,35.93,17.1,10.09,0.29,0.58,0.75,0.31,-0.18,-1.37,29.91,34.77,3.05,0.57,0.49,0.65,5.82,-2.69,-0.53
1900-01-01 12:19:09.323,35.52,16.79,10.04,0.29,0.58,0.76,0.84,-1.49,-0.41,30.01,35.13,2.96,0.55,0.48,0.62,-0.25,3.5,-1.14
1900-01-01 12:19:09.370,35.8,16.29,10.14,0.28,0.59,0.77,-1.3,0.93,-0.73,29.42,36.0,2.78,0.58,0.48,0.63,-8.52,1.7,0.85
1900-01-01 12:19:09.464,35.69,16.12,10.19,0.28,0.59,0.78,-0.89,0.91,-0.98,28.08,35.4,2.9,0.58,0.47,0.67,-1.42,3.55,-0.02
1900-01-01 12:19:09.510,36.05,15.82,10.2,0.27,0.59,0.77,-0.93,0.05,-0.89,28.56,34.37,2.89,0.57,0.48,0.68,-0.85,-0.69,1.13
1900-01-01 12:19:09.605,35.69,16.23,10.22,0.28,0.58,0.76,-0.06,-1.07,-0.69,28.32,35.25,3.05,0.56,0.46,0.64,2.5,3.48,-1.24
1900-01-01 12:19:09.699,36.0,16.1,10.27,0.28,0.59,0.76,-1.17,0.02,-0.78,29.04,35.62,2.85,0.57,0.47,0.64,0.04,0.88,0.56
1900-01-01 12:19:09.746,36.13,16.09,10.31,0.28,0.59,0.76,-1.02,0.31,-0.97,29.17,34.63,2.93,0.56,0.48,0.65,-3.18,1.68,0.25
1900-01-01 12:19:09.840,36.21,16.07,10.32,0.28,0.59,0.76,-0.21,-0.78,-1.48,28.75,34.09,2.96,0.55,0.48,0.67,-4.09,1.55,-1.59
1900-01-01 12:19:09.933,36.74,15.81,10.26,0.28,0.61,0.76,-1.05,-0.34,-1.44,29.3,35.27,2.71,0.57,0.48,0.64,-2.72,-0.01,0.62
1900-01-01 12:19:09.980,35.15,16.49,10.19,0.28,0.58,0.77,-0.77,1.07,-1.98,28.31,35.1,2.79,0.57,0.47,0.66,-0.2,2.85,-0.07
1900-01-01 12:19:10.073,35.7,16.04,10.05,0.28,0.6,0.78,-1.56,0.71,-1.31,28.64,35.29,2.77,0.58,0.48,0.66,-0.89,1.63,0.76
1900-01-01 12:19:10.121,35.4,15.63,10.01,0.27,0.59,0.78,-1.38,-0.54,-0.51,28.72,34.96,2.88,0.57,0.47,0.66,-3.34,1.64,0.64
1900-01-01 12:19:10.214,35.51,15.41,10.09,0.26,0.58,0.77,-1.18,-0.06,-0.56,27.82,35.13,2.97,0.56,0.45,0.65,-4.32,1.05,0.39
1900-01-01 12:19:10.309,34.96,15.5,10.16,0.26,0.56,0.76,-1.15,-0.3,-1.11,28.53,34.89,3.02,0.56,0.46,0.65,1.45,1.9,-0.89
1900-01-01 12:19:10.356,35.58,15.41,10.15,0.26,0.58,0.77,0.34,-1.3,-1.21,28.83,34.68,2.88,0.56,0.47,0.65,1.22,0.62,-0.92
1900-01-01 12:19:10.450,35.71,16.04,10.13,0.28,0.59,0.77,-0.63,0.01,-1.24,29.12,34.73,2.73,0.57,0.48,0.66,-1.18,1.6,0.2
1900-01-01 12:19:10.497,35.91,15.97,10.1,0.28,0.59,0.77,-0.15,-0.25,-0.7,29.35,35.16,2.75,0.57,0.48,0.65,-3.74,1.31,-0.17
1900-01-01 12:19:10.589,35.34,15.33,10.15,0.27,0.58,0.78,-0.98,0.32,-0.88,28.44,34.73,2.72,0.57,0.48,0.67,-0.94,-0.63,-0.58
1900-01-01 12:19:10.684,35.42,15.87,10.17,0.27,0.58,0.77,-1.58,-0.05,-0.55,28.95,35.18,2.62,0.57,0.48,0.65,-0.39,0.79,0.16
1900-01-01 12:19:10.731,35.39,15.85,10.25,0.27,0.58,0.77,-1.09,-0.31,-0.63,28.55,35.08,2.64,0.56,0.47,0.65,-1.66,1.59,-0.02
1900-01-01 12:19:10.827,35.59,16.0,10.31,0.28,0.58,0.76,-0.08,-0.34,-0.93,29.14,35.16,2.62,0.56,0.47,0.64,-0.81,1.26,0.22
1900-01-01 12:19:10.920,35.44,15.81,10.32,0.27,0.58,0.77,-1.08,-0.07,-0.59,28.33,35.15,2.65,0.57,0.47,0.66,-1.95,1.81,0.24
1900-01-01 12:19:10.969,35.35,15.78,10.39,0.27,0.58,0.77,0.2,-0.67,-0.69,28.28,34.76,2.68,0.56,0.47,0.66,-2.06,1.24,-0.18
1900-01-01 12:19:11.061,35.37,16.04,10.45,0.28,0.58,0.77,-0.69,-0.1,-0.81,29.12,34.99,2.64,0.56,0.48,0.64,-2.79,2.26,0.13
1900-01-01 12:19:11.107,35.51,15.48,10.48,0.27,0.58,0.77,-0.08,-0.22,-0.78,28.42,34.69,2.65,0.56,0.47,0.66,-2.58,1.14,-0.14
1900-01-01 12:19:11.204,35.7,16.03,10.52,0.28,0.58,0.76,-0.01,-0.05,-1.32,28.21,35.0,2.62,0.57,0.47,0.66,-1.44,-0.82,-0.3
1900-01-01 12:19:11.296,35.66,15.68,10.48,0.27,0.59,0.77,0.34,-1.24,-0.26,28.61,34.33,2.57,0.56,0.47,0.66,-0.65,1.42,-0.71
1900-01-01 12:19:11.342,35.4,15.71,10.6,0.27,0.58,0.78,-1.08,-0.02,-0.15,27.9,35.48,2.45,0.57,0.46,0.65,-1.63,1.69,0.85
1900-01-01 12:19:11.437,35.16,15.86,10.73,0.27,0.58,0.77,-1.15,0.19,-0.85,28.04,35.16,2.58,0.57,0.46,0.66,-0.99,1.75,0.23
1900-01-01 12:19:11.531,35.8,16.16,10.76,0.28,0.59,0.77,-0.25,-0.47,-0.92,28.88,34.84,2.6,0.56,0.48,0.66,-1.77,1.47,-0.24
1900-01-01 12:19:11.577,35.54,15.99,10.78,0.28,0.58,0.77,-0.47,-1.15,-0.27,28.0,34.29,2.56,0.55,0.46,0.67,-2.13,0.67,-0.53
1900-01-01 12:19:11.672,35.17,16.25,10.89,0.28,0.58,0.77,-0.31,-1.09,-0.56,28.06,35.48,2.47,0.57,0.46,0.65,-2.11,2.22,-1.14
1900-01-01 12:19:11.720,35.62,15.9,10.97,0.28,0.59,0.78,-0.07,-0.43,-0.62,27.88,34.5,2.28,0.56,0.46,0.67,-3.74,1.61,-0.89
1900-01-01 12:19:11.814,35.36,15.98,11.03,0.28,0.58,0.77,-1.37,-0.47,-0.14,27.37,34.88,2.14,0.56,0.45,0.67,-3.14,1.5,0.33
1900-01-01 12:19:11.907,35.19,16.54,11.17,0.28,0.57,0.76,-0.66,-0.09,-0.55,27.71,35.09,2.18,0.56,0.45,0.65,-1.18,2.08,-0.32
1900-01-01 12:19:11.954,35.88,16.43,11.24,0.29,0.59,0.77,-0.52,-0.2,-0.61,28.3,34.31,2.12,0.56,0.47,0.67,-2.1,2.26,0.4
1900-01-01 12:19:12.048,35.61,16.75,11.31,0.29,0.59,0.76,0.86,-0.82,-0.47,27.29,34.28,2.18,0.56,0.45,0.68,-0.96,1.12,-0.16
1900-01-01 12:19:12.097,35.21,16.27,11.4,0.28,0.58,0.78,-0.89,-0.72,-0.46,27.48,34.37,2.14,0.56,0.46,0.68,-1.32,2.21,0.41
1900-01-01 12:19:12.189,35.68,16.59,11.49,0.29,0.59,0.76,-1.42,-0.51,-0.73,27.78,34.25,2.2,0.55,0.45,0.67,-3.64,1.53,0.4
1900-01-01 12:19:12.283,35.33,16.72,11.53,0.29,0.57,0.76,-0.85,-0.49,-0.87,27.25,34.66,2.25,0.55,0.45,0.66,-2.07,1.23,0.14
1900-01-01 12:19:12.330,35.42,16.93,11.56,0.29,0.58,0.76,-0.65,-0.48,-1.11,27.38,34.18,2.26,0.55,0.45,0.68,-1.51,1.24,-0.31
1900-01-01 12:19:12.424,35.4,16.75,11.55,0.29,0.58,0.77,-0.34,0.2,-1.12,27.3,34.68,2.21,0.56,0.45,0.67,-1.51,0.01,-0.11
1900-01-01 12:19:12.517,35.07,16.19,11.53,0.28,0.58,0.78,-0.74,-0.68,-0.65,26.59,34.42,2.18,0.56,0.44,0.68,-0.63,1.47,-0.21
1900-01-01 12:19:12.564,35.68,16.83,11.59,0.29,0.58,0.76,-0.15,-0.6,-0.96,28.03,34.42,2.14,0.55,0.46,0.66,-0.71,1.42,-0.35
1900-01-01 12:19:12.658,35.19,16.71,11.6,0.29,0.58,0.77,-0.9,-0.33,-0.76,27.18,34.42,2.08,0.56,0.45,0.68,-0.11,1.66,-0.04
1900-01-01 12:19:12.752,35.53,16.76,11.65,0.29,0.59,0.77,-0.16,-0.52,-0.92,28.02,34.27,2.06,0.55,0.46,0.67,-3.5,1.07,-0.54
1900-01-01 12:19:12.800,35.43,16.73,11.67,0.29,0.58,0.77,-0.86,0.15,-0.91,27.17,34.77,1.97,0.56,0.45,0.67,-2.22,1.2,-0.91
1900-01-01 12:19:12.893,35.39,16.8,11.69,0.29,0.59,0.77,-0.32,-1.03,-0.44,27.32,34.26,1.83,0.55,0.45,0.67,-1.24,1.7,-0.73
1900-01-01 12:19:12.940,35.43,16.55,11.78,0.29,0.58,0.77,-0.54,-0.44,-0.84,27.37,34.06,1.71,0.55,0.45,0.68,-1.09,1.27,0.05
1900-01-01 12:19:13.033,35.34,16.49,11.81,0.29,0.58,0.77,-1.03,-0.4,-0.88,27.27,33.8,1.7,0.55,0.45,0.68,-0.99,1.79,-0.29
1900-01-01 12:19:13.127,35.78,17.16,11.83,0.3,0.59,0.76,-0.63,-0.09,-0.82,27.84,34.24,1.65,0.55,0.46,0.67,-1.77,1.36,0.24
1900-01-01 12:19:13.174,35.36,16.46,11.86,0.29,0.58,0.77,-0.88,-0.18,-0.73,27.11,34.07,1.68,0.55,0.45,0.68,-1.5,2.24,0.17
1900-01-01 12:19:13.268,35.48,17.11,11.91,0.29,0.58,0.76,-0.23,-0.75,-0.87,27.88,34.2,1.7,0.55,0.46,0.66,-1.68,0.95,-0.13
1900-01-01 12:19:13.362,35.46,16.58,11.94,0.29,0.58,0.77,-0.84,-0.56,-0.59,27.19,33.88,1.67,0.55,0.45,0.68,-1.11,2.14,-0.18
1900-01-01 12:19:13.409,35.34,17.35,12.01,0.3,0.58,0.76,-0.17,-0.75,-0.73,27.75,34.1,1.63,0.55,0.46,0.67,-1.64,1.34,-0.46
1900-01-01 12:19:13.503,35.78,16.7,12.05,0.29,0.59,0.76,-0.39,-0.56,-0.53,27.35,33.81,1.55,0.54,0.45,0.67,-2.17,2.47,-1.09
1900-01-01 12:19:13.550,34.59,17.13,12.13,0.29,0.57,0.77,0.18,-0.35,-0.63,27.91,33.27,1.38,0.54,0.46,0.69,-0.29,2.15,-1.0
1900-01-01 12:19:13.645,35.23,17.43,12.19,0.3,0.58,0.77,-0.9,-0.64,-0.83,27.35,33.57,1.22,0.55,0.45,0.69,-1.37,2.24,-0.45
1900-01-01 12:19:13.739,35.71,17.26,12.22,0.3,0.59,0.76,-0.47,-0.12,-0.66,28.52,33.2,1.14,0.54,0.47,0.67,-2.11,1.45,0.51
1900-01-01 12:19:13.786,34.89,17.0,12.28,0.29,0.57,0.77,-0.78,-0.3,-0.83,26.84,33.22,1.21,0.54,0.44,0.69,-1.0,1.68,-0.33
1900-01-01 12:19:13.865,35.4,17.43,12.31,0.3,0.58,0.76,-0.5,-0.37,-0.95,27.93,33.3,1.15,0.54,0.46,0.67,-1.68,1.21,-0.02
1900-01-01 12:19:13.959,35.45,17.25,12.33,0.3,0.58,0.76,-0.85,0.11,-0.8,27.74,33.34,1.14,0.54,0.46,0.68,-1.37,1.98,0.09
1900-01-01 12:19:14.005,34.97,17.3,12.36,0.3,0.58,0.77,0.04,-0.66,-0.93,27.64,32.87,1.14,0.53,0.46,0.69,-1.41,1.43,-0.69
1900-01-01 12:19:14.099,35.49,17.0,12.38,0.29,0.58,0.76,-0.79,-0.18,-0.86,27.79,33.19,1.03,0.53,0.46,0.68,-1.82,0.91,0.19
1900-01-01 12:19:14.193,35.4,17.11,12.41,0.3,0.58,0.77,-0.85,-0.07,-1.06,27.55,32.88,1.05,0.54,0.46,0.69,-0.89,1.63,-0.28
1900-01-01 12:19:14.239,35.66,17.4,12.4,0.3,0.59,0.76,-0.63,0.08,-1.04,28.35,33.58,1.0,0.54,0.47,0.67,-1.77,0.82,0.27
1900-01-01 12:19:14.333,35.28,16.9,12.4,0.29,0.58,0.76,-0.55,-0.45,-0.84,27.37,33.08,1.03,0.54,0.45,0.69,-0.29,1.62,-0.16
1900-01-01 12:19:14.427,35.78,17.18,12.43,0.3,0.59,0.76,-0.34,-0.33,-1.02,28.15,32.83,1.0,0.53,0.46,0.68,-2.2,0.86,-0.02
1900-01-01 12:19:14.474,35.58,16.8,12.44,0.29,0.58,0.76,-0.47,-0.27,-0.66,27.6,32.84,0.99,0.53,0.45,0.69,-0.66,1.66,-0.03
1900-01-01 12:19:14.568,35.4,17.14,12.49,0.3,0.58,0.76,0.19,-0.5,-1.11,27.99,32.86,0.97,0.53,0.46,0.68,-1.8,0.65,-0.32
1900-01-01 12:19:14.661,35.51,17.12,12.48,0.3,0.58,0.76,-0.38,-0.15,-0.93,27.68,33.19,0.92,0.54,0.46,0.69,-0.58,1.4,-0.1
1900-01-01 12:19:14.708,35.55,17.08,12.5,0.3,0.59,0.77,-0.56,-0.68,-0.66,27.53,32.6,0.89,0.53,0.46,0.7,-1.44,1.37,-0.15
1900-01-01 12:19:14.802,35.48,17.31,12.56,0.3,0.58,0.76,-1.0,0.01,-0.81,27.72,33.52,0.86,0.54,0.45,0.67,-1.32,1.37,0.5
1900-01-01 12:19:14.882,35.42,17.14,12.59,0.3,0.58,0.76,-0.43,-0.33,-0.98,27.56,32.65,0.93,0.53,0.45,0.69,-1.8,1.29,-0.08
1900-01-01 12:19:14.929,35.65,17.24,12.6,0.3,0.59,0.76,-0.63,-0.05,-0.82,27.88,33.38,0.91,0.54,0.46,0.68,-1.81,1.18,0.36
1900-01-01 12:19:15.023,35.22,16.85,12.63,0.29,0.58,0.77,-0.66,-0.74,-0.76,27.31,32.84,0.95,0.54,0.45,0.7,-0.86,1.79,-0.1
1900-01-01 12:19:15.116,35.8,17.58,12.67,0.3,0.58,0.75,-0.87,0.17,-0.97,28.28,33.53,0.93,0.54,0.46,0.67,-2.31,0.85,0.47
1900-01-01 12:19:15.163,35.44,17.11,12.69,0.3,0.58,0.76,-0.37,-0.34,-0.8,27.28,33.01,0.99,0.54,0.45,0.69,-1.2,1.15,-0.23
1900-01-01 12:19:15.258,35.56,17.25,12.72,0.3,0.59,0.77,-0.21,0.03,-0.97,27.75,33.05,0.95,0.54,0.46,0.69,-3.11,-0.76,0.35
1900-01-01 12:19:15.303,35.69,17.08,12.73,0.29,0.58,0.76,0.0,-0.71,-0.88,27.42,33.7,0.99,0.54,0.45,0.67,-0.86,0.51,0.15
1900-01-01 12:19:15.399,35.46,17.21,12.76,0.3,0.58,0.76,-0.53,-0.36,-1.15,27.31,32.81,1.01,0.53,0.45,0.69,-1.11,1.63,-0.31
1900-01-01 12:19:15.493,35.48,17.54,12.74,0.3,0.58,0.76,-0.11,-0.36,-1.15,28.05,33.73,0.95,0.54,0.46,0.67,-0.05,1.07,-0.4
1900-01-01 12:19:15.538,35.5,16.93,12.72,0.29,0.59,0.77,-0.12,-0.76,-0.82,26.85,32.92,0.88,0.54,0.45,0.7,-0.31,1.26,-0.18
1900-01-01 12:19:15.632,36.07,17.18,12.76,0.3,0.59,0.76,0.05,-0.84,-0.58,27.99,33.03,0.84,0.53,0.46,0.68,-1.83,0.58,0.06
1900-01-01 12:19:15.680,35.71,17.4,12.83,0.3,0.59,0.76,-0.49,-0.86,-0.47,27.85,33.6,0.85,0.55,0.46,0.68,-0.5,2.14,0.34
1900-01-01 12:19:15.774,36.18,17.47,12.91,0.3,0.59,0.75,0.06,-0.21,-0.86,28.93,33.18,0.89,0.53,0.47,0.67,-1.98,0.39,0.26
1900-01-01 12:19:15.869,35.94,17.05,12.94,0.29,0.59,0.76,-0.4,-0.38,-0.86,27.17,33.11,0.92,0.54,0.45,0.69,-0.15,1.48,-0.12
1900-01-01 12:19:15.914,36.17,17.82,12.97,0.31,0.59,0.75,0.06,-0.58,-1.18,28.58,32.63,0.89,0.53,0.47,0.68,-2.02,0.85,-0.41
1900-01-01 12:19:16.007,35.68,17.0,12.95,0.29,0.59,0.76,-0.87,0.1,-0.88,27.71,34.62,0.82,0.56,0.45,0.66,-1.18,0.72,0.65
1900-01-01 12:19:16.102,36.1,17.62,12.97,0.3,0.59,0.75,0.44,-0.02,-1.41,27.89,32.49,0.91,0.53,0.46,0.7,-1.56,1.66,-0.83
1900-01-01 12:19:16.149,36.12,17.78,12.91,0.31,0.6,0.76,-0.4,-0.5,-0.82,28.22,34.07,0.78,0.55,0.47,0.67,-1.0,1.12,0.15
1900-01-01 12:19:16.243,35.95,17.06,12.95,0.3,0.59,0.76,-0.6,-0.6,-0.6,27.74,33.0,0.79,0.54,0.46,0.69,-0.51,2.78,0.22
1900-01-01 12:19:16.290,36.29,17.25,13.01,0.3,0.6,0.76,-0.58,-0.61,-0.66,27.8,33.07,0.82,0.54,0.46,0.68,-1.47,1.24,0.29
1900-01-01 12:19:16.384,36.12,17.36,13.07,0.3,0.59,0.75,-1.24,-0.33,-0.88,28.47,33.12,0.85,0.53,0.47,0.67,-0.41,2.34,0.09
1900-01-01 12:19:16.478,36.35,17.42,13.1,0.3,0.59,0.75,-0.48,-0.19,-0.98,28.47,32.89,0.86,0.53,0.47,0.67,-2.35,0.55,-0.15
1900-01-01 12:19:16.524,35.96,17.5,13.1,0.3,0.59,0.75,-0.42,-0.32,-0.91,27.97,33.22,0.83,0.53,0.46,0.68,-0.77,0.78,-0.11
1900-01-01 12:19:16.619,35.92,17.55,13.12,0.31,0.59,0.76,-0.55,-0.4,-0.86,28.42,32.86,0.8,0.54,0.47,0.69,-0.5,1.66,-0.08
1900-01-01 12:19:16.713,35.92,17.44,13.15,0.3,0.59,0.76,-0.4,-0.13,-0.79,28.04,33.24,0.78,0.54,0.46,0.68,-1.92,1.3,0.18
1900-01-01 12:19:16.760,36.02,17.41,13.19,0.3,0.59,0.75,-0.77,-0.3,-1.02,27.99,33.21,0.8,0.54,0.46,0.68,-1.49,1.46,0.08
1900-01-01 12:19:16.855,36.34,17.62,13.19,0.3,0.59,0.75,-0.69,0.08,-1.05,28.49,32.64,0.8,0.53,0.47,0.68,-1.95,1.29,0.16
1900-01-01 12:19:16.902,36.13,17.45,13.19,0.3,0.59,0.75,-0.6,-0.18,-0.78,28.06,33.42,0.82,0.54,0.46,0.68,-1.13,1.57,0.12
1900-01-01 12:19:16.995,36.02,17.45,13.23,0.3,0.59,0.75,0.02,-0.73,-0.89,28.34,32.63,0.83,0.53,0.46,0.68,-0.78,0.95,-0.37
1900-01-01 12:19:17.089,35.78,17.72,13.25,0.31,0.59,0.76,-0.63,0.12,-0.94,28.32,33.5,0.76,0.54,0.47,0.67,-0.73,1.15,0.34
1900-01-01 12:19:17.136,35.76,17.26,13.27,0.3,0.59,0.76,-0.6,-0.46,-0.93,28.38,33.17,0.81,0.54,0.47,0.68,-0.09,1.79,-0.15
1900-01-01 12:19:17.230,36.17,17.69,13.29,0.31,0.59,0.75,-0.69,0.09,-1.05,28.4,33.1,0.78,0.54,0.47,0.68,-2.92,0.11,-0.11
1900-01-01 12:19:17.324,36.33,17.16,13.28,0.3,0.59,0.75,-0.36,-0.04,-0.76,28.05,33.4,0.75,0.54,0.46,0.67,-0.46,1.37,0.0
1900-01-01 12:19:17.370,36.08,17.3,13.33,0.3,0.59,0.76,-0.31,-0.82,-0.73,28.17,32.91,0.74,0.54,0.47,0.68,-0.7,1.27,-0.29
1900-01-01 12:19:17.464,36.09,17.75,13.37,0.31,0.59,0.75,-0.39,0.11,-0.94,28.86,33.44,0.69,0.54,0.47,0.67,-1.23,1.37,0.15
1900-01-01 12:19:17.510,35.84,17.31,13.39,0.3,0.59,0.76,-0.53,-0.66,-0.69,27.91,33.4,0.71,0.54,0.46,0.68,-0.35,1.57,-0.14
1900-01-01 12:19:17.605,36.34,17.42,13.44,0.3,0.59,0.75,-0.18,-0.34,-1.07,28.88,32.97,0.68,0.53,0.47,0.67,-2.39,0.69,-0.04
1900-01-01 12:19:17.698,36.25,17.42,13.44,0.3,0.59,0.75,-0.44,0.07,-0.96,28.19,33.32,0.66,0.54,0.46,0.68,-1.44,1.29,-0.04
1900-01-01 12:19:17.743,36.29,17.56,13.45,0.3,0.6,0.75,-0.05,-0.2,-1.0,28.42,33.22,0.65,0.54,0.47,0.67,-2.24,0.41,0.01
1900-01-01 12:19:17.838,36.34,17.3,13.45,0.3,0.6,0.75,-0.89,-0.11,-0.89,28.24,33.11,0.64,0.54,0.46,0.68,-0.66,0.89,-0.4
1900-01-01 12:19:17.932,36.24,17.82,13.48,0.31,0.59,0.75,-0.58,-0.17,-0.99,28.78,33.58,0.57,0.54,0.47,0.66,-1.25,-0.5,-0.37
1900-01-01 12:19:17.978,36.25,16.81,13.48,0.29,0.6,0.76,-0.56,-0.11,-0.86,28.62,33.35,0.51,0.54,0.47,0.68,-0.18,1.66,0.21
1900-01-01 12:19:18.073,36.0,16.93,13.51,0.29,0.59,0.76,-0.69,-0.07,-0.73,28.22,33.41,0.53,0.54,0.46,0.67,-1.6,1.48,0.3
1900-01-01 12:19:18.186,35.98,16.97,13.56,0.29,0.59,0.76,-0.53,-0.44,-1.08,28.21,33.58,0.57,0.54,0.46,0.67,-1.88,0.89,-0.06
1900-01-01 12:19:18.215,36.56,17.48,13.55,0.3,0.6,0.75,-0.73,-0.41,-1.18,28.67,33.04,0.55,0.54,0.48,0.68,-1.5,1.69,-0.3
1900-01-01 12:19:18.309,36.65,17.73,13.53,0.31,0.6,0.74,-0.13,-0.59,-0.57,28.98,33.6,0.5,0.54,0.47,0.66,-1.57,1.15,0.08
1900-01-01 12:19:18.355,36.03,17.09,13.6,0.29,0.59,0.76,-0.2,-0.64,-0.7,27.97,33.56,0.5,0.54,0.46,0.67,-0.41,1.53,-0.12
1900-01-01 12:19:18.450,36.58,17.44,13.65,0.3,0.6,0.75,0.11,-0.61,-1.12,28.83,33.07,0.47,0.54,0.47,0.67,-1.76,0.91,-0.22
1900-01-01 12:19:18.545,36.27,17.58,13.64,0.3,0.59,0.75,0.18,0.13,-0.94,28.54,33.12,0.43,0.54,0.47,0.68,-0.66,0.57,0.11
1900-01-01 12:19:18.591,36.15,17.33,13.65,0.3,0.6,0.76,-0.66,-0.56,-0.85,28.56,34.05,0.44,0.55,0.47,0.66,0.4,1.93,-0.48
1900-01-01 12:19:18.685,36.57,17.5,13.68,0.3,0.6,0.75,-1.0,-0.33,-0.78,28.95,33.59,0.36,0.54,0.48,0.67,-2.63,0.94,0.34
1900-01-01 12:19:18.732,36.55,17.22,13.72,0.3,0.6,0.75,-1.16,-0.34,-0.72,28.76,33.46,0.4,0.54,0.47,0.67,-0.31,0.9,-0.07
1900-01-01 12:19:18.826,36.2,17.46,13.77,0.3,0.59,0.75,-0.96,-0.56,-0.77,28.65,33.4,0.38,0.54,0.47,0.67,-2.08,2.67,-0.02
1900-01-01 12:19:18.921,37.02,17.33,13.81,0.3,0.6,0.74,-1.29,0.48,-0.89,28.86,33.09,0.37,0.53,0.47,0.67,-2.78,2.24,0.23
1900-01-01 12:19:18.967,36.11,17.15,13.84,0.3,0.59,0.76,-0.78,0.71,-1.07,27.76,33.57,0.4,0.55,0.46,0.68,-1.46,1.44,0.25
1900-01-01 12:19:19.061,35.96,17.51,13.83,0.3,0.59,0.76,0.04,-0.36,-1.08,28.17,33.51,0.43,0.54,0.47,0.68,-0.31,1.85,-0.18
1900-01-01 12:19:19.108,36.63,17.25,13.83,0.3,0.6,0.75,-0.63,0.04,-0.96,28.43,33.2,0.39,0.54,0.47,0.68,-1.99,1.28,0.08
1900-01-01 12:19:19.202,35.97,17.17,13.84,0.3,0.59,0.76,-0.73,-0.85,-0.76,28.11,33.9,0.4,0.54,0.46,0.67,-0.7,1.79,-0.27
1900-01-01 12:19:19.297,36.58,17.44,13.88,0.3,0.6,0.75,-0.76,-0.29,-1.0,28.71,32.85,0.35,0.53,0.47,0.67,-1.05,1.56,-0.21
1900-01-01 12:19:19.343,36.81,17.13,13.89,0.3,0.6,0.75,-0.21,-0.45,-0.85,28.64,33.07,0.31,0.54,0.47,0.68,-1.02,0.82,-0.11
1900-01-01 12:19:19.437,36.1,17.49,13.92,0.3,0.59,0.75,-0.47,-0.79,-0.76,28.58,33.41,0.28,0.54,0.47,0.67,0.07,1.76,-0.31
1900-01-01 12:19:19.531,36.76,17.37,13.96,0.3,0.6,0.75,-0.48,-0.1,-1.05,29.13,32.88,0.22,0.53,0.48,0.67,-2.0,0.74,0.1
1900-01-01 12:19:19.578,36.45,17.33,13.96,0.3,0.59,0.75,-0.08,-0.1,-0.72,28.71,33.15,0.23,0.53,0.47,0.67,0.44,1.69,0.02
1900-01-01 12:19:19.672,36.22,17.59,14.01,0.3,0.59,0.74,0.27,-0.49,-0.98,28.64,32.81,0.22,0.53,0.47,0.67,-0.06,0.01,-0.34
1900-01-01 12:19:19.718,36.5,17.67,14.02,0.31,0.6,0.76,-0.78,0.33,-0.97,29.45,33.86,0.17,0.55,0.49,0.66,-0.43,1.41,0.23
1900-01-01 12:19:19.812,36.29,17.44,14.03,0.3,0.6,0.76,-1.21,-0.49,-0.82,28.93,33.64,0.19,0.55,0.48,0.67,-1.63,1.43,0.22
1900-01-01 12:19:19.906,36.93,17.22,14.06,0.3,0.6,0.75,-1.24,-0.46,-1.02,29.45,32.67,0.22,0.53,0.48,0.67,-3.17,0.83,0.05
1900-01-01 12:19:19.952,36.62,17.2,14.06,0.29,0.59,0.74,-0.68,-0.33,-0.79,28.66,33.6,0.22,0.53,0.46,0.66,-1.49,1.27,0.17
1900-01-01 12:19:20.046,36.44,17.37,14.1,0.3,0.59,0.74,-0.02,-0.48,-1.24,28.34,32.94,0.23,0.53,0.46,0.67,-1.13,0.85,-0.8
1900-01-01 12:19:20.141,36.46,17.79,14.07,0.31,0.6,0.75,-0.6,0.31,-1.07,29.51,33.72,0.1,0.55,0.49,0.66,-0.7,1.97,0.08
1900-01-01 12:19:20.187,36.36,17.01,14.06,0.3,0.6,0.76,-0.26,-0.61,-0.69,28.7,33.35,0.1,0.55,0.48,0.68,-0.44,1.53,-0.08
1900-01-01 12:19:20.279,36.58,17.39,14.12,0.3,0.6,0.75,-0.92,-0.31,-0.82,29.35,32.74,0.08,0.53,0.48,0.67,-1.63,1.59,0.11
1900-01-01 12:19:20.374,36.81,17.27,14.15,0.3,0.6,0.74,-0.07,-0.21,-1.0,29.22,33.26,0.09,0.54,0.48,0.66,-2.47,0.37,-0.12
1900-01-01 12:19:20.421,36.58,17.33,14.16,0.3,0.6,0.75,-0.56,-0.35,-0.77,29.04,33.15,0.07,0.54,0.48,0.67,0.18,2.08,-0.07
1900-01-01 12:19:20.516,36.8,17.52,14.2,0.3,0.6,0.75,0.05,-0.47,-1.08,29.58,32.85,0.05,0.53,0.49,0.67,-2.29,0.58,-0.27
1900-01-01 12:19:20.562,36.51,17.28,14.19,0.3,0.6,0.76,-0.65,0.09,-0.48,28.75,33.16,0.0,0.54,0.48,0.68,-1.25,1.78,0.51
1900-01-01 12:19:20.656,36.03,17.39,14.28,0.3,0.59,0.75,-0.91,-0.52,-0.77,28.7,33.38,0.07,0.54,0.47,0.67,-0.83,2.31,-0.07
1900-01-01 12:19:20.750,36.66,17.06,14.32,0.3,0.6,0.75,-1.05,-0.15,-0.86,28.72,32.82,0.05,0.54,0.48,0.68,-2.15,1.74,0.24
1900-01-01 12:19:20.796,36.58,17.37,14.35,0.3,0.59,0.74,-0.09,-1.02,-1.11,28.8,33.32,0.08,0.54,0.47,0.67,-2.57,-0.61,-0.07
1900-01-01 12:19:20.889,36.59,17.38,14.33,0.3,0.6,0.75,-0.82,-0.44,-0.79,28.94,32.86,0.06,0.53,0.47,0.67,-0.76,1.55,0.0
1900-01-01 12:19:20.984,36.56,17.51,14.37,0.3,0.6,0.75,-0.85,-0.18,-0.94,28.96,32.85,0.05,0.54,0.48,0.68,-1.36,1.6,0.21
1900-01-01 12:19:21.031,36.46,17.8,14.39,0.31,0.59,0.74,-0.08,-0.62,-0.89,29.2,33.46,0.07,0.53,0.47,0.66,-1.14,0.96,-0.16
1900-01-01 12:19:21.123,36.24,17.65,14.41,0.3,0.59,0.75,-0.31,-0.5,-0.92,28.57,33.44,0.04,0.54,0.47,0.67,-0.28,1.41,-0.46
1900-01-01 12:19:21.171,36.84,17.69,14.43,0.31,0.61,0.75,-0.06,-0.27,-1.09,29.66,33.19,-0.04,0.54,0.49,0.67,-1.61,1.11,-0.06
1900-01-01 12:19:21.266,36.51,17.16,14.42,0.3,0.6,0.76,-0.23,-0.63,-0.65,28.53,33.24,-0.06,0.54,0.47,0.68,-0.8,1.21,-0.14
1900-01-01 12:19:21.358,36.66,17.69,14.48,0.31,0.6,0.75,-0.62,-1.08,-0.97,29.2,33.06,-0.09,0.53,0.48,0.67,-1.96,0.75,0.04
1900-01-01 12:19:21.406,36.45,17.79,14.49,0.31,0.6,0.75,-0.27,-0.14,-1.09,28.79,33.61,-0.09,0.54,0.47,0.66,-2.05,0.59,0.01
1900-01-01 12:19:21.500,37.01,17.63,14.48,0.31,0.61,0.74,0.6,-0.55,-1.37,29.2,32.82,-0.1,0.54,0.48,0.68,-1.83,0.32,-0.5
1900-01-01 12:19:21.594,36.56,17.63,14.43,0.3,0.6,0.75,-1.12,-1.01,-0.95,29.21,33.75,-0.18,0.54,0.48,0.66,-1.42,1.36,-0.23
1900-01-01 12:19:21.642,36.72,18.01,14.44,0.31,0.61,0.75,-1.4,-0.55,-1.09,29.12,33.34,-0.22,0.54,0.48,0.67,-2.63,1.34,-0.28
1900-01-01 12:19:21.733,36.53,17.8,14.43,0.31,0.6,0.74,-0.72,0.1,-1.0,28.67,33.43,-0.28,0.54,0.47,0.67,-1.92,0.82,0.21
1900-01-01 12:19:21.781,36.23,17.73,14.44,0.31,0.59,0.75,-1.15,0.11,-1.05,28.71,33.6,-0.25,0.54,0.47,0.67,-1.5,1.67,0.06
1900-01-01 12:19:21.876,36.29,18.06,14.44,0.31,0.6,0.75,-0.9,0.16,-0.81,28.64,33.38,-0.25,0.54,0.47,0.67,-1.69,1.73,0.34
1900-01-01 12:19:21.970,36.34,17.39,14.47,0.3,0.59,0.74,-0.01,-0.52,-0.83,28.52,33.26,-0.21,0.53,0.47,0.67,-0.61,1.53,-0.08
1900-01-01 12:19:22.017,36.1,17.53,14.5,0.3,0.59,0.75,-0.17,-0.98,-1.07,28.67,33.55,-0.23,0.54,0.47,0.66,-0.2,1.91,-0.53
1900-01-01 12:19:22.110,36.39,17.51,14.5,0.31,0.61,0.76,0.04,-0.94,-1.08,28.71,32.92,-0.32,0.54,0.48,0.68,-0.69,2.18,-0.18
1900-01-01 12:19:22.204,36.6,17.98,14.49,0.31,0.6,0.74,-0.98,0.15,-1.11,29.09,32.9,-0.36,0.53,0.48,0.67,-2.28,1.52,0.41
1900-01-01 12:19:22.250,36.94,18.05,14.48,0.31,0.6,0.73,-1.0,0.27,-0.99,29.23,33.06,-0.3,0.53,0.47,0.66,-1.46,1.27,0.06
1900-01-01 12:19:22.345,36.92,17.99,14.49,0.31,0.6,0.74,-0.62,-0.27,-0.82,29.19,33.04,-0.3,0.54,0.48,0.67,-0.48,0.31,-0.56
1900-01-01 12:19:22.392,36.37,17.69,14.52,0.31,0.6,0.76,-0.48,-0.48,-0.63,28.68,33.23,-0.4,0.54,0.48,0.68,-0.94,1.21,0.06
1900-01-01 12:19:22.485,36.28,17.49,14.58,0.3,0.59,0.75,-0.4,-0.77,-0.66,28.65,33.05,-0.39,0.53,0.47,0.67,-1.21,1.69,0.02
1900-01-01 12:19:22.578,36.41,17.74,14.64,0.31,0.6,0.75,-0.6,-0.5,-1.08,29.04,33.14,-0.4,0.54,0.48,0.67,-0.65,1.66,-0.17
1900-01-01 12:19:22.627,36.97,17.5,14.63,0.31,0.61,0.75,-1.29,-0.75,-0.95,29.61,32.3,-0.44,0.53,0.49,0.69,-2.96,0.8,0.69
1900-01-01 12:19:22.718,36.14,17.99,14.65,0.31,0.59,0.74,-0.4,-0.41,-0.8,28.72,33.0,-0.34,0.53,0.46,0.66,-2.05,1.79,0.0
1900-01-01 12:19:22.812,36.27,17.99,14.68,0.31,0.59,0.74,-0.78,0.06,-1.0,28.66,33.03,-0.35,0.53,0.47,0.67,-1.31,2.11,0.02
1900-01-01 12:19:22.859,36.45,17.92,14.69,0.31,0.6,0.75,-0.21,-0.52,-0.94,29.02,32.91,-0.35,0.53,0.47,0.67,-0.56,1.27,-0.3
1900-01-01 12:19:22.953,36.39,17.86,14.7,0.31,0.6,0.75,0.01,-0.68,-0.81,28.99,32.54,-0.4,0.53,0.48,0.68,-1.11,0.98,-0.23
1900-01-01 12:19:23.000,36.18,17.74,14.74,0.3,0.59,0.75,-0.27,-0.4,-1.19,28.74,33.15,-0.45,0.53,0.47,0.66,-0.95,1.34,-0.37
1900-01-01 12:19:23.094,36.48,17.9,14.71,0.31,0.6,0.75,-0.65,0.44,-1.17,29.16,32.84,-0.51,0.54,0.48,0.68,-1.11,1.65,0.24
1900-01-01 12:19:23.189,36.24,18.33,14.69,0.32,0.6,0.75,-1.06,0.17,-1.05,29.1,33.39,-0.48,0.54,0.48,0.67,-1.55,1.47,0.34
1900-01-01 12:19:23.237,36.95,17.79,14.69,0.31,0.6,0.74,-0.42,-0.24,-0.86,29.3,32.66,-0.44,0.53,0.48,0.67,-1.44,0.86,0.33
1900-01-01 12:19:23.329,36.43,17.85,14.72,0.31,0.59,0.75,-0.5,0.09,-1.07,29.09,33.11,-0.4,0.53,0.47,0.67,-0.9,1.6,-0.1
1900-01-01 12:19:23.425,36.42,17.38,14.72,0.3,0.6,0.76,-0.68,-0.26,-0.91,29.03,32.48,-0.42,0.53,0.48,0.68,-1.05,1.05,0.15
1900-01-01 12:19:23.471,36.46,17.58,14.73,0.3,0.6,0.75,-0.52,-0.11,-1.02,28.99,33.04,-0.41,0.53,0.47,0.67,-1.31,1.71,-0.07
1900-01-01 12:19:23.565,36.64,17.56,14.74,0.3,0.6,0.75,-0.44,-0.08,-1.18,29.22,32.58,-0.43,0.53,0.48,0.68,-1.85,1.47,-0.03
1900-01-01 12:19:23.612,36.61,17.7,14.71,0.3,0.6,0.74,-0.71,0.02,-0.98,29.69,32.92,-0.44,0.53,0.48,0.66,-3.01,0.14,0.44
1900-01-01 12:19:23.706,36.14,17.49,14.72,0.3,0.59,0.75,-0.48,-0.34,-0.92,28.54,32.75,-0.38,0.53,0.47,0.68,-0.24,1.63,-0.22
1900-01-01 12:19:23.800,36.61,17.62,14.74,0.31,0.6,0.75,-0.34,-0.34,-0.89,29.57,32.32,-0.42,0.53,0.49,0.68,-1.82,1.11,-0.09
1900-01-01 12:19:23.847,36.17,17.21,14.76,0.3,0.59,0.75,-0.48,-0.63,-0.56,28.29,33.08,-0.45,0.53,0.46,0.67,-1.24,1.21,0.08
1900-01-01 12:19:23.941,35.95,17.62,14.83,0.3,0.59,0.75,-1.05,-0.49,-0.84,28.55,33.24,-0.44,0.54,0.47,0.67,-0.83,2.39,-0.35
1900-01-01 12:19:24.036,36.93,17.83,14.86,0.31,0.61,0.74,-0.34,-0.46,-1.09,29.78,32.23,-0.5,0.53,0.49,0.67,-2.03,1.09,-0.4
1900-01-01 12:19:24.083,36.74,18.01,14.86,0.31,0.6,0.74,-0.21,-0.37,-0.56,29.3,32.72,-0.57,0.53,0.48,0.67,-1.02,1.06,0.02
1900-01-01 12:19:24.177,36.2,17.82,14.93,0.31,0.59,0.75,-0.11,-0.52,-0.58,28.71,32.96,-0.58,0.53,0.47,0.67,-0.78,1.13,-0.01
1900-01-01 12:19:24.224,37.03,17.57,15.0,0.3,0.6,0.74,-0.15,0.84,-1.18,28.69,32.17,-0.59,0.53,0.47,0.69,0.25,-1.98,0.18
1900-01-01 12:19:24.316,36.2,17.24,14.98,0.3,0.6,0.76,-0.53,-0.7,-0.23,29.02,35.16,-0.57,0.57,0.48,0.65,0.79,-1.95,0.92
1900-01-01 12:19:24.411,35.6,18.76,15.1,0.32,0.57,0.74,-0.06,-0.73,-1.64,29.8,33.61,-0.44,0.53,0.48,0.64,-3.07,5.02,-1.37
1900-01-01 12:19:24.457,37.19,17.29,15.01,0.3,0.61,0.75,-1.07,0.78,-1.47,29.84,31.78,-0.65,0.53,0.5,0.69,-1.86,2.39,0.18
1900-01-01 12:19:24.552,36.63,17.86,14.94,0.31,0.6,0.75,-0.39,-0.14,-0.68,28.89,33.32,-0.64,0.54,0.48,0.67,-1.43,0.71,0.45
1900-01-01 12:19:24.647,36.64,17.81,15.0,0.31,0.6,0.75,-0.5,-0.55,-0.82,29.51,32.93,-0.58,0.54,0.48,0.67,-0.85,2.23,-0.08
1900-01-01 12:19:24.693,36.66,17.57,15.03,0.3,0.6,0.74,0.09,-0.38,-0.66,29.38,31.66,-0.6,0.52,0.48,0.68,-1.34,1.74,-0.62
1900-01-01 12:19:24.786,36.09,17.82,15.09,0.31,0.59,0.75,-0.36,-0.05,-0.69,28.92,33.12,-0.7,0.53,0.47,0.66,-1.25,1.63,0.02
1900-01-01 12:19:24.880,36.53,17.76,15.14,0.31,0.6,0.75,-1.22,0.73,-1.45,28.98,32.95,-0.7,0.54,0.48,0.68,-1.76,1.64,0.27
1900-01-01 12:19:24.926,36.75,17.61,15.08,0.31,0.61,0.75,-0.97,-0.5,-1.09,29.47,32.23,-0.67,0.53,0.49,0.68,-2.64,1.4,0.09
1900-01-01 12:19:25.020,36.49,17.37,15.07,0.29,0.59,0.74,-1.07,0.5,-0.96,28.87,32.74,-0.66,0.52,0.46,0.66,-3.09,1.44,0.43
1900-01-01 12:19:25.067,35.97,17.32,15.08,0.3,0.59,0.75,-0.51,-0.21,-1.26,28.08,33.0,-0.61,0.54,0.46,0.68,-0.47,1.48,-0.4
1900-01-01 12:19:25.161,36.66,17.85,15.05,0.31,0.6,0.75,-0.3,-0.49,-0.88,29.48,32.91,-0.68,0.53,0.48,0.67,-0.66,1.21,-0.16
1900-01-01 12:19:25.255,36.29,16.94,15.07,0.29,0.6,0.76,-0.42,-0.37,-0.83,28.21,32.57,-0.71,0.53,0.47,0.69,-1.73,1.2,-0.02
1900-01-01 12:19:25.302,36.42,17.3,15.1,0.3,0.59,0.75,-0.78,-0.3,-0.84,28.68,32.57,-0.72,0.52,0.47,0.67,-1.23,1.73,0.11
1900-01-01 12:19:25.394,36.45,17.45,15.13,0.3,0.6,0.75,-0.74,-0.26,-1.0,28.74,32.74,-0.71,0.53,0.47,0.68,-1.14,1.5,-0.02
1900-01-01 12:19:25.488,36.7,17.78,15.14,0.31,0.6,0.75,-0.37,-0.32,-0.99,29.33,32.57,-0.73,0.53,0.48,0.67,-1.18,1.29,-0.11
1900-01-01 12:19:25.535,36.34,17.31,15.14,0.3,0.6,0.75,-0.34,-0.34,-0.69,28.41,32.92,-0.75,0.53,0.47,0.68,-1.31,0.66,0.06
1900-01-01 12:19:25.629,36.62,17.31,15.2,0.3,0.6,0.75,-0.35,-0.49,-1.01,29.06,32.51,-0.75,0.52,0.47,0.67,-0.71,1.06,-0.27
1900-01-01 12:19:25.676,36.6,17.41,15.2,0.3,0.6,0.76,-0.81,0.06,-0.98,28.84,32.72,-0.8,0.54,0.48,0.68,-1.51,1.64,0.25
1900-01-01 12:19:25.768,36.33,17.33,15.21,0.3,0.6,0.75,-0.81,-0.35,-0.82,28.53,32.77,-0.77,0.53,0.47,0.68,-1.69,1.4,0.24
1900-01-01 12:19:25.862,36.58,17.5,15.24,0.3,0.6,0.74,-0.95,-0.04,-1.01,29.16,32.61,-0.74,0.52,0.47,0.67,-1.36,1.6,0.19
1900-01-01 12:19:25.911,36.47,17.46,15.25,0.3,0.6,0.75,-0.77,-0.35,-0.99,28.57,32.9,-0.72,0.53,0.47,0.68,-0.83,1.4,-0.22
1900-01-01 12:19:26.005,36.7,17.42,15.26,0.3,0.6,0.75,-0.56,-0.37,-0.87,29.07,32.23,-0.76,0.52,0.48,0.68,-1.69,1.07,-0.08
1900-01-01 12:19:26.099,36.26,17.34,15.28,0.3,0.59,0.75,-0.24,-0.38,-0.86,28.49,32.87,-0.78,0.53,0.47,0.67,-0.89,1.36,-0.19
1900-01-01 12:19:26.147,36.18,17.39,15.31,0.3,0.59,0.76,-0.37,-0.41,-0.87,28.82,32.79,-0.82,0.53,0.47,0.68,-0.58,1.62,0.07
1900-01-01 12:19:26.240,36.47,17.46,15.33,0.3,0.6,0.75,-0.81,-0.08,-0.88,28.8,32.8,-0.82,0.53,0.47,0.68,-1.68,1.5,0.29
1900-01-01 12:19:26.285,37.05,17.3,15.36,0.3,0.61,0.75,-1.09,-0.05,-0.61,29.29,32.25,-0.78,0.52,0.48,0.68,-2.1,1.5,0.45
1900-01-01 12:19:26.379,36.25,17.5,15.42,0.3,0.59,0.75,-0.72,-0.14,-0.83,28.46,32.65,-0.72,0.53,0.47,0.68,-0.62,1.3,-0.24
1900-01-01 12:19:26.473,36.31,17.76,15.45,0.31,0.6,0.75,-0.34,-0.46,-0.82,28.52,33.0,-0.77,0.53,0.47,0.68,-1.37,1.15,-0.01
1900-01-01 12:19:26.520,36.53,17.15,15.49,0.3,0.6,0.75,-0.53,-0.47,-0.71,28.98,32.51,-0.78,0.53,0.47,0.68,-1.24,1.24,0.05
1900-01-01 12:19:26.614,36.29,17.46,15.54,0.3,0.59,0.75,-0.92,-0.09,-0.96,28.6,32.73,-0.78,0.53,0.47,0.67,-1.0,1.4,0.01
1900-01-01 12:19:26.708,36.47,17.55,15.55,0.3,0.6,0.75,-0.59,-0.11,-0.85,28.9,32.73,-0.79,0.53,0.48,0.68,-1.92,1.17,0.22
1900-01-01 12:19:26.754,36.47,17.48,15.58,0.3,0.6,0.75,-0.53,-0.38,-0.79,29.08,32.57,-0.76,0.53,0.48,0.67,-1.28,1.37,0.08
1900-01-01 12:19:26.847,36.41,17.42,15.61,0.3,0.59,0.74,-0.79,0.02,-0.97,28.6,32.64,-0.76,0.52,0.47,0.67,-1.01,1.52,0.02
1900-01-01 12:19:26.894,36.13,17.51,15.62,0.3,0.6,0.76,-0.61,-0.23,-0.81,28.51,32.65,-0.76,0.53,0.47,0.69,-1.46,1.2,0.05
1900-01-01 12:19:26.989,36.28,17.21,15.66,0.3,0.59,0.75,-0.15,-0.72,-0.79,28.81,32.41,-0.76,0.53,0.47,0.68,-0.72,1.39,-0.16
1900-01-01 12:19:27.083,36.29,17.9,15.7,0.31,0.59,0.75,-0.59,-0.18,-0.46,28.91,32.94,-0.8,0.53,0.47,0.67,-1.2,1.13,0.36
1900-01-01 12:19:27.129,36.32,17.23,15.78,0.3,0.6,0.76,-0.76,-0.1,-0.57,28.84,32.57,-0.75,0.53,0.48,0.68,-1.34,1.76,0.45
1900-01-01 12:19:27.222,36.56,17.42,15.86,0.3,0.6,0.75,-1.18,0.25,-0.78,28.69,32.29,-0.69,0.52,0.47,0.68,-2.31,2.11,0.47
1900-01-01 12:19:27.317,36.4,17.64,15.9,0.3,0.59,0.74,-1.12,0.06,-1.22,28.73,32.6,-0.63,0.52,0.47,0.67,-1.96,1.5,0.02
1900-01-01 12:19:27.363,36.44,17.22,15.87,0.3,0.6,0.75,-0.72,-0.21,-1.21,28.52,32.39,-0.63,0.53,0.47,0.68,-1.71,1.02,-0.21
1900-01-01 12:19:27.458,35.81,17.51,15.84,0.3,0.59,0.76,-0.31,-0.4,-1.03,28.22,32.93,-0.67,0.53,0.46,0.68,-1.1,1.31,-0.19
1900-01-01 12:19:27.551,36.04,17.22,15.84,0.3,0.59,0.76,-0.76,-0.27,-1.01,28.18,32.56,-0.71,0.53,0.47,0.69,-1.66,1.3,0.09
1900-01-01 12:19:27.598,36.11,17.34,15.85,0.3,0.59,0.75,-0.56,-0.37,-0.96,28.35,32.44,-0.7,0.52,0.46,0.68,-1.05,1.38,-0.12
1900-01-01 12:19:27.692,36.28,17.3,15.86,0.3,0.6,0.75,-0.41,-0.34,-0.83,28.62,32.38,-0.73,0.53,0.47,0.69,-0.96,1.44,0.01
1900-01-01 12:19:27.739,36.21,17.54,15.89,0.3,0.59,0.75,-0.27,-0.63,-0.84,28.68,32.54,-0.74,0.53,0.47,0.68,-1.05,0.96,-0.18
1900-01-01 12:19:27.833,36.35,17.31,15.92,0.3,0.6,0.75,-0.37,-0.19,-0.91,28.63,32.55,-0.77,0.53,0.47,0.68,-1.18,1.28,0.09
1900-01-01 12:19:27.928,36.44,17.5,15.94,0.3,0.6,0.75,-0.47,-0.4,-0.93,28.95,32.53,-0.77,0.53,0.47,0.68,-1.18,1.11,-0.05
1900-01-01 12:19:27.973,36.41,17.25,15.95,0.3,0.6,0.75,-0.73,-0.24,-0.93,28.72,32.43,-0.79,0.53,0.47,0.68,-1.39,1.34,-0.02
1900-01-01 12:19:28.069,36.35,17.28,15.97,0.3,0.6,0.75,-0.82,-0.22,-1.16,28.7,32.22,-0.8,0.52,0.47,0.68,-1.67,1.53,-0.08
1900-01-01 12:19:28.161,36.29,17.31,15.95,0.3,0.6,0.75,-0.85,0.01,-1.21,28.73,32.31,-0.82,0.53,0.47,0.68,-1.85,1.61,0.04
1900-01-01 12:19:28.209,36.29,17.31,15.92,0.3,0.59,0.75,-0.66,-0.18,-1.12,28.93,32.29,-0.82,0.52,0.47,0.68,-1.64,1.59,0.02
1900-01-01 12:19:28.302,35.75,17.21,15.91,0.3,0.59,0.76,-0.98,-0.05,-0.97,27.69,32.57,-0.83,0.53,0.45,0.69,-1.65,1.31,0.05
1900-01-01 12:19:28.348,36.49,17.31,15.92,0.3,0.6,0.75,-0.3,-0.19,-1.0,28.79,31.94,-0.83,0.52,0.47,0.69,-1.97,1.18,0.02
1900-01-01 12:19:28.443,35.91,17.03,15.93,0.29,0.59,0.75,-0.25,-0.66,-0.73,27.87,32.59,-0.83,0.52,0.45,0.68,-0.73,1.27,-0.22
1900-01-01 12:19:28.536,36.21,17.31,15.97,0.3,0.59,0.75,-0.76,-0.31,-0.93,28.34,32.29,-0.88,0.52,0.47,0.69,-0.95,1.31,-0.15
1900-01-01 12:19:28.584,36.54,17.37,15.99,0.3,0.6,0.75,-0.11,-0.49,-0.72,28.84,32.51,-0.91,0.53,0.47,0.68,-1.11,1.21,-0.01
1900-01-01 12:19:28.678,36.01,17.33,16.04,0.3,0.59,0.76,-0.27,-0.52,-0.75,28.43,32.63,-0.92,0.53,0.47,0.68,-0.76,1.21,-0.01
1900-01-01 12:19:28.770,36.72,17.38,16.08,0.3,0.6,0.75,-0.18,-0.29,-0.96,29.09,32.04,-0.93,0.52,0.48,0.68,-1.48,0.92,-0.04
1900-01-01 12:19:28.818,36.02,17.29,16.09,0.3,0.59,0.76,-0.38,-0.09,-0.82,28.26,32.58,-0.94,0.53,0.47,0.69,-1.27,1.21,0.04
1900-01-01 12:19:28.912,36.11,17.49,16.13,0.3,0.59,0.75,-0.53,-0.57,-0.84,28.53,32.33,-0.94,0.52,0.47,0.68,-1.19,1.16,-0.17
1900-01-01 12:19:28.959,36.52,17.41,16.16,0.3,0.6,0.75,-0.81,-0.06,-0.87,28.91,32.12,-0.98,0.52,0.48,0.68,-1.42,1.42,0.18
1900-01-01 12:19:29.053,35.78,17.41,16.18,0.3,0.59,0.75,-0.53,-0.6,-0.85,28.07,32.71,-0.96,0.53,0.46,0.68,-0.79,1.3,-0.19
1900-01-01 12:19:29.146,36.51,17.59,16.21,0.31,0.6,0.75,-0.96,0.18,-1.02,28.89,32.28,-1.0,0.53,0.48,0.69,-1.87,1.42,0.24
1900-01-01 12:19:29.193,36.45,17.33,16.21,0.3,0.6,0.75,-0.31,-0.53,-0.85,28.61,32.47,-0.97,0.52,0.47,0.68,-1.02,1.44,-0.13
1900-01-01 12:19:29.288,36.15,17.15,16.24,0.3,0.59,0.76,-0.88,-0.05,-0.88,28.27,32.15,-1.0,0.52,0.47,0.69,-1.3,1.48,0.06
1900-01-01 12:19:29.382,36.5,17.52,16.26,0.3,0.6,0.75,-0.23,-0.56,-0.7,28.98,32.13,-1.0,0.52,0.48,0.68,-1.25,1.25,0.07
1900-01-01 12:19:29.430,36.54,17.54,16.32,0.3,0.6,0.75,0.05,-0.5,-0.98,29.07,32.24,-0.99,0.52,0.47,0.68,-0.04,1.24,-0.45
1900-01-01 12:19:29.523,35.83,17.4,16.32,0.3,0.59,0.76,-0.82,-0.31,-0.93,28.07,32.64,-1.07,0.53,0.46,0.69,-1.08,1.28,0.24
1900-01-01 12:19:29.570,36.39,17.83,16.34,0.31,0.59,0.74,-1.41,-0.63,-1.65,29.55,32.47,-1.04,0.53,0.48,0.67,-1.01,0.75,-0.72
1900-01-01 12:19:29.664,36.75,17.15,16.25,0.3,0.61,0.76,-0.45,-0.41,-1.02,28.84,32.3,-1.16,0.53,0.48,0.68,-1.92,1.02,0.24
1900-01-01 12:19:29.759,34.87,17.11,16.25,0.3,0.58,0.78,-1.84,1.05,-1.4,27.78,32.55,-1.13,0.54,0.47,0.71,-3.02,3.21,1.05
1900-01-01 12:19:29.806,35.81,16.82,16.19,0.29,0.58,0.75,-2.08,0.48,-0.7,27.94,31.81,-0.98,0.51,0.45,0.68,-2.27,2.25,1.34
1900-01-01 12:19:29.900,36.8,17.0,16.24,0.29,0.6,0.74,-1.35,0.95,-0.26,28.53,32.02,-0.78,0.52,0.46,0.68,-2.4,1.31,1.34
1900-01-01 12:19:29.993,36.31,16.79,16.36,0.29,0.59,0.76,-0.12,-0.56,-0.3,28.11,32.4,-0.59,0.52,0.46,0.69,-0.43,1.13,0.22
1900-01-01 12:19:30.041,36.36,17.25,16.48,0.3,0.6,0.75,0.15,-1.2,-0.91,28.61,31.99,-0.56,0.52,0.47,0.69,-0.49,1.5,-0.79
1900-01-01 12:19:30.135,36.05,17.43,16.5,0.3,0.59,0.75,0.24,-1.1,-0.45,28.28,32.84,-0.69,0.53,0.46,0.67,-0.32,0.49,-0.3
1900-01-01 12:19:30.181,36.49,17.39,16.59,0.3,0.61,0.76,-1.79,0.63,-1.42,29.12,32.4,-0.75,0.53,0.48,0.68,-2.66,1.47,-0.42
1900-01-01 12:19:30.274,35.64,17.66,16.53,0.31,0.6,0.77,-2.36,1.53,-1.13,27.31,33.4,-0.82,0.55,0.45,0.69,-4.56,2.43,1.24
1900-01-01 12:19:30.369,35.72,16.16,16.51,0.28,0.59,0.77,0.48,-0.9,-0.91,27.51,31.52,-0.64,0.52,0.46,0.71,-2.77,3.23,-0.75
1900-01-01 12:19:30.416,35.36,18.49,16.53,0.31,0.57,0.74,1.01,-2.15,-0.02,28.73,33.24,-0.76,0.52,0.46,0.66,0.34,0.87,-0.9
1900-01-01 12:19:30.509,35.9,17.47,16.69,0.3,0.59,0.76,-0.11,-0.86,0.21,27.92,31.9,-0.91,0.52,0.46,0.7,-0.08,1.15,0.03
1900-01-01 12:19:30.604,36.31,17.04,16.88,0.3,0.6,0.76,0.55,-0.76,0.11,28.85,31.21,-0.91,0.51,0.47,0.69,-0.23,1.2,-0.64
1900-01-01 12:19:30.650,35.75,17.26,17.05,0.3,0.59,0.76,-0.22,-0.25,-0.45,27.7,32.07,-1.02,0.52,0.45,0.69,-0.97,1.89,-0.09
1900-01-01 12:19:30.744,35.88,18.02,17.14,0.31,0.59,0.75,-1.33,-0.08,-1.18,28.38,31.81,-1.04,0.52,0.47,0.69,-1.96,1.93,-0.27
1900-01-01 12:19:30.791,36.14,18.16,17.12,0.31,0.59,0.74,-0.6,-0.48,-1.08,28.46,31.9,-1.09,0.51,0.46,0.68,-1.53,1.46,-0.29
1900-01-01 12:19:30.886,36.01,17.99,17.11,0.31,0.59,0.75,-0.44,-0.35,-1.06,28.33,31.85,-1.14,0.52,0.46,0.69,-0.42,0.98,-0.34
1900-01-01 12:19:30.978,35.9,17.69,17.11,0.31,0.59,0.76,0.25,-0.94,-1.02,28.53,31.71,-1.2,0.52,0.47,0.69,0.16,0.96,-0.77
1900-01-01 12:19:31.026,36.19,17.86,17.11,0.31,0.6,0.75,-0.2,-0.37,-0.98,28.69,32.13,-1.33,0.52,0.47,0.69,-1.25,0.79,-0.08
1900-01-01 12:19:31.120,35.85,17.72,17.12,0.31,0.59,0.76,-0.56,-0.31,-0.97,28.38,31.78,-1.35,0.52,0.47,0.69,-1.16,1.44,-0.07
1900-01-01 12:19:31.214,36.12,17.99,17.13,0.31,0.59,0.75,-0.9,-0.23,-1.09,28.69,32.0,-1.37,0.52,0.47,0.68,-1.61,1.39,-0.03
1900-01-01 12:19:31.260,36.6,17.69,17.12,0.31,0.6,0.75,-0.57,-0.24,-0.73,28.52,31.62,-1.38,0.51,0.47,0.69,-1.5,1.21,0.17
1900-01-01 12:19:31.356,36.04,17.72,17.17,0.3,0.59,0.75,-0.18,-0.6,-1.01,28.54,31.9,-1.37,0.51,0.46,0.68,-0.09,1.52,-0.45
1900-01-01 12:19:31.449,36.29,18.05,17.17,0.31,0.6,0.75,0.03,-0.43,-1.04,29.28,31.48,-1.44,0.52,0.49,0.69,-0.89,0.66,-0.17
1900-01-01 12:19:31.495,36.08,17.92,17.17,0.31,0.59,0.75,-0.31,-0.29,-0.81,28.9,31.92,-1.48,0.52,0.47,0.68,-1.27,1.53,0.08
1900-01-01 12:19:31.589,35.74,17.93,17.21,0.31,0.58,0.75,-0.54,-0.57,-0.93,28.79,31.97,-1.47,0.52,0.47,0.68,-0.8,1.34,-0.02
1900-01-01 12:19:31.637,36.67,17.97,17.22,0.31,0.6,0.75,-0.76,-0.07,-0.86,29.65,31.4,-1.49,0.51,0.49,0.69,-1.96,1.12,0.38
1900-01-01 12:19:31.731,35.78,17.7,17.25,0.3,0.59,0.75,-0.52,-0.64,-0.71,28.04,32.13,-1.44,0.52,0.46,0.69,-1.06,1.24,-0.18
1900-01-01 12:19:31.825,36.47,17.84,17.3,0.31,0.6,0.75,-0.73,-0.17,-1.18,29.19,31.53,-1.47,0.51,0.48,0.69,-1.1,1.5,-0.01
1900-01-01 12:19:31.875,36.09,18.04,17.28,0.31,0.59,0.75,-0.76,-0.05,-0.95,28.96,31.9,-1.48,0.52,0.48,0.69,-1.62,1.26,0.14
1900-01-01 12:19:31.968,36.21,18.02,17.29,0.31,0.59,0.75,-0.31,-0.53,-0.8,28.86,31.83,-1.47,0.52,0.47,0.68,-1.08,1.11,0.02
1900-01-01 12:19:32.014,36.13,17.83,17.33,0.31,0.59,0.75,-0.52,-0.44,-0.89,28.75,31.85,-1.47,0.52,0.47,0.68,-0.9,1.4,-0.03
1900-01-01 12:19:32.109,36.43,18.1,17.35,0.31,0.6,0.75,-0.38,-0.08,-0.97,29.38,31.47,-1.49,0.51,0.48,0.69,-1.57,1.11,0.08
1900-01-01 12:19:32.202,36.21,17.8,17.36,0.31,0.59,0.75,-0.82,-0.43,-0.84,27.76,32.0,-1.48,0.52,0.45,0.69,-1.38,1.39,-0.55
1900-01-01 12:19:32.249,36.2,18.09,17.39,0.31,0.59,0.74,-0.09,-0.83,-1.15,29.23,31.77,-1.58,0.51,0.47,0.67,-0.34,1.15,-0.73
1900-01-01 12:19:32.342,36.28,18.07,17.37,0.32,0.6,0.76,-0.79,0.12,-0.9,29.07,31.96,-1.7,0.52,0.48,0.69,-1.44,1.38,0.24
1900-01-01 12:19:32.437,36.15,17.83,17.39,0.31,0.6,0.76,-0.74,-0.29,-0.85,28.97,31.64,-1.67,0.52,0.48,0.7,-1.97,1.11,0.21
1900-01-01 12:19:32.483,36.41,18.01,17.42,0.31,0.59,0.74,-0.66,-0.19,-0.63,29.04,31.5,-1.64,0.51,0.47,0.68,-1.61,1.55,0.39
1900-01-01 12:19:32.577,36.43,17.92,17.48,0.31,0.59,0.74,-0.57,-0.17,-0.97,29.0,31.52,-1.59,0.51,0.47,0.68,-0.99,1.55,0.03
1900-01-01 12:19:32.624,36.26,17.93,17.49,0.31,0.6,0.75,-0.35,-0.4,-0.89,28.97,31.58,-1.6,0.52,0.48,0.69,-1.2,1.25,0.03
1900-01-01 12:19:32.718,36.02,18.15,17.51,0.31,0.59,0.75,-0.58,-0.21,-0.9,29.02,31.85,-1.6,0.52,0.48,0.68,-1.19,1.57,0.08
1900-01-01 12:19:32.812,36.05,18.05,17.53,0.31,0.59,0.75,-0.57,-0.31,-0.84,28.86,31.98,-1.6,0.52,0.47,0.68,-1.5,1.14,0.09
1900-01-01 12:19:32.858,36.42,17.95,17.56,0.31,0.6,0.75,-0.37,-0.02,-0.9,28.96,31.6,-1.59,0.51,0.47,0.69,-1.34,1.23,0.08
1900-01-01 12:19:32.951,36.36,18.0,17.59,0.31,0.6,0.75,-0.49,-0.25,-0.87,28.89,31.86,-1.59,0.52,0.47,0.68,-0.95,0.75,-0.27
1900-01-01 12:19:33.046,36.44,17.81,17.61,0.31,0.6,0.75,-0.09,-0.18,-1.01,28.9,31.72,-1.64,0.51,0.47,0.68,-0.4,1.12,-0.05
1900-01-01 12:19:33.092,36.05,18.1,17.62,0.31,0.59,0.75,-0.81,0.62,-2.5,29.37,31.67,-1.65,0.52,0.48,0.68,1.05,-0.44,-1.05
1900-01-01 12:19:33.185,35.66,18.14,17.39,0.31,0.59,0.76,-1.11,0.07,-1.89,28.36,32.42,-1.82,0.54,0.48,0.7,-4.85,-2.4,0.74
1900-01-01 12:19:33.235,37.78,17.13,17.26,0.3,0.62,0.74,-0.53,1.05,-0.86,29.52,32.04,-1.72,0.51,0.47,0.66,3.21,-1.57,2.58
1900-01-01 12:19:33.329,34.18,17.16,17.29,0.3,0.58,0.79,-2.49,0.91,-1.47,25.87,34.25,-1.33,0.57,0.44,0.71,5.78,-0.79,-0.33
1900-01-01 12:19:33.424,36.35,18.58,17.22,0.33,0.62,0.77,-1.31,-1.61,-2.75,34.19,33.04,-1.39,0.55,0.57,0.63,3.54,-1.42,2.6
1900-01-01 12:19:33.475,37.82,17.62,16.96,0.31,0.63,0.75,-2.18,0.08,-0.6,32.59,33.5,-1.0,0.55,0.54,0.63,2.75,-0.84,4.27
1900-01-01 12:19:33.565,35.73,17.13,17.03,0.29,0.57,0.74,-0.69,0.5,-0.02,31.37,33.72,-0.36,0.54,0.51,0.63,4.94,-1.11,3.75
1900-01-01 12:19:33.659,35.78,16.92,17.18,0.3,0.6,0.77,-5.02,-0.19,-0.1,30.19,35.51,0.2,0.57,0.5,0.63,-1.08,0.0,2.76
1900-01-01 12:19:33.705,34.97,17.96,17.33,0.31,0.57,0.75,-1.21,0.78,-1.34,31.45,35.5,0.62,0.56,0.51,0.61,-0.05,-2.3,-1.19
1900-01-01 12:19:33.800,35.7,16.82,17.28,0.29,0.58,0.76,-2.33,1.52,-1.05,31.29,34.88,0.43,0.56,0.51,0.63,0.97,-3.22,-2.15
1900-01-01 12:19:33.847,35.74,17.14,17.28,0.29,0.58,0.75,-0.05,0.18,0.21,32.33,36.49,0.09,0.58,0.52,0.59,4.73,-5.01,-2.1
1900-01-01 12:19:33.941,36.33,16.8,17.47,0.28,0.58,0.74,0.34,2.68,-0.05,34.9,35.86,-0.24,0.57,0.55,0.55,0.21,-0.84,1.77
1900-01-01 12:19:34.037,33.5,13.53,17.62,0.23,0.54,0.78,-3.46,3.86,0.27,26.97,37.68,0.02,0.58,0.43,0.62,-4.67,2.24,3.15
1900-01-01 12:19:34.084,33.07,15.16,17.82,0.26,0.54,0.78,-2.17,3.25,-2.73,30.32,37.32,0.49,0.6,0.5,0.61,-6.8,-0.12,2.9
1900-01-01 12:19:34.179,34.74,15.1,17.56,0.26,0.57,0.78,1.08,0.35,-0.86,29.85,38.35,0.93,0.61,0.49,0.59,-1.95,-0.69,0.91
1900-01-01 12:19:34.226,34.27,15.22,17.59,0.26,0.56,0.78,2.66,1.32,0.05,28.29,38.74,1.06,0.6,0.46,0.6,1.09,0.01,1.98
1900-01-01 12:19:34.322,33.69,14.36,17.75,0.25,0.55,0.79,1.44,0.95,-1.57,26.53,39.96,1.35,0.63,0.44,0.61,1.74,0.57,1.36
1900-01-01 12:19:34.415,34.18,15.42,17.67,0.27,0.57,0.8,0.92,0.04,-1.87,29.72,39.35,1.54,0.64,0.5,0.6,2.14,0.15,1.98
1900-01-01 12:19:34.463,35.55,15.11,17.55,0.27,0.6,0.79,-0.06,0.74,-1.46,30.13,39.57,1.84,0.64,0.5,0.58,-2.5,0.7,3.57
1900-01-01 12:19:34.556,34.87,15.85,17.49,0.28,0.59,0.8,-0.77,0.2,-0.68,27.3,41.3,2.37,0.67,0.47,0.61,-4.18,-0.89,2.34
1900-01-01 12:19:34.652,35.02,15.32,17.54,0.27,0.58,0.78,-0.7,-3.36,0.56,28.11,40.39,2.72,0.63,0.46,0.58,-0.56,0.37,-2.08
1900-01-01 12:19:34.698,35.28,16.54,17.78,0.28,0.57,0.76,-0.28,-2.21,0.25,28.58,41.25,2.39,0.65,0.47,0.57,0.02,-2.21,-2.32
1900-01-01 12:19:34.791,35.21,15.42,17.98,0.27,0.59,0.79,0.5,-3.25,0.17,28.86,40.91,2.03,0.66,0.49,0.59,0.45,-0.05,-1.97
1900-01-01 12:19:34.839,35.86,15.22,18.17,0.27,0.6,0.78,0.85,-4.57,-0.54,30.24,40.07,1.72,0.64,0.5,0.57,1.06,-1.44,-2.94
1900-01-01 12:19:34.932,36.87,16.54,18.24,0.29,0.61,0.76,-0.26,-2.36,-1.11,31.17,39.52,1.26,0.63,0.51,0.57,-0.82,-0.29,-1.48
1900-01-01 12:19:35.027,35.75,17.19,18.23,0.3,0.6,0.77,-0.93,-2.47,-2.06,31.18,40.44,1.03,0.65,0.52,0.56,-1.08,0.09,-2.07
1900-01-01 12:19:35.075,36.44,17.54,18.07,0.3,0.6,0.75,-1.34,-1.22,-2.97,31.55,40.2,0.71,0.64,0.52,0.55,-1.57,-0.72,-2.44
1900-01-01 12:19:35.256,36.22,17.97,17.78,0.31,0.59,0.74,-0.63,-1.89,-3.03,32.4,39.68,0.32,0.62,0.52,0.54,-1.11,-0.15,-2.79
1900-01-01 12:19:35.256,35.6,17.22,17.47,0.3,0.59,0.76,-2.84,-1.61,-2.02,31.55,40.58,-0.11,0.65,0.52,0.55,-3.2,0.3,0.28
1900-01-01 12:19:35.293,36.49,16.82,17.32,0.29,0.6,0.75,-0.87,-1.89,-2.74,32.24,40.17,-0.08,0.63,0.52,0.54,-1.65,-0.11,-1.8
1900-01-01 12:19:35.389,35.71,17.83,17.06,0.31,0.58,0.75,-1.5,-1.24,-2.64,31.88,40.43,-0.36,0.64,0.52,0.54,-2.46,0.2,-1.07
1900-01-01 12:19:36.528,35.75,17.19,16.81,0.29,0.58,0.75,-0.88,-1.88,-2.11,31.1,40.41,-0.54,0.63,0.51,0.55,-1.31,-0.04,-1.46
1900-01-01 12:19:36.528,36.59,16.83,16.65,0.29,0.6,0.75,1.69,-1.9,-2.39,33.76,39.06,-0.77,0.63,0.55,0.54,-0.96,0.73,-1.66
1900-01-01 12:19:36.528,36.0,16.8,16.44,0.29,0.59,0.76,0.15,-1.44,-1.69,31.51,39.7,-1.03,0.63,0.51,0.55,-1.29,0.29,-0.87
1900-01-01 12:19:36.528,36.49,17.19,16.34,0.3,0.61,0.76,-0.7,-1.22,-2.08,32.08,40.11,-1.17,0.64,0.53,0.55,-1.85,1.33,-0.73
1900-01-01 12:19:36.528,36.43,17.67,16.18,0.31,0.61,0.76,-1.05,-0.5,-1.45,32.45,40.12,-1.29,0.65,0.54,0.55,-1.9,1.25,-0.32
1900-01-01 12:19:36.528,36.66,17.42,16.12,0.3,0.6,0.74,-0.13,0.05,-1.24,32.72,39.85,-1.35,0.63,0.53,0.53,-1.47,1.49,-0.74
1900-01-01 12:19:36.528,36.5,17.51,16.09,0.3,0.59,0.74,-1.03,0.51,-1.23,32.44,39.89,-1.47,0.63,0.53,0.54,-1.64,1.23,0.13
1900-01-01 12:19:36.528,36.79,16.7,16.06,0.29,0.6,0.74,0.22,0.21,-1.49,32.44,39.49,-1.46,0.63,0.53,0.55,-1.18,0.82,-0.25
1900-01-01 12:19:36.528,36.24,16.94,15.99,0.28,0.58,0.73,1.63,-1.11,-2.08,32.36,39.81,-1.5,0.61,0.51,0.53,-0.23,0.02,-1.05
1900-01-01 12:19:36.528,36.65,16.81,15.83,0.29,0.61,0.76,0.7,-0.24,-2.95,33.22,40.08,-1.67,0.64,0.55,0.53,-0.13,1.15,1.15
1900-01-01 12:19:36.528,36.95,16.76,15.54,0.29,0.61,0.76,0.08,1.32,-2.3,33.55,39.49,-1.51,0.64,0.56,0.54,-1.82,2.62,0.54
1900-01-01 12:19:36.528,37.14,16.24,15.35,0.28,0.6,0.74,-0.77,2.47,-2.0,32.83,39.22,-1.43,0.62,0.53,0.54,-3.54,4.39,0.6
1900-01-01 12:19:36.528,37.12,16.21,15.2,0.28,0.6,0.74,-1.23,2.9,-2.15,30.8,40.13,-1.35,0.63,0.5,0.56,-5.4,2.09,1.11
1900-01-01 12:19:36.528,37.21,15.66,15.03,0.27,0.61,0.75,0.27,1.52,-1.55,31.17,41.0,-1.19,0.64,0.51,0.54,-0.34,1.82,0.15
1900-01-01 12:19:36.544,37.32,16.08,14.95,0.28,0.61,0.75,1.06,2.08,-1.2,32.55,39.65,-1.18,0.64,0.54,0.55,-1.05,3.08,-0.34
1900-01-01 12:19:36.814,37.06,14.92,14.93,0.26,0.61,0.76,1.61,2.34,-0.23,31.41,39.39,-1.24,0.63,0.52,0.56,-0.71,2.68,0.0
1900-01-01 12:19:36.814,36.84,14.37,15.05,0.25,0.6,0.76,0.84,1.92,-0.18,31.21,39.35,-1.25,0.63,0.51,0.57,-0.07,2.59,0.27
1900-01-01 12:19:36.814,37.59,14.35,15.18,0.25,0.62,0.76,0.05,1.91,0.52,31.67,39.56,-1.21,0.63,0.52,0.56,-0.03,2.51,1.89
1900-01-01 12:19:36.861,37.78,14.74,15.42,0.26,0.62,0.76,0.4,1.63,0.38,31.98,38.26,-0.94,0.62,0.53,0.58,-0.43,3.82,1.89
1900-01-01 12:19:36.908,37.63,14.81,15.64,0.25,0.6,0.74,0.91,0.39,-0.73,31.07,39.51,-0.66,0.64,0.52,0.57,2.24,-4.02,-0.25
1900-01-01 12:19:37.002,37.0,14.67,15.68,0.25,0.6,0.75,-1.41,-0.15,-0.08,31.26,39.51,-0.7,0.63,0.51,0.57,0.21,-0.63,2.7
1900-01-01 12:19:37.049,37.49,14.15,15.83,0.26,0.65,0.81,-2.84,-2.08,1.91,32.09,40.69,-0.3,0.69,0.57,0.58,-3.02,3.41,4.63
1900-01-01 12:19:37.143,38.14,17.17,16.28,0.3,0.62,0.73,-0.04,-2.12,3.12,31.24,39.9,0.4,0.62,0.5,0.55,2.56,0.1,3.5
1900-01-01 12:19:37.237,38.23,16.45,16.91,0.28,0.61,0.72,-1.56,-0.18,3.52,31.86,40.31,0.92,0.62,0.51,0.53,1.89,0.68,3.05
1900-01-01 12:19:37.284,36.44,16.03,17.61,0.28,0.59,0.75,-1.6,0.31,3.43,29.84,42.1,1.38,0.67,0.49,0.55,1.86,0.2,4.02
1900-01-01 12:19:37.378,36.75,16.74,18.28,0.29,0.6,0.76,-0.33,-1.27,3.05,30.49,42.24,1.98,0.67,0.51,0.54,1.87,-1.56,3.82
1900-01-01 12:19:37.427,36.7,17.15,18.91,0.29,0.59,0.74,0.29,-1.06,3.0,30.83,42.7,2.55,0.66,0.5,0.51,1.92,-0.2,2.75
1900-01-01 12:19:37.528,36.35,16.79,19.52,0.29,0.59,0.75,-2.02,0.4,1.94,29.44,42.89,2.96,0.67,0.48,0.53,0.17,0.64,3.21
1900-01-01 12:19:37.613,36.13,17.15,19.97,0.3,0.59,0.75,-1.22,0.52,0.94,29.53,43.67,3.43,0.68,0.49,0.52,-0.28,0.88,2.69
1900-01-01 12:19:37.660,35.67,18.1,20.27,0.31,0.59,0.76,-1.24,-0.24,0.94,29.77,43.98,3.84,0.69,0.5,0.52,-0.12,0.93,1.82
1900-01-01 12:19:37.754,34.95,18.74,20.58,0.32,0.57,0.75,-1.35,-0.28,0.66,29.9,44.52,4.1,0.69,0.49,0.5,-0.36,1.19,1.73
1900-01-01 12:19:37.850,35.73,17.51,20.83,0.3,0.58,0.74,-1.68,0.15,0.43,29.19,43.7,4.36,0.67,0.47,0.52,-0.66,0.56,2.07
1900-01-01 12:19:37.896,35.35,17.37,21.06,0.3,0.57,0.75,-0.79,0.32,-0.52,29.7,44.06,4.66,0.68,0.48,0.51,-0.44,0.86,1.66
1900-01-01 12:19:37.991,35.31,17.3,21.14,0.3,0.58,0.76,-0.11,-0.14,-0.97,28.99,43.96,4.91,0.7,0.49,0.53,-0.58,0.68,0.77
1900-01-01 12:19:38.039,35.18,17.74,21.15,0.31,0.58,0.76,-0.82,-0.76,-0.89,29.76,44.16,5.02,0.69,0.49,0.51,-1.31,1.88,-0.05
1900-01-01 12:19:38.131,36.36,16.96,21.17,0.29,0.59,0.75,-2.71,-1.96,-1.85,28.12,44.05,5.0,0.67,0.45,0.52,-5.08,2.09,-3.23
1900-01-01 12:19:38.226,34.65,17.39,21.05,0.3,0.57,0.76,-2.4,-0.41,-2.88,29.08,43.76,4.5,0.68,0.47,0.52,-2.24,2.93,-0.6
1900-01-01 12:19:38.273,35.0,17.53,20.76,0.3,0.58,0.77,-0.85,0.76,-4.18,28.68,43.33,4.4,0.68,0.48,0.54,0.35,1.15,-4.68
1900-01-01 12:19:38.367,34.71,17.4,20.29,0.31,0.59,0.79,5.56,-0.88,-4.21,31.25,44.22,3.68,0.7,0.52,0.5,4.85,0.96,-12.53
1900-01-01 12:19:38.415,36.36,18.06,19.8,0.31,0.59,0.74,-2.37,-1.29,-3.37,33.82,42.44,1.76,0.66,0.55,0.48,-3.37,-1.99,-2.47
1900-01-01 12:19:38.532,34.76,16.5,19.45,0.28,0.56,0.76,-3.02,-1.63,-3.13,30.12,42.94,1.38,0.67,0.49,0.52,-5.85,0.02,-5.41
1900-01-01 12:19:38.603,35.03,19.08,19.13,0.35,0.61,0.8,-3.69,-1.42,-1.24,34.1,44.15,0.54,0.76,0.61,0.49,-11.2,3.61,-5.73
1900-01-01 12:19:38.648,31.95,24.51,19.09,0.42,0.53,0.74,0.21,-3.31,-2.11,30.95,43.57,-0.34,0.68,0.51,0.5,-10.47,5.91,-7.79
1900-01-01 12:19:38.742,33.33,19.09,18.93,0.32,0.54,0.76,-2.46,-1.24,-4.4,32.97,38.21,-1.55,0.6,0.53,0.55,-4.94,5.11,-7.54
1900-01-01 12:19:38.838,38.89,11.58,18.41,0.2,0.63,0.76,-1.84,0.11,-0.98,32.83,33.8,-2.71,0.55,0.53,0.62,-4.63,1.08,-1.11
1900-01-01 12:19:38.887,35.06,12.25,18.42,0.21,0.56,0.77,3.11,-1.45,-0.04,30.0,35.71,-2.89,0.55,0.47,0.6,0.05,2.55,-1.37
1900-01-01 12:19:38.978,36.91,12.5,18.58,0.22,0.6,0.78,2.64,1.21,0.72,32.82,32.26,-3.1,0.53,0.54,0.65,3.27,3.01,1.14
1900-01-01 12:19:39.025,33.43,17.65,18.84,0.3,0.55,0.78,-3.18,-0.15,1.56,29.16,42.17,-2.94,0.64,0.47,0.54,-5.11,2.89,5.08
1900-01-01 12:19:39.119,34.5,20.96,19.24,0.37,0.58,0.76,1.26,-1.16,-0.87,32.24,40.22,-2.17,0.66,0.55,0.56,-1.66,8.13,-2.73
1900-01-01 12:19:39.213,37.86,20.35,19.27,0.36,0.63,0.73,6.9,-1.94,1.31,37.53,34.93,-2.6,0.59,0.62,0.56,1.59,4.22,-3.57
1900-01-01 12:19:39.260,33.97,20.56,19.62,0.34,0.54,0.73,-1.86,0.54,1.31,30.19,41.36,-3.15,0.62,0.47,0.52,-1.9,0.22,3.16
1900-01-01 12:19:39.356,35.36,19.04,19.98,0.34,0.6,0.77,0.79,-0.04,-1.79,33.56,37.53,-2.68,0.63,0.57,0.59,1.65,-0.53,1.02
1900-01-01 12:19:40.836,36.81,18.19,19.87,0.31,0.6,0.74,0.29,-0.34,-0.9,33.12,38.13,-2.53,0.61,0.54,0.56,1.22,-1.61,1.24
1900-01-01 12:19:40.836,35.28,19.64,19.89,0.33,0.57,0.74,-0.04,0.29,-1.79,33.03,37.91,-2.35,0.6,0.54,0.56,0.88,1.2,-0.76
1900-01-01 12:19:40.836,35.16,19.01,19.77,0.33,0.59,0.76,-1.65,0.33,-1.45,32.59,39.61,-2.48,0.64,0.54,0.55,-2.71,1.62,0.73
1900-01-01 12:19:40.836,36.89,17.12,19.71,0.3,0.61,0.76,-0.82,-0.39,-0.78,33.67,37.5,-2.37,0.6,0.55,0.56,-0.53,-0.11,-0.4
1900-01-01 12:19:40.836,36.62,17.37,19.75,0.3,0.6,0.74,-0.64,-0.05,-0.82,33.72,36.84,-2.44,0.59,0.54,0.56,-1.27,2.2,0.95
1900-01-01 12:19:40.836,36.26,16.86,19.78,0.29,0.59,0.75,-2.88,0.36,-0.34,31.72,36.27,-2.31,0.59,0.52,0.61,-1.69,1.02,0.02
1900-01-01 12:19:40.836,36.1,16.81,19.89,0.29,0.59,0.76,-2.06,-0.38,-0.72,32.92,37.92,-2.31,0.6,0.53,0.56,-2.16,1.17,0.44
1900-01-01 12:19:40.836,36.36,17.27,19.94,0.3,0.6,0.75,1.39,0.8,-1.31,32.59,37.14,-2.25,0.6,0.53,0.58,-1.05,1.09,-0.63
1900-01-01 12:19:40.836,34.94,17.36,19.9,0.3,0.58,0.78,-1.44,-0.2,-1.32,32.43,37.86,-2.36,0.62,0.54,0.58,-0.05,2.72,-0.96
1900-01-01 12:19:40.836,35.8,18.43,19.85,0.32,0.59,0.76,-1.9,-0.56,-1.06,34.63,37.6,-2.51,0.61,0.57,0.55,1.48,1.0,-1.74
1900-01-01 12:19:40.836,34.7,18.0,19.85,0.31,0.57,0.77,-0.77,-0.86,-1.05,33.12,38.89,-2.79,0.62,0.54,0.55,-2.55,3.22,-1.82
1900-01-01 12:19:40.836,35.4,17.12,19.85,0.28,0.56,0.73,3.17,0.66,-1.31,37.82,31.3,-3.08,0.52,0.61,0.6,4.24,0.03,0.79
1900-01-01 12:19:40.836,34.34,17.3,19.81,0.29,0.56,0.76,4.12,-0.87,-0.2,29.47,36.84,-2.96,0.59,0.48,0.62,6.88,-2.33,-4.33
1900-01-01 12:19:40.836,39.79,15.15,19.94,0.27,0.66,0.74,-2.08,-2.63,0.76,35.11,38.38,-3.63,0.59,0.55,0.51,-7.34,2.37,-2.21
1900-01-01 12:19:40.836,36.02,19.27,20.21,0.33,0.59,0.74,-1.53,2.85,-1.92,34.31,36.9,-3.98,0.6,0.57,0.57,-3.21,6.27,0.08
1900-01-01 12:19:40.836,36.26,18.82,20.08,0.33,0.6,0.75,0.54,1.37,-2.14,35.34,35.02,-3.98,0.59,0.59,0.59,-1.24,3.93,0.12
1900-01-01 12:19:40.836,37.35,17.94,19.91,0.31,0.61,0.73,-2.63,0.4,0.03,34.22,36.74,-3.97,0.58,0.54,0.55,-1.52,1.75,1.63
1900-01-01 12:19:40.836,36.54,17.88,20.07,0.31,0.6,0.75,-1.37,0.4,-0.56,33.39,37.71,-3.73,0.61,0.55,0.56,-1.24,0.82,0.37
1900-01-01 12:19:40.836,36.24,18.72,20.15,0.32,0.59,0.74,0.18,-1.24,-0.82,33.73,37.09,-3.68,0.59,0.54,0.56,-0.5,0.84,-0.6
1900-01-01 12:19:40.861,36.52,17.91,20.18,0.31,0.6,0.74,-0.15,-0.21,-0.82,34.13,36.58,-3.78,0.59,0.55,0.57,-0.24,0.79,-0.41
1900-01-01 12:19:40.956,36.89,17.97,20.21,0.31,0.6,0.74,-1.22,-0.11,-1.01,35.18,36.97,-3.85,0.59,0.57,0.55,2.52,-1.05,1.02
1900-01-01 12:19:41.050,34.21,19.99,20.22,0.34,0.55,0.74,-0.03,0.47,-1.81,33.86,37.23,-3.7,0.59,0.55,0.56,2.48,1.87,-2.96
1900-01-01 12:19:41.096,34.81,18.09,20.1,0.31,0.57,0.76,-1.96,-0.78,-2.48,34.09,37.53,-4.16,0.6,0.56,0.56,3.63,-0.72,-0.92
1900-01-01 12:19:41.190,38.24,15.59,19.88,0.27,0.62,0.74,0.59,-1.94,-2.39,36.91,33.46,-4.31,0.54,0.59,0.57,2.34,-3.65,-1.15
1900-01-01 12:19:41.238,37.62,15.56,19.67,0.26,0.59,0.72,0.28,-0.03,-2.76,36.26,35.9,-4.5,0.57,0.57,0.53,0.65,-8.03,1.37
1900-01-01 12:19:41.333,36.14,16.27,19.41,0.28,0.59,0.76,13.35,2.11,-4.22,35.44,37.71,-4.3,0.61,0.58,0.54,17.69,-2.34,-18.67
1900-01-01 12:19:41.427,40.66,16.41,18.92,0.29,0.67,0.73,2.75,0.03,-1.08,42.21,36.58,-7.17,0.6,0.67,0.44,-0.89,-3.82,-1.46
1900-01-01 12:19:41.473,39.74,15.79,18.92,0.28,0.66,0.75,0.12,-0.95,-0.26,38.22,37.67,-7.4,0.63,0.64,0.51,-3.11,4.39,6.5
1900-01-01 12:19:41.568,39.85,17.5,19.03,0.29,0.63,0.69,-3.79,-0.08,-0.73,40.1,36.92,-6.42,0.58,0.62,0.46,-7.74,1.11,-1.15
1900-01-01 12:19:41.663,36.81,17.01,19.08,0.29,0.58,0.73,-7.44,1.86,-1.31,36.55,38.35,-6.6,0.61,0.59,0.5,-4.08,1.5,7.49
1900-01-01 12:19:41.710,37.63,16.68,19.04,0.29,0.62,0.75,-2.21,-0.35,-1.35,34.41,39.68,-5.47,0.64,0.56,0.52,-1.85,3.76,0.42
1900-01-01 12:19:41.839,37.93,16.76,18.99,0.29,0.63,0.75,0.15,-2.36,-3.14,36.88,38.8,-5.41,0.62,0.6,0.49,-1.82,0.35,-4.81
1900-01-01 12:19:41.850,37.72,17.05,18.67,0.3,0.62,0.74,0.85,-2.24,-4.01,37.98,37.91,-6.16,0.62,0.62,0.49,-2.02,-2.3,-6.05
1900-01-01 12:19:41.945,37.55,16.57,18.22,0.28,0.61,0.74,-0.37,-2.72,-3.69,38.76,35.91,-7.09,0.58,0.62,0.51,-1.95,-1.6,-6.11
1900-01-01 12:19:42.039,39.08,15.27,17.81,0.26,0.63,0.73,-2.17,-2.76,-2.15,38.23,35.93,-8.04,0.57,0.6,0.51,-3.83,-0.27,-1.52
1900-01-01 12:19:42.086,38.18,16.52,17.64,0.28,0.62,0.73,-2.57,-2.27,-2.66,38.3,36.73,-8.28,0.59,0.61,0.5,-4.32,-1.5,-1.96
1900-01-01 12:19:42.180,38.77,17.23,17.39,0.3,0.64,0.73,-1.34,-2.24,-1.83,38.71,36.66,-8.59,0.59,0.62,0.5,-3.95,0.11,-2.57
1900-01-01 12:19:42.229,37.83,16.7,17.26,0.29,0.62,0.75,-0.18,-3.21,-0.94,38.03,37.05,-8.99,0.6,0.61,0.5,-3.73,2.54,-2.62
1900-01-01 12:19:42.322,38.61,17.32,17.28,0.29,0.61,0.71,-0.85,-2.67,-1.4,38.93,34.72,-9.4,0.55,0.61,0.51,-1.5,-5.08,-2.4
1900-01-01 12:19:44.295,37.41,18.17,17.22,0.31,0.6,0.72,-2.24,-1.5,-1.38,38.64,36.84,-9.78,0.59,0.62,0.49,-0.85,-1.43,-1.97
1900-01-01 12:19:44.295,38.16,17.93,17.17,0.31,0.63,0.73,-1.78,-2.26,-0.85,39.69,36.23,-10.09,0.6,0.65,0.5,-1.11,0.21,0.69
1900-01-01 12:19:44.295,39.07,17.95,17.2,0.31,0.63,0.72,0.73,-1.98,-0.98,40.44,35.3,-9.99,0.57,0.64,0.49,-1.34,0.6,0.36
1900-01-01 12:19:44.295,38.69,18.16,17.2,0.32,0.63,0.73,0.04,-1.1,-0.05,39.23,36.69,-9.95,0.59,0.63,0.49,-4.78,3.85,0.07
1900-01-01 12:19:44.295,39.48,18.57,17.35,0.31,0.62,0.69,-0.96,0.6,0.27,39.31,36.24,-9.94,0.56,0.6,0.47,-2.67,-0.34,0.71
1900-01-01 12:19:44.295,37.46,18.05,17.56,0.31,0.6,0.73,-2.41,1.82,-1.5,37.42,36.38,-9.85,0.59,0.6,0.52,0.74,0.82,4.74
1900-01-01 12:19:44.295,38.51,17.82,17.49,0.31,0.63,0.73,1.18,1.01,-0.85,38.85,37.05,-9.13,0.6,0.63,0.49,1.85,0.7,1.86
1900-01-01 12:19:44.295,39.08,17.89,17.52,0.31,0.64,0.72,0.74,1.64,0.33,39.65,36.72,-8.86,0.59,0.63,0.48,0.44,0.9,2.43
1900-01-01 12:19:44.295,37.14,17.87,17.72,0.31,0.6,0.73,-0.47,1.39,0.11,37.31,38.93,-8.5,0.62,0.6,0.48,0.24,0.39,0.79
1900-01-01 12:19:44.295,39.07,17.73,17.9,0.3,0.62,0.71,2.21,4.79,0.18,41.84,36.1,-8.39,0.57,0.65,0.44,0.37,5.25,4.53
1900-01-01 12:19:44.295,37.48,15.54,18.09,0.27,0.62,0.76,-0.69,6.92,1.27,34.76,39.34,-7.71,0.64,0.57,0.53,0.15,6.4,3.08
1900-01-01 12:19:44.295,37.86,17.01,18.44,0.29,0.61,0.73,1.91,4.73,0.38,38.21,38.75,-7.25,0.62,0.61,0.47,0.37,3.06,2.71
1900-01-01 12:19:44.295,38.16,14.95,18.65,0.26,0.63,0.75,-2.28,1.68,-0.92,35.02,38.0,-6.85,0.62,0.58,0.55,-3.82,5.97,-0.34
1900-01-01 12:19:44.295,39.21,16.2,18.67,0.28,0.63,0.72,-0.38,-1.0,-0.3,36.99,37.48,-6.91,0.59,0.58,0.5,-2.25,-0.34,-1.06
1900-01-01 12:19:44.295,37.51,15.97,18.78,0.27,0.6,0.73,-0.44,0.79,-1.53,36.94,38.19,-7.08,0.61,0.6,0.5,2.43,1.56,2.44
1900-01-01 12:19:44.295,38.45,16.03,18.71,0.28,0.64,0.75,-0.65,-0.78,-0.1,36.58,37.93,-6.72,0.62,0.6,0.52,-0.31,2.98,0.93
1900-01-01 12:19:44.295,38.34,16.17,18.85,0.28,0.63,0.75,-0.12,-1.12,-0.08,37.19,38.42,-6.58,0.62,0.6,0.5,-0.63,2.37,1.87
1900-01-01 12:19:44.295,39.41,16.49,19.0,0.29,0.65,0.74,-1.05,0.05,-0.04,35.28,39.02,-6.31,0.63,0.57,0.52,-1.92,1.84,2.08
1900-01-01 12:19:44.295,38.29,15.67,19.15,0.28,0.64,0.76,-1.76,-1.35,-0.09,35.34,40.46,-6.0,0.65,0.58,0.5,-5.17,1.48,-0.46
1900-01-01 12:19:44.295,40.2,16.51,19.3,0.28,0.64,0.7,0.42,-2.53,0.15,37.09,34.76,-6.08,0.54,0.57,0.53,-3.06,3.34,-1.23
1900-01-01 12:19:44.295,38.0,16.39,19.48,0.27,0.6,0.71,-1.37,1.24,-1.6,34.81,38.77,-6.27,0.59,0.53,0.5,0.04,-0.98,0.25
1900-01-01 12:19:44.295,38.12,15.97,19.39,0.28,0.62,0.74,-0.98,0.83,-1.69,36.81,38.23,-6.24,0.63,0.61,0.52,0.97,-0.69,1.18
1900-01-01 12:19:44.295,38.95,17.15,19.29,0.3,0.63,0.73,-0.59,-1.01,-0.87,37.8,37.86,-6.07,0.61,0.61,0.49,-0.65,-1.17,-0.46
1900-01-01 12:19:44.295,37.45,16.28,19.32,0.28,0.61,0.75,-3.99,-0.76,0.44,34.69,39.33,-6.15,0.63,0.56,0.52,-2.75,2.49,3.11
1900-01-01 12:19:44.295,37.61,16.08,19.54,0.28,0.61,0.74,-0.92,-0.47,-0.76,34.84,38.76,-5.68,0.62,0.57,0.53,-1.83,-1.25,-0.74
1900-01-01 12:19:44.295,37.88,16.2,19.59,0.28,0.61,0.74,-1.62,-0.89,-1.29,36.24,38.48,-5.81,0.61,0.58,0.5,-3.08,1.67,-0.17
1900-01-01 12:19:44.384,38.19,16.0,19.55,0.28,0.62,0.74,-0.85,-0.76,-2.32,36.07,38.72,-5.84,0.62,0.58,0.5,-3.59,0.1,-1.6
1900-01-01 12:19:44.478,35.61,17.19,19.35,0.29,0.57,0.75,0.77,-1.47,-2.89,39.43,36.97,-6.09,0.59,0.63,0.48,-0.23,2.16,2.22
1900-01-01 12:19:44.524,35.61,16.99,19.07,0.29,0.58,0.76,-3.12,-0.59,-1.66,34.03,40.6,-5.76,0.68,0.59,0.54,-6.6,-1.24,4.32
1900-01-01 12:19:44.619,37.22,17.74,18.97,0.3,0.6,0.73,2.31,-5.29,-0.81,33.41,38.75,-5.11,0.59,0.52,0.52,1.86,-2.42,-5.09
1900-01-01 12:19:44.712,38.63,16.7,19.01,0.28,0.62,0.72,-3.94,0.75,-1.24,37.07,40.72,-5.9,0.62,0.57,0.43,-2.96,-1.56,0.34
1900-01-01 12:19:44.759,35.92,15.74,18.97,0.28,0.61,0.8,-3.39,-1.01,-0.36,31.84,41.56,-5.85,0.71,0.57,0.57,-1.04,6.45,3.22
1900-01-01 12:19:44.856,37.66,18.42,19.08,0.3,0.58,0.69,2.08,-0.32,-1.84,38.01,40.35,-5.37,0.6,0.57,0.42,-1.38,-7.24,-0.34
1900-01-01 12:19:44.900,36.75,15.48,18.95,0.28,0.63,0.79,-3.3,1.76,-0.85,33.32,40.86,-5.43,0.69,0.58,0.55,-3.61,4.87,5.53
1900-01-01 12:19:44.993,36.47,18.63,18.98,0.32,0.6,0.74,2.4,-1.21,-0.98,34.81,40.98,-4.6,0.64,0.55,0.48,0.95,0.1,-3.41
1900-01-01 12:19:45.089,37.29,16.38,18.99,0.28,0.61,0.75,-2.79,2.15,-1.59,35.2,41.31,-5.12,0.66,0.58,0.48,-2.21,1.56,1.14
1900-01-01 12:19:45.135,36.44,16.56,18.91,0.3,0.61,0.78,-1.43,-2.61,0.11,32.7,41.47,-4.96,0.67,0.54,0.52,-1.48,2.3,-0.21
1900-01-01 12:19:45.229,38.26,17.46,19.08,0.29,0.61,0.71,0.46,0.03,-1.02,36.36,39.57,-5.0,0.6,0.56,0.47,-2.83,0.63,-1.56
1900-01-01 12:19:45.323,36.27,16.46,19.09,0.28,0.59,0.75,-2.1,0.21,-0.69,33.53,40.33,-5.24,0.65,0.55,0.52,-2.32,3.02,-2.29
1900-01-01 12:19:45.370,37.19,17.5,19.14,0.3,0.61,0.74,-0.9,-2.13,-1.0,35.84,39.71,-5.6,0.63,0.58,0.49,-2.37,3.22,-1.37
1900-01-01 12:19:45.463,36.15,17.53,19.14,0.3,0.59,0.75,-0.41,-0.74,-0.5,34.51,39.49,-5.82,0.63,0.56,0.52,-1.6,3.88,-2.3
1900-01-01 12:19:45.510,35.55,16.93,19.23,0.29,0.58,0.75,-1.56,-1.18,-1.76,32.56,40.2,-6.18,0.63,0.52,0.53,-2.0,1.79,-2.33
1900-01-01 12:19:45.605,36.09,16.5,19.11,0.29,0.6,0.77,-3.15,-0.54,-3.55,33.62,37.45,-6.55,0.62,0.57,0.58,-4.55,-2.8,-3.59
1900-01-01 12:19:45.699,35.94,16.51,18.73,0.29,0.61,0.78,-1.33,-3.6,-3.69,34.2,40.53,-7.11,0.66,0.57,0.52,0.44,-5.63,-9.73
1900-01-01 12:19:45.746,36.87,17.71,18.32,0.3,0.59,0.73,2.51,-3.4,-3.6,41.89,35.31,-8.6,0.57,0.66,0.46,-1.17,-0.47,-4.32
1900-01-01 12:19:45.857,36.83,19.01,17.93,0.32,0.6,0.73,-5.4,0.02,-2.08,35.99,38.95,-9.27,0.61,0.57,0.5,-8.7,-2.21,-4.7
1900-01-01 12:19:45.933,36.73,16.92,17.77,0.29,0.6,0.75,0.4,-1.7,-0.69,38.23,36.61,-10.0,0.59,0.61,0.51,-1.93,1.58,-0.85
1900-01-01 12:19:45.980,36.97,16.73,17.82,0.29,0.61,0.76,2.61,-2.09,0.12,36.04,37.45,-10.14,0.6,0.58,0.53,-2.29,6.02,-2.55
1900-01-01 12:19:46.074,38.01,18.97,18.0,0.32,0.6,0.7,3.12,0.38,-0.02,39.48,35.0,-10.54,0.55,0.61,0.5,-1.11,1.56,0.37
1900-01-01 12:19:46.120,37.72,17.7,18.16,0.3,0.61,0.73,-2.18,3.07,0.55,38.91,35.03,-10.49,0.57,0.63,0.53,1.05,-3.99,9.44
1900-01-01 12:19:46.215,36.3,18.02,18.4,0.31,0.6,0.75,-0.65,2.73,1.08,34.44,40.52,-9.06,0.63,0.55,0.49,2.76,0.78,6.05
1900-01-01 12:19:46.311,37.73,17.81,18.72,0.31,0.61,0.73,-0.56,3.32,1.36,37.29,39.04,-8.15,0.61,0.59,0.47,2.0,1.64,6.24
1900-01-01 12:19:46.356,35.05,16.79,19.08,0.29,0.58,0.77,0.68,3.26,0.61,32.45,42.72,-7.21,0.68,0.53,0.5,1.99,6.19,6.67
1900-01-01 12:19:46.450,36.84,15.84,19.34,0.28,0.61,0.77,0.24,-1.06,0.31,32.71,39.74,-6.21,0.64,0.54,0.55,-0.47,5.87,-0.27
1900-01-01 12:19:46.544,36.03,17.87,19.54,0.3,0.57,0.72,-2.5,-1.05,-2.23,34.47,39.97,-6.26,0.61,0.53,0.49,-0.6,-2.73,-2.79
1900-01-01 12:19:46.590,36.61,16.37,19.36,0.29,0.6,0.76,-3.0,-0.33,-3.11,34.93,40.47,-6.7,0.64,0.57,0.5,-2.27,0.2,-3.33
1900-01-01 12:19:46.685,37.82,16.8,19.04,0.3,0.63,0.76,-0.76,-1.04,-2.87,36.85,38.71,-7.22,0.64,0.62,0.51,-3.5,-1.28,-5.25
1900-01-01 12:19:46.732,36.26,16.67,18.76,0.29,0.6,0.77,1.5,-2.56,-1.82,37.07,38.2,-8.03,0.62,0.61,0.51,-1.43,-0.7,-7.91
1900-01-01 12:19:46.857,36.8,16.44,18.64,0.28,0.6,0.75,-0.84,-1.95,-1.08,36.77,38.47,-9.25,0.61,0.58,0.49,-3.32,0.43,-4.5
1900-01-01 12:19:46.922,37.02,16.99,18.63,0.29,0.6,0.74,0.81,-1.83,-1.59,39.38,36.65,-9.95,0.59,0.63,0.49,-1.93,1.53,-4.53
1900-01-01 12:19:46.968,37.71,17.33,18.55,0.3,0.61,0.74,0.06,-1.34,-0.18,38.43,37.23,-10.65,0.59,0.61,0.49,-2.47,1.26,-0.01
1900-01-01 12:19:47.062,37.21,17.9,18.68,0.31,0.61,0.74,0.75,-0.7,-0.21,39.61,37.74,-10.66,0.61,0.64,0.47,-2.66,0.93,-0.51
1900-01-01 12:19:47.157,38.58,17.43,18.8,0.3,0.62,0.72,3.13,0.34,0.76,37.92,34.87,-10.74,0.55,0.59,0.52,0.39,3.28,-0.4
1900-01-01 12:19:47.205,37.42,17.23,19.08,0.29,0.6,0.72,-1.02,0.62,-0.81,39.02,35.67,-10.81,0.56,0.6,0.49,2.79,-3.52,2.82
1900-01-01 12:19:47.299,38.08,17.35,19.11,0.3,0.63,0.74,-1.04,3.24,0.74,39.48,37.64,-10.39,0.62,0.65,0.48,1.18,0.53,6.9
1900-01-01 12:19:47.346,36.96,17.37,19.38,0.3,0.61,0.75,1.65,2.15,1.21,37.69,39.23,-9.35,0.63,0.61,0.47,2.19,2.14,3.87
1900-01-01 12:19:47.439,36.6,17.59,19.72,0.3,0.59,0.74,1.6,2.93,0.51,37.82,39.52,-8.77,0.62,0.6,0.46,2.37,5.36,5.75
1900-01-01 12:19:47.536,38.81,16.17,19.96,0.29,0.65,0.75,-2.05,3.91,0.47,34.94,40.54,-7.91,0.66,0.58,0.5,-0.55,4.61,9.11
1900-01-01 12:19:47.581,37.4,16.38,20.19,0.29,0.62,0.76,-2.2,-1.35,0.92,34.69,40.43,-6.53,0.65,0.57,0.51,-3.72,6.98,-3.95
1900-01-01 12:19:47.676,38.4,17.3,20.49,0.29,0.6,0.7,-2.7,-1.77,-1.24,35.98,38.45,-7.14,0.58,0.55,0.48,-2.31,-3.14,-1.85
1900-01-01 12:19:47.723,36.08,16.03,20.46,0.28,0.59,0.76,-1.93,-1.16,-2.95,36.94,39.96,-7.44,0.64,0.6,0.47,0.24,-1.5,-3.11
1900-01-01 12:19:47.871,37.13,17.68,20.17,0.3,0.6,0.74,-1.66,-1.21,-2.71,38.26,38.62,-7.92,0.62,0.61,0.47,-3.22,1.89,-4.44
1900-01-01 12:19:47.912,36.88,16.5,19.91,0.29,0.61,0.77,-2.64,-0.53,-3.05,37.7,38.41,-8.61,0.63,0.62,0.5,-4.18,-1.53,-5.94
1900-01-01 12:19:47.959,36.95,16.71,19.6,0.29,0.61,0.75,-0.31,-1.05,-2.08,38.44,37.34,-9.53,0.61,0.62,0.5,-3.37,0.88,-4.06
1900-01-01 12:19:48.053,37.95,16.69,19.44,0.29,0.62,0.74,-0.63,-1.93,-2.07,39.36,36.52,-10.16,0.59,0.63,0.49,-2.92,-0.09,-4.53
1900-01-01 12:19:48.147,37.56,16.82,19.28,0.29,0.61,0.74,0.32,-1.3,-1.05,39.81,35.96,-10.87,0.58,0.63,0.49,-2.93,2.42,-0.78
1900-01-01 12:19:48.194,37.23,16.95,19.28,0.29,0.61,0.75,-2.54,-1.99,-1.25,39.09,36.13,-10.99,0.59,0.63,0.5,-1.4,2.21,-1.38
1900-01-01 12:19:48.288,37.94,18.2,19.24,0.31,0.62,0.73,1.21,-0.89,-0.2,39.9,35.79,-11.21,0.57,0.63,0.49,-0.63,1.92,-1.29
1900-01-01 12:19:48.381,37.04,17.12,19.37,0.29,0.6,0.73,0.63,-0.56,0.07,38.92,36.47,-11.42,0.57,0.61,0.49,-1.81,2.2,-0.5
1900-01-01 12:19:48.429,39.26,17.49,19.54,0.31,0.64,0.73,3.69,0.77,0.7,39.9,34.02,-11.5,0.54,0.62,0.51,-4.35,4.82,-3.24
1900-01-01 12:19:48.522,39.06,16.92,19.81,0.29,0.63,0.72,-0.88,1.46,-0.33,39.54,34.29,-12.01,0.55,0.62,0.51,-0.5,-1.73,0.9
1900-01-01 12:19:48.570,38.91,16.68,19.91,0.29,0.63,0.73,-0.06,2.23,-0.07,40.14,36.22,-11.88,0.58,0.64,0.48,1.85,1.21,6.04
1900-01-01 12:19:48.663,37.02,17.07,20.06,0.3,0.61,0.75,0.27,2.6,1.05,37.45,38.25,-10.97,0.62,0.61,0.5,1.98,1.44,6.08
1900-01-01 12:19:48.756,36.45,17.94,20.38,0.31,0.59,0.74,2.6,1.4,0.11,38.77,37.61,-10.05,0.61,0.62,0.48,2.39,2.63,3.23
1900-01-01 12:19:48.806,37.18,16.61,20.55,0.29,0.62,0.76,-1.34,1.01,0.47,36.3,39.25,-9.57,0.64,0.6,0.51,-3.78,7.03,2.64
1900-01-01 12:19:48.871,38.68,15.88,20.78,0.27,0.62,0.73,-0.33,-1.76,0.46,37.49,36.09,-9.18,0.57,0.59,0.52,-2.27,3.21,-1.99
1900-01-01 12:19:48.945,37.93,16.84,21.01,0.28,0.6,0.72,-2.47,-0.79,-1.51,37.86,36.83,-9.49,0.58,0.59,0.49,-0.22,-0.4,-1.44
1900-01-01 12:19:49.039,36.97,16.53,20.94,0.29,0.61,0.76,-3.11,-1.21,-1.42,36.32,38.67,-9.72,0.63,0.59,0.51,-2.06,0.21,0.6
1900-01-01 12:19:49.133,36.9,17.78,20.88,0.31,0.6,0.74,-1.07,-2.72,-2.81,37.32,39.14,-9.64,0.61,0.59,0.47,-0.89,0.17,-3.47
1900-01-01 12:19:49.181,38.56,17.33,20.61,0.3,0.63,0.73,-0.94,-2.53,-3.78,40.32,35.29,-10.18,0.58,0.65,0.5,-2.2,-1.87,-3.67
1900-01-01 12:19:49.274,37.96,17.14,20.19,0.29,0.61,0.73,0.89,-3.19,-3.13,40.02,35.92,-10.75,0.58,0.63,0.49,-1.15,-0.47,-3.45
1900-01-01 12:19:49.372,37.93,17.16,19.86,0.3,0.63,0.75,-0.4,-2.43,-2.69,39.42,36.23,-11.29,0.59,0.64,0.5,-2.28,-1.02,-3.04
1900-01-01 12:19:49.417,38.55,16.65,19.61,0.29,0.64,0.74,-0.14,-2.24,-1.76,40.12,34.98,-11.76,0.57,0.64,0.51,-1.67,0.77,-0.85
1900-01-01 12:19:49.510,36.46,17.39,19.5,0.3,0.6,0.75,-0.12,-2.72,-2.99,37.73,37.34,-11.9,0.6,0.6,0.5,1.42,1.21,-2.65
1900-01-01 12:19:49.556,39.91,17.9,19.2,0.31,0.65,0.71,0.95,-2.53,-1.48,43.79,33.7,-12.32,0.56,0.7,0.46,0.29,1.57,-0.55
1900-01-01 12:19:49.653,39.23,17.94,19.13,0.31,0.63,0.71,1.1,-1.56,-0.37,41.87,35.6,-12.41,0.57,0.66,0.46,-1.65,2.52,0.11
1900-01-01 12:19:49.746,40.36,18.77,19.23,0.32,0.64,0.69,2.4,-1.3,1.12,42.1,33.07,-12.4,0.53,0.65,0.49,-1.61,4.79,-3.66
1900-01-01 12:19:49.793,39.46,18.37,19.56,0.31,0.62,0.68,0.04,-0.37,0.02,41.27,33.81,-12.97,0.53,0.62,0.48,1.05,-1.08,1.53
1900-01-01 12:19:49.883,37.91,17.96,19.72,0.32,0.63,0.74,-1.67,-0.44,-0.2,39.01,37.52,-12.75,0.62,0.64,0.49,-3.68,2.05,1.15
1900-01-01 12:19:49.983,39.24,19.19,19.85,0.33,0.64,0.7,0.83,-1.62,-0.03,41.51,34.34,-12.58,0.55,0.64,0.48,-0.59,1.4,-1.56
1900-01-01 12:19:50.031,39.5,19.12,20.0,0.32,0.62,0.68,-1.72,2.05,-0.73,42.29,34.53,-12.83,0.55,0.65,0.46,0.28,-2.93,2.28
1900-01-01 12:19:50.125,39.3,17.56,20.05,0.31,0.64,0.72,-1.66,1.72,1.07,39.89,36.19,-12.49,0.59,0.64,0.49,0.28,0.78,5.02
1900-01-01 12:19:50.172,38.91,18.16,20.37,0.32,0.64,0.72,1.85,1.59,1.18,40.18,36.76,-11.73,0.6,0.64,0.47,0.92,1.85,3.85
1900-01-01 12:19:50.268,37.99,18.87,20.71,0.32,0.62,0.72,1.24,1.5,0.5,40.17,37.65,-11.15,0.6,0.64,0.45,2.06,4.11,7.54
1900-01-01 12:19:50.362,37.77,18.2,20.94,0.31,0.6,0.71,2.56,0.33,0.1,36.98,39.12,-10.02,0.62,0.59,0.48,7.31,6.28,8.82
1900-01-01 12:19:50.410,40.99,17.95,21.12,0.33,0.7,0.73,-0.82,-1.21,0.4,39.37,39.67,-8.69,0.66,0.66,0.45,0.82,4.59,7.75
1900-01-01 12:19:50.503,39.55,19.55,21.34,0.33,0.63,0.69,0.09,-1.49,-0.44,38.13,38.0,-7.52,0.6,0.6,0.48,-0.08,3.66,-1.02
1900-01-01 12:19:50.550,38.84,19.08,21.43,0.32,0.61,0.69,-3.35,-0.98,-1.54,36.44,39.56,-7.68,0.61,0.57,0.47,-1.03,-2.46,-1.33
1900-01-01 12:19:50.644,38.0,18.33,21.35,0.31,0.61,0.72,-2.11,-3.79,-5.23,37.48,40.45,-7.89,0.63,0.59,0.44,3.56,0.05,1.86
1900-01-01 12:19:50.737,40.06,18.74,20.71,0.32,0.65,0.7,-1.21,-1.82,-6.84,40.23,38.43,-7.62,0.62,0.65,0.44,1.6,-1.44,-3.65
1900-01-01 12:19:50.784,41.37,18.66,19.82,0.33,0.68,0.7,0.67,-2.15,-3.36,42.29,37.36,-8.18,0.62,0.69,0.43,-1.54,-2.14,-4.92
1900-01-01 12:19:50.884,39.84,18.06,19.47,0.31,0.64,0.7,0.07,-2.02,-2.52,42.12,36.72,-8.95,0.6,0.67,0.44,-1.57,-1.77,-4.2
1900-01-01 12:19:50.972,40.69,17.87,19.24,0.31,0.65,0.69,-1.4,0.16,-0.45,40.62,37.65,-9.6,0.6,0.64,0.44,-3.83,1.17,0.47
1900-01-01 12:19:51.019,40.04,18.55,19.33,0.32,0.65,0.71,-0.08,-0.57,0.14,41.12,39.14,-9.53,0.63,0.66,0.41,-6.02,3.55,-1.31
1900-01-01 12:19:51.113,40.25,17.19,19.51,0.3,0.66,0.71,0.08,-0.89,1.15,38.43,37.48,-9.74,0.59,0.61,0.48,-4.07,4.43,1.3
1900-01-01 12:19:51.159,40.07,19.17,19.84,0.32,0.62,0.66,-0.38,2.06,-1.24,41.26,37.62,-9.55,0.58,0.63,0.42,-0.02,2.3,0.68
1900-01-01 12:19:51.253,40.57,18.05,19.81,0.31,0.66,0.7,-3.34,2.12,1.11,40.37,37.4,-9.46,0.61,0.65,0.46,-1.34,2.02,6.82
1900-01-01 12:19:51.347,39.72,19.16,20.14,0.33,0.64,0.7,2.42,2.48,1.96,39.97,39.19,-8.43,0.62,0.63,0.42,1.68,2.44,3.9
1900-01-01 12:19:51.394,38.82,18.49,20.59,0.32,0.64,0.72,-0.63,4.22,1.48,37.3,40.73,-7.85,0.65,0.61,0.46,-0.81,2.92,4.1
1900-01-01 12:19:51.490,39.29,18.27,20.98,0.31,0.63,0.7,0.56,4.44,0.45,38.56,40.05,-7.23,0.63,0.61,0.44,-0.43,3.69,3.98
1900-01-01 12:19:51.584,39.16,17.92,21.2,0.31,0.63,0.71,-1.82,3.8,-0.47,36.57,40.17,-6.64,0.64,0.59,0.47,-2.32,4.76,2.34
1900-01-01 12:19:51.631,38.37,17.09,21.29,0.3,0.62,0.73,-2.19,0.68,-0.46,36.3,39.24,-6.29,0.64,0.6,0.51,-2.11,3.61,-4.29
1900-01-01 12:19:51.725,39.95,16.68,21.38,0.28,0.63,0.7,-1.17,-4.64,-1.12,38.43,37.28,-6.95,0.57,0.59,0.47,-3.21,0.44,-5.32
1900-01-01 12:19:51.773,39.01,17.65,21.37,0.3,0.63,0.72,-4.81,-1.55,-0.93,38.51,37.66,-7.78,0.6,0.62,0.48,-6.92,5.44,-3.19
1900-01-01 12:19:51.885,38.53,17.75,21.38,0.31,0.64,0.74,-5.63,-0.41,-1.38,41.27,35.95,-8.27,0.61,0.68,0.48,-12.67,6.98,1.08
1900-01-01 12:19:51.961,35.41,19.26,21.33,0.33,0.58,0.74,-14.14,0.34,0.11,33.55,38.55,-8.12,0.6,0.53,0.53,-13.66,11.85,2.11
1900-01-01 12:19:52.009,33.86,18.99,21.5,0.32,0.55,0.75,-0.95,1.32,-1.41,33.66,36.19,-7.8,0.58,0.55,0.58,-5.44,8.45,-4.22
1900-01-01 12:19:52.104,36.16,16.36,21.45,0.28,0.6,0.76,0.21,-2.03,-2.18,35.32,34.91,-8.46,0.57,0.58,0.58,4.24,2.73,-0.29
1900-01-01 12:19:52.149,39.03,16.5,21.27,0.28,0.62,0.71,2.97,-0.55,-3.09,38.56,32.94,-8.51,0.53,0.6,0.54,4.5,-3.05,4.69
1900-01-01 12:19:52.243,34.33,18.08,20.96,0.3,0.55,0.74,3.44,0.63,-4.05,34.96,35.59,-7.8,0.57,0.56,0.56,4.86,-0.56,4.73
1900-01-01 12:19:52.337,35.93,16.78,20.5,0.29,0.6,0.77,1.44,0.58,-3.02,34.2,37.01,-7.09,0.61,0.57,0.57,3.47,-0.64,4.13
1900-01-01 12:19:52.385,37.53,15.73,20.2,0.28,0.64,0.78,-1.82,0.17,-1.83,35.4,38.56,-6.47,0.64,0.59,0.54,-1.8,2.88,6.12
1900-01-01 12:19:52.479,38.12,17.3,20.08,0.29,0.6,0.71,1.2,1.24,-1.44,37.0,37.95,-5.55,0.58,0.57,0.48,-0.01,-0.51,1.68
1900-01-01 12:19:52.572,37.45,15.83,20.02,0.27,0.61,0.74,0.82,0.65,-1.06,33.86,38.82,-5.3,0.62,0.55,0.54,0.73,1.08,1.23
1900-01-01 12:19:52.618,39.38,16.29,20.02,0.28,0.64,0.73,1.92,-0.23,-1.25,36.44,37.93,-5.12,0.61,0.59,0.51,-0.03,2.24,-0.7
1900-01-01 12:19:52.713,38.69,16.38,19.99,0.28,0.63,0.73,0.63,-0.44,-1.32,35.85,37.95,-5.24,0.6,0.58,0.52,-0.69,1.82,-0.13
1900-01-01 12:19:52.759,38.38,16.17,19.94,0.28,0.62,0.73,0.39,0.65,-1.7,34.81,38.65,-5.26,0.61,0.56,0.52,-2.04,2.54,-1.04
1900-01-01 12:19:52.882,39.3,16.19,19.84,0.28,0.64,0.73,0.51,0.02,-2.34,36.23,38.0,-5.43,0.61,0.59,0.52,-2.05,2.69,-1.18
1900-01-01 12:19:52.948,38.64,15.7,19.64,0.27,0.63,0.74,0.69,0.56,-2.19,35.04,38.06,-5.62,0.61,0.56,0.53,-1.56,3.36,-0.6
1900-01-01 12:19:52.995,40.32,15.41,19.47,0.27,0.65,0.72,-0.09,0.3,-2.53,36.31,37.18,-5.72,0.6,0.59,0.53,-1.8,3.0,-0.03
1900-01-01 12:19:53.089,39.85,15.94,19.24,0.28,0.65,0.73,0.28,0.71,-1.7,36.34,37.07,-5.73,0.6,0.59,0.54,-1.75,2.25,-0.56
1900-01-01 12:19:53.183,39.49,15.34,19.14,0.27,0.64,0.73,-0.19,-0.34,-1.33,35.61,37.04,-5.83,0.6,0.58,0.54,-1.56,2.24,-0.69
1900-01-01 12:19:53.231,39.58,15.27,19.09,0.26,0.64,0.73,-0.72,-0.19,-1.52,35.54,37.05,-5.94,0.59,0.57,0.54,-1.36,1.86,-0.64
1900-01-01 12:19:53.324,39.69,15.15,19.02,0.26,0.64,0.72,-0.53,0.09,-1.6,36.41,36.52,-6.05,0.59,0.59,0.54,-1.32,1.63,-0.24
1900-01-01 12:19:53.372,39.27,15.33,18.93,0.27,0.64,0.73,-0.86,0.11,-1.51,35.46,36.96,-6.09,0.6,0.58,0.55,-1.51,1.52,0.18
1900-01-01 12:19:53.466,39.37,14.66,18.86,0.26,0.64,0.74,-0.79,-0.9,-1.49,35.72,36.44,-6.07,0.59,0.58,0.55,-2.0,1.02,-0.27
1900-01-01 12:19:53.561,39.31,15.91,18.79,0.28,0.64,0.73,-0.31,-1.8,-1.55,36.29,36.61,-6.12,0.59,0.59,0.54,-1.41,1.37,-1.16
1900-01-01 12:19:53.608,40.12,15.52,18.71,0.27,0.66,0.73,-1.06,-1.44,-0.07,36.42,36.41,-6.31,0.59,0.59,0.54,-1.72,0.99,-0.06
1900-01-01 12:19:53.703,39.19,15.35,18.86,0.26,0.63,0.73,-1.88,-1.21,0.26,35.06,36.95,-6.33,0.59,0.56,0.54,-1.84,0.66,-0.11
1900-01-01 12:19:53.795,39.45,15.43,19.06,0.27,0.64,0.72,-2.06,-0.8,-0.24,36.25,36.32,-6.35,0.58,0.58,0.54,-1.72,0.34,1.12
1900-01-01 12:19:53.885,39.3,15.9,19.18,0.28,0.64,0.73,-1.85,-1.16,0.04,35.69,36.67,-6.19,0.59,0.58,0.55,-1.53,-0.23,0.5
1900-01-01 12:19:53.937,38.76,16.01,19.34,0.28,0.62,0.73,-1.52,-1.37,0.11,35.66,37.04,-6.12,0.59,0.57,0.53,-1.54,-0.25,0.3
1900-01-01 12:19:53.984,38.41,16.11,19.52,0.28,0.62,0.73,-1.56,-1.15,-0.11,35.57,37.5,-6.08,0.6,0.57,0.53,-1.39,0.18,0.66
1900-01-01 12:19:54.077,38.44,16.29,19.66,0.28,0.62,0.73,-1.43,-0.98,-0.16,35.8,37.27,-5.99,0.6,0.58,0.54,-0.87,-0.24,0.3
1900-01-01 12:19:54.171,38.82,17.12,19.8,0.3,0.63,0.73,-0.5,-1.5,0.48,34.9,38.46,-5.95,0.61,0.56,0.52,-1.03,-0.25,-0.39
1900-01-01 12:19:54.219,37.86,16.31,20.03,0.28,0.61,0.74,-1.65,-1.22,0.19,34.99,38.26,-6.02,0.61,0.57,0.53,-1.01,-0.3,0.04
1900-01-01 12:19:54.313,38.2,16.63,20.22,0.29,0.62,0.73,-0.5,-1.25,-0.4,35.35,38.24,-6.02,0.6,0.57,0.52,-1.02,0.25,0.37
1900-01-01 12:19:54.361,38.07,16.82,20.31,0.29,0.62,0.73,-1.09,-0.73,-0.71,35.42,38.22,-5.98,0.61,0.57,0.52,-1.44,0.64,0.15
1900-01-01 12:19:54.454,38.21,16.95,20.36,0.29,0.62,0.73,-0.5,-0.86,-0.57,35.58,38.3,-5.96,0.61,0.57,0.52,-1.44,0.73,0.55
1900-01-01 12:19:54.547,37.97,17.28,20.43,0.3,0.62,0.73,-1.17,-0.56,-0.39,35.19,38.34,-5.89,0.61,0.57,0.52,-1.08,1.0,0.39
1900-01-01 12:19:54.596,38.25,17.77,20.53,0.31,0.62,0.73,-0.72,-0.97,-0.02,36.22,38.34,-5.83,0.62,0.59,0.51,-0.27,0.01,0.66
1900-01-01 12:19:54.690,38.16,17.71,20.69,0.31,0.62,0.73,-0.04,-1.44,0.68,35.46,38.83,-5.74,0.62,0.57,0.51,-0.18,-0.36,0.81
1900-01-01 12:19:54.784,38.68,17.99,20.95,0.31,0.62,0.71,1.09,-0.64,0.76,36.99,37.84,-5.63,0.61,0.6,0.51,0.74,0.16,1.89
1900-01-01 12:19:54.831,37.26,17.49,21.22,0.3,0.61,0.75,-0.22,-0.98,1.27,34.09,39.55,-5.35,0.64,0.56,0.53,1.15,2.11,3.57
1900-01-01 12:19:54.892,38.35,18.54,21.58,0.32,0.63,0.72,0.27,-1.9,0.63,35.5,39.99,-4.81,0.63,0.57,0.49,0.7,0.52,1.89
1900-01-01 12:19:54.971,38.04,18.91,21.83,0.32,0.62,0.72,0.46,-0.77,1.02,35.6,39.7,-4.54,0.63,0.58,0.5,0.22,0.63,2.26
1900-01-01 12:19:55.065,37.19,18.58,22.14,0.32,0.61,0.73,-0.63,-1.14,0.72,34.22,40.32,-4.2,0.64,0.55,0.51,-0.28,1.07,1.0
1900-01-01 12:19:55.158,38.6,18.66,22.41,0.32,0.63,0.72,-0.82,0.35,0.47,35.91,39.66,-4.06,0.63,0.58,0.49,-0.41,1.54,1.82
1900-01-01 12:19:55.206,37.89,18.62,22.64,0.32,0.62,0.73,-1.44,1.56,0.83,34.7,40.48,-3.79,0.65,0.57,0.51,-2.07,2.8,2.57
1900-01-01 12:19:55.299,36.59,19.38,22.93,0.33,0.6,0.73,-0.78,0.34,0.51,33.37,41.46,-3.41,0.65,0.54,0.5,-1.28,1.92,1.94
1900-01-01 12:19:55.393,37.31,19.07,23.16,0.32,0.6,0.72,-0.84,0.09,-0.35,34.28,40.74,-3.12,0.64,0.55,0.5,-0.81,0.99,1.24
1900-01-01 12:19:55.441,37.02,19.24,23.27,0.33,0.6,0.73,-0.54,-0.58,-0.31,34.04,41.02,-2.94,0.65,0.55,0.5,-0.53,0.9,0.84
1900-01-01 12:19:55.535,37.81,19.19,23.38,0.33,0.62,0.72,-0.52,0.05,-0.06,34.77,40.92,-2.82,0.65,0.57,0.49,-1.02,1.55,0.5
1900-01-01 12:19:55.583,37.49,19.41,23.53,0.33,0.61,0.72,-0.01,0.17,0.3,34.47,40.79,-2.75,0.64,0.56,0.5,-0.93,1.95,0.44
1900-01-01 12:19:55.675,37.69,18.95,23.73,0.32,0.6,0.71,-0.44,1.47,-0.53,34.22,41.1,-2.69,0.64,0.54,0.49,-1.06,2.37,0.62
1900-01-01 12:19:55.770,37.47,19.4,23.81,0.33,0.61,0.72,-0.5,2.75,-1.0,34.53,40.66,-2.61,0.63,0.55,0.49,-1.62,3.43,-0.05
1900-01-01 12:19:55.817,37.18,17.85,23.82,0.31,0.62,0.75,-2.6,2.91,-0.89,32.48,41.25,-2.62,0.66,0.54,0.53,-4.01,4.01,2.69
1900-01-01 12:19:55.893,36.22,17.55,23.84,0.3,0.59,0.75,-0.82,-0.26,-2.27,32.15,41.0,-2.22,0.65,0.53,0.53,-2.15,3.77,0.64
1900-01-01 12:19:55.990,37.07,18.89,23.65,0.32,0.6,0.73,-2.52,-0.51,-2.29,33.45,40.0,-2.13,0.63,0.54,0.52,-1.09,4.09,1.24
1900-01-01 12:19:56.037,37.4,17.85,23.46,0.31,0.62,0.74,-1.2,0.92,-1.7,33.6,39.98,-1.95,0.64,0.55,0.53,-2.18,5.07,-0.43
1900-01-01 12:19:56.132,36.29,18.44,23.36,0.32,0.59,0.74,0.09,1.08,-1.95,33.15,39.92,-2.03,0.64,0.55,0.54,-0.31,3.38,0.48
1900-01-01 12:19:56.224,37.27,18.21,23.22,0.32,0.62,0.75,0.21,0.07,-1.1,33.32,39.94,-1.96,0.65,0.55,0.54,-0.85,1.37,0.82
1900-01-01 12:19:56.272,37.45,18.26,23.21,0.31,0.61,0.73,0.5,-0.55,-0.39,33.38,39.96,-1.84,0.63,0.54,0.52,-0.8,1.56,-0.24
1900-01-01 12:19:56.371,37.33,17.3,23.31,0.3,0.6,0.74,-0.14,0.08,-0.95,32.8,39.36,-1.89,0.62,0.53,0.54,-0.94,1.34,-0.16
1900-01-01 12:19:56.460,37.59,17.51,23.32,0.3,0.62,0.74,-0.22,-0.35,-1.4,33.49,39.55,-1.92,0.63,0.54,0.53,-1.1,1.27,-0.4
1900-01-01 12:19:56.507,37.52,17.53,23.27,0.3,0.62,0.74,-0.22,0.04,-1.22,32.9,40.12,-1.99,0.64,0.54,0.53,-1.37,1.92,-0.56
1900-01-01 12:19:56.600,37.65,17.66,23.24,0.3,0.61,0.74,-0.26,-0.56,-1.35,33.47,39.55,-2.09,0.63,0.55,0.53,-1.31,1.27,-0.42
1900-01-01 12:19:56.648,37.68,17.77,23.19,0.31,0.61,0.73,-0.47,0.41,-1.14,33.44,39.41,-2.16,0.63,0.55,0.54,-1.4,1.92,-0.02
1900-01-01 12:19:56.742,37.49,17.28,23.17,0.3,0.61,0.74,-0.15,-0.34,-1.24,33.1,39.23,-2.17,0.62,0.54,0.54,-1.05,1.18,-0.05
1900-01-01 12:19:56.837,37.69,17.06,23.14,0.29,0.61,0.73,-0.56,-0.02,-1.21,33.08,39.38,-2.19,0.62,0.54,0.54,-1.11,1.43,-0.05
1900-01-01 12:19:56.905,37.68,17.26,23.12,0.3,0.61,0.74,-0.56,0.38,-1.55,33.18,39.54,-2.2,0.63,0.54,0.54,-1.6,2.05,0.26
1900-01-01 12:19:56.977,37.8,17.66,23.04,0.3,0.62,0.73,-0.63,0.05,-0.99,33.57,39.51,-2.17,0.63,0.55,0.54,-1.4,1.62,0.09
1900-01-01 12:19:57.072,38.03,17.56,23.05,0.3,0.62,0.73,-0.66,-0.24,-0.98,33.64,39.7,-2.17,0.63,0.54,0.52,-1.43,2.58,-0.55
1900-01-01 12:19:57.117,37.45,17.52,23.05,0.3,0.6,0.73,-0.51,0.18,-1.32,32.86,39.06,-2.26,0.61,0.53,0.54,-1.15,3.08,-0.21
1900-01-01 12:19:57.210,37.61,17.12,23.01,0.3,0.61,0.74,-0.72,-0.24,-2.13,33.34,39.36,-2.3,0.63,0.55,0.54,-0.92,2.66,-1.0
1900-01-01 12:19:57.257,38.3,16.96,22.84,0.3,0.63,0.74,0.08,-0.02,-1.07,34.35,37.4,-2.46,0.61,0.57,0.56,-1.44,2.02,-0.18
1900-01-01 12:19:57.352,37.43,16.59,22.84,0.28,0.6,0.74,0.34,0.23,-1.11,32.75,38.37,-2.5,0.6,0.53,0.55,-1.54,1.71,0.0
