Time,Roll2,Pitch2,Yaw2,AccX2,AccY2,AccZ2,RotX2,RotY2,RotZ2,Roll1,Pitch1,Yaw1,AccX1,AccY1,AccZ1,RotX1,RotY1,RotZ1
1900-01-01 18:17:22.568,29.4,13.04,0.16,0.23,0.49,0.84,-0.21,-0.95,-1.44,16.67,18.27,-0.01,0.31,0.28,0.88,-1.89,-0.38,-0.4
1900-01-01 18:17:22.614,29.24,12.47,0.1,0.22,0.49,0.85,0.2,-0.92,-1.25,16.51,18.11,-0.08,0.3,0.28,0.88,-1.39,0.55,-0.17
1900-01-01 18:17:22.679,29.15,13.0,0.07,0.23,0.49,0.85,-0.54,0.31,-0.76,16.57,18.48,-0.11,0.31,0.28,0.88,-1.31,0.96,0.28
1900-01-01 18:17:22.753,29.61,12.95,0.11,0.22,0.49,0.84,-0.24,-0.02,-0.7,16.41,18.62,-0.08,0.31,0.28,0.88,-1.64,0.07,0.23
1900-01-01 18:17:22.848,29.52,12.59,0.16,0.22,0.49,0.84,0.79,-1.85,-1.08,16.83,18.5,-0.05,0.31,0.28,0.88,-1.52,-0.31,-0.37
1900-01-01 18:17:22.942,29.69,12.89,0.16,0.23,0.51,0.86,-1.15,-0.68,-2.66,16.76,18.93,-0.12,0.32,0.28,0.88,-1.65,0.66,-1.0
1900-01-01 18:17:22.989,29.55,11.68,-0.09,0.2,0.5,0.85,-0.63,0.8,-4.94,15.94,18.02,-0.28,0.3,0.27,0.88,-0.58,1.73,-0.89
1900-01-01 18:17:23.084,29.41,11.62,-0.69,0.2,0.49,0.85,-1.24,1.81,-4.55,16.58,18.3,-0.42,0.31,0.28,0.88,0.48,1.71,-0.19
1900-01-01 18:17:23.130,29.54,11.73,-1.23,0.2,0.49,0.84,0.29,0.89,-3.16,17.17,18.51,-0.46,0.31,0.29,0.88,-0.06,1.12,0.05
1900-01-01 18:17:23.223,30.13,11.98,-1.55,0.2,0.5,0.83,-0.2,-1.63,0.41,17.28,19.1,-0.46,0.32,0.29,0.88,-0.76,-0.26,0.47
1900-01-01 18:17:23.318,30.24,12.85,-1.33,0.23,0.51,0.85,0.23,-3.44,1.15,17.0,19.61,-0.4,0.33,0.29,0.88,-2.63,-1.4,-0.12
1900-01-01 18:17:23.365,29.53,11.16,-0.99,0.2,0.5,0.86,-0.69,-0.79,-0.7,16.0,18.62,-0.43,0.31,0.27,0.88,-1.76,0.93,0.03
1900-01-01 18:17:23.460,29.81,12.32,-0.94,0.21,0.5,0.85,-2.03,1.11,-0.69,16.83,19.43,-0.43,0.32,0.28,0.88,-0.44,2.33,0.54
1900-01-01 18:17:23.553,30.09,12.4,-0.89,0.21,0.5,0.83,-1.11,-0.05,-0.68,16.92,18.96,-0.36,0.32,0.28,0.88,-1.43,1.12,0.13
1900-01-01 18:17:23.600,29.45,12.16,-0.83,0.21,0.49,0.84,-0.13,-1.2,-0.21,16.62,19.0,-0.34,0.32,0.28,0.88,-0.99,1.27,0.2
1900-01-01 18:17:23.694,29.46,12.68,-0.71,0.22,0.49,0.84,-0.71,-1.38,1.17,16.51,19.38,-0.32,0.32,0.28,0.88,-1.61,1.26,0.28
1900-01-01 18:17:23.741,29.66,12.82,-0.37,0.22,0.49,0.84,-1.43,-1.64,1.26,16.77,19.11,-0.29,0.32,0.28,0.88,-1.66,0.81,0.34
1900-01-01 18:17:23.846,29.41,13.15,-0.02,0.23,0.49,0.84,-0.02,-3.5,1.64,16.02,19.63,-0.24,0.33,0.27,0.88,-0.86,0.82,0.13
1900-01-01 18:17:23.893,29.74,13.73,0.39,0.24,0.5,0.84,1.18,-2.56,-1.32,16.43,19.32,-0.23,0.32,0.27,0.87,-1.38,0.61,-0.38
1900-01-01 18:17:23.998,29.67,13.34,0.35,0.23,0.5,0.84,1.26,-1.67,-2.47,16.36,18.66,-0.3,0.31,0.27,0.88,-0.56,2.53,-0.84
1900-01-01 18:17:24.112,29.27,14.71,0.13,0.26,0.49,0.84,0.33,-1.08,-2.18,16.71,19.73,-0.44,0.33,0.28,0.88,-0.02,2.1,-0.21
1900-01-01 18:17:24.137,29.76,14.28,-0.05,0.25,0.5,0.83,0.34,-0.15,-1.7,17.01,19.15,-0.48,0.32,0.28,0.87,-0.66,1.69,0.1
1900-01-01 18:17:24.253,30.1,14.25,-0.15,0.25,0.5,0.83,-0.55,-0.26,-0.47,17.16,19.09,-0.47,0.32,0.29,0.88,-1.14,1.06,0.31
1900-01-01 18:17:24.272,30.59,14.0,-0.06,0.24,0.51,0.83,0.54,-1.76,-0.53,17.02,19.0,-0.43,0.32,0.29,0.88,-1.13,0.87,-0.08
1900-01-01 18:17:24.351,30.38,13.99,0.02,0.24,0.51,0.83,0.35,-0.49,-1.53,16.96,18.85,-0.45,0.31,0.28,0.88,-1.19,1.13,-0.11
1900-01-01 18:17:24.445,30.11,14.18,-0.06,0.25,0.5,0.83,-0.27,0.29,-0.5,16.51,19.56,-0.48,0.33,0.28,0.88,-1.12,1.44,0.68
1900-01-01 18:17:24.513,30.65,14.49,0.02,0.25,0.51,0.83,-0.38,0.31,-1.01,17.5,19.19,-0.38,0.32,0.29,0.87,-1.08,1.57,0.15
1900-01-01 18:17:24.604,30.79,14.0,0.03,0.24,0.51,0.83,-0.37,0.27,-1.05,17.12,18.84,-0.37,0.31,0.29,0.88,-1.4,1.56,0.05
1900-01-01 18:17:24.666,30.92,13.94,0.03,0.24,0.52,0.83,-0.18,-0.05,-1.15,17.65,18.67,-0.37,0.31,0.3,0.88,-1.02,1.59,0.19
1900-01-01 18:17:24.783,30.24,14.04,0.01,0.24,0.51,0.83,-0.81,0.12,-1.48,16.93,19.09,-0.35,0.32,0.28,0.88,-1.05,1.62,-0.15
1900-01-01 18:17:24.820,30.91,13.83,-0.06,0.24,0.52,0.83,-0.8,0.18,-1.6,17.42,18.81,-0.38,0.31,0.29,0.88,-1.15,1.44,-0.2
1900-01-01 18:17:24.937,30.75,13.47,-0.14,0.23,0.51,0.83,-0.4,0.18,-1.82,17.2,18.59,-0.42,0.31,0.29,0.87,-1.26,1.57,-0.14
1900-01-01 18:17:24.963,30.35,13.87,-0.26,0.24,0.51,0.83,-0.63,-0.07,-1.47,17.07,19.15,-0.45,0.32,0.29,0.88,-1.18,1.47,-0.15
1900-01-01 18:17:25.056,30.75,13.53,-0.33,0.23,0.51,0.83,-0.98,-0.09,-1.21,17.34,18.58,-0.48,0.31,0.29,0.88,-1.37,1.2,-0.09
1900-01-01 18:17:25.150,30.47,13.5,-0.35,0.23,0.51,0.83,-0.7,-0.28,-1.12,17.43,18.76,-0.5,0.31,0.29,0.87,-1.28,1.2,0.02
1900-01-01 18:17:25.196,30.25,13.58,-0.37,0.24,0.51,0.84,-0.54,-0.3,-1.0,17.23,18.84,-0.51,0.31,0.29,0.87,-1.28,1.26,0.0
1900-01-01 18:17:25.291,30.48,13.38,-0.36,0.23,0.51,0.83,-0.79,-0.25,-0.78,17.16,18.73,-0.51,0.31,0.29,0.88,-1.22,1.34,0.04
1900-01-01 18:17:25.385,30.35,13.67,-0.32,0.24,0.51,0.83,-0.53,-0.7,-0.77,17.04,19.0,-0.52,0.32,0.29,0.87,-1.19,1.16,-0.02
1900-01-01 18:17:25.473,30.21,13.2,-0.28,0.23,0.5,0.84,-0.7,-0.31,-0.66,16.86,18.79,-0.53,0.31,0.28,0.88,-1.27,1.39,0.09
1900-01-01 18:17:25.525,30.39,13.61,-0.22,0.24,0.51,0.83,-0.73,-0.02,-0.62,17.24,18.71,-0.52,0.31,0.29,0.87,-1.31,1.2,0.26
1900-01-01 18:17:25.572,30.32,13.53,-0.16,0.23,0.51,0.83,-0.68,-0.26,-0.68,17.18,18.87,-0.49,0.32,0.29,0.88,-1.27,1.31,0.15
1900-01-01 18:17:25.666,30.5,13.38,-0.1,0.23,0.51,0.83,-0.52,-0.39,-0.76,17.23,18.5,-0.48,0.31,0.29,0.88,-1.44,1.16,0.12
1900-01-01 18:17:25.760,30.33,13.83,-0.06,0.24,0.51,0.83,-0.44,-0.49,-0.92,17.19,19.02,-0.47,0.32,0.29,0.88,-1.41,1.09,-0.02
1900-01-01 18:17:25.807,30.45,13.31,-0.05,0.23,0.51,0.83,-0.75,-0.2,-0.92,17.08,18.7,-0.48,0.31,0.29,0.88,-1.32,1.31,0.05
1900-01-01 18:17:25.901,30.42,13.73,-0.03,0.24,0.51,0.83,-0.46,-0.15,-1.0,17.1,18.85,-0.48,0.32,0.29,0.88,-1.39,1.29,0.06
1900-01-01 18:17:25.995,30.29,13.53,-0.02,0.23,0.51,0.83,-0.44,-0.17,-1.01,17.01,18.82,-0.48,0.31,0.29,0.88,-1.3,1.35,0.03
1900-01-01 18:17:26.042,30.09,13.57,-0.02,0.23,0.5,0.83,-0.58,-0.38,-0.96,16.8,18.99,-0.48,0.32,0.28,0.88,-1.28,1.24,-0.01
1900-01-01 18:17:26.136,30.23,13.66,-0.01,0.24,0.51,0.84,-0.49,-0.38,-0.86,17.19,18.76,-0.49,0.31,0.29,0.88,-1.32,1.24,0.05
1900-01-01 18:17:26.183,30.33,13.54,0.02,0.24,0.51,0.84,-0.62,-0.34,-0.87,17.3,18.85,-0.49,0.31,0.29,0.87,-1.27,1.21,0.07
1900-01-01 18:17:26.277,30.22,13.65,0.05,0.24,0.51,0.83,-0.41,-0.4,-1.07,17.48,18.7,-0.49,0.31,0.29,0.87,-1.23,1.27,0.0
1900-01-01 18:17:26.370,30.3,13.75,0.04,0.24,0.51,0.84,-0.43,-0.37,-1.21,17.46,18.77,-0.5,0.31,0.29,0.88,-1.12,1.44,-0.05
1900-01-01 18:17:26.418,30.28,13.36,0.02,0.23,0.51,0.83,-0.57,-0.25,-1.05,17.35,18.6,-0.51,0.31,0.29,0.88,-1.25,1.19,0.05
1900-01-01 18:17:26.512,30.48,13.63,0.01,0.24,0.51,0.83,-0.21,-0.36,-1.02,17.48,18.72,-0.51,0.31,0.29,0.87,-1.34,1.11,0.08
1900-01-01 18:17:26.606,30.3,13.55,0.02,0.24,0.51,0.83,-0.21,-0.42,-1.1,17.5,18.63,-0.51,0.31,0.29,0.88,-1.24,1.31,0.0
1900-01-01 18:17:26.653,30.4,13.59,0.01,0.24,0.51,0.83,-0.44,-0.28,-1.15,17.44,18.68,-0.52,0.31,0.29,0.88,-1.3,1.24,-0.02
1900-01-01 18:17:26.746,30.25,13.6,-0.01,0.24,0.51,0.83,-0.24,-0.58,-1.12,17.13,18.84,-0.53,0.31,0.29,0.88,-1.18,1.28,-0.06
1900-01-01 18:17:26.791,30.35,13.54,-0.02,0.24,0.51,0.83,-0.29,-0.57,-1.06,16.97,18.97,-0.55,0.32,0.28,0.87,-1.23,1.21,-0.09
1900-01-01 18:17:26.886,30.43,13.64,-0.03,0.24,0.51,0.83,-0.49,-0.5,-1.27,16.96,18.85,-0.57,0.31,0.28,0.88,-1.33,1.18,-0.21
1900-01-01 18:17:26.980,30.5,13.47,-0.06,0.23,0.51,0.83,-0.64,-0.49,-1.62,16.87,18.87,-0.61,0.31,0.28,0.88,-1.27,1.37,-0.39
1900-01-01 18:17:27.027,30.38,13.62,-0.15,0.24,0.51,0.83,-1.08,0.15,-2.51,16.95,18.96,-0.68,0.32,0.28,0.88,-1.44,1.36,-0.66
1900-01-01 18:17:27.121,30.57,13.42,-0.38,0.23,0.5,0.82,-1.27,-0.7,-2.27,17.2,18.73,-0.79,0.31,0.29,0.87,-1.52,0.95,-0.68
1900-01-01 18:17:27.214,30.33,13.29,-0.57,0.23,0.5,0.83,-0.08,-2.57,-1.47,17.24,18.59,-0.9,0.31,0.29,0.87,-1.37,0.65,-0.7
1900-01-01 18:17:27.261,30.02,13.47,-0.63,0.24,0.51,0.84,0.34,-1.13,-1.81,17.22,18.93,-1.02,0.32,0.29,0.87,-1.13,1.19,-0.24
1900-01-01 18:17:27.354,30.38,13.48,-0.75,0.23,0.51,0.84,-0.69,0.02,-0.39,17.27,18.82,-1.06,0.31,0.29,0.88,-1.13,1.57,0.46
1900-01-01 18:17:27.402,30.83,13.94,-0.65,0.24,0.52,0.83,-0.62,-0.04,-0.52,17.44,18.93,-1.0,0.32,0.29,0.87,-1.26,1.27,0.29
1900-01-01 18:17:27.496,30.9,13.64,-0.57,0.24,0.52,0.83,-0.26,-0.55,-1.01,17.32,18.71,-0.96,0.31,0.29,0.88,-1.34,1.19,-0.08
1900-01-01 18:17:27.590,30.56,13.72,-0.57,0.24,0.51,0.83,-0.31,-0.4,-1.34,17.12,18.97,-0.99,0.32,0.29,0.88,-1.24,1.31,-0.18
1900-01-01 18:17:27.637,30.58,13.58,-0.62,0.24,0.51,0.83,-0.46,0.23,-1.35,17.24,18.87,-1.02,0.31,0.29,0.87,-1.41,1.49,-0.11
1900-01-01 18:17:27.732,30.69,13.41,-0.66,0.23,0.51,0.83,-0.58,0.27,-1.26,17.19,18.79,-1.05,0.31,0.29,0.87,-1.35,1.4,-0.04
1900-01-01 18:17:27.827,30.64,13.56,-0.7,0.24,0.51,0.83,-0.27,-0.31,-0.98,17.21,18.76,-1.06,0.31,0.29,0.87,-1.26,1.21,-0.05
1900-01-01 18:17:27.874,30.67,13.47,-0.69,0.23,0.51,0.83,-0.02,-0.76,-0.76,17.12,18.62,-1.08,0.31,0.29,0.88,-1.24,1.08,0.02
1900-01-01 18:17:27.969,30.49,13.64,-0.65,0.24,0.51,0.83,0.14,-0.71,-0.68,16.99,18.98,-1.08,0.32,0.28,0.88,-1.09,1.28,0.15
1900-01-01 18:17:28.016,30.44,13.62,-0.59,0.24,0.51,0.83,-0.05,-0.41,-0.64,17.21,18.88,-1.07,0.32,0.29,0.88,-1.1,1.18,0.2
1900-01-01 18:17:28.110,30.68,14.03,-0.53,0.24,0.51,0.83,-0.67,-0.63,-0.27,16.91,19.11,-1.05,0.32,0.28,0.88,-1.47,0.99,0.1
1900-01-01 18:17:28.205,30.6,13.94,-0.42,0.24,0.51,0.83,-0.08,-1.32,-0.87,16.09,19.38,-1.04,0.32,0.27,0.88,-1.42,0.92,-0.43
1900-01-01 18:17:28.252,30.93,13.95,-0.39,0.24,0.52,0.83,0.14,-1.24,-1.92,16.44,19.44,-1.11,0.32,0.28,0.88,-1.45,0.8,-1.15
1900-01-01 18:17:28.346,32.44,12.19,-0.52,0.21,0.54,0.82,0.14,0.69,-1.27,17.83,17.35,-1.3,0.29,0.3,0.88,-1.93,1.31,0.44
1900-01-01 18:17:28.393,31.15,14.51,-0.56,0.25,0.52,0.83,0.68,0.3,-1.07,17.06,19.6,-1.24,0.33,0.29,0.88,-0.71,1.66,0.47
1900-01-01 18:17:28.487,31.24,14.33,-0.56,0.25,0.52,0.82,0.69,-0.9,-0.73,18.15,18.74,-1.18,0.31,0.3,0.87,-0.73,1.17,0.19
1900-01-01 18:17:28.582,31.88,13.66,-0.52,0.23,0.52,0.81,0.83,-1.52,0.56,18.41,18.53,-1.16,0.31,0.31,0.87,-0.62,0.94,0.74
1900-01-01 18:17:28.629,31.71,14.71,-0.27,0.26,0.53,0.82,1.93,-1.61,0.33,16.73,19.73,-1.05,0.33,0.28,0.87,-0.94,1.04,0.33
1900-01-01 18:17:28.724,32.26,13.65,-0.06,0.24,0.54,0.82,1.89,-0.77,-1.22,16.76,19.1,-1.01,0.32,0.28,0.87,-0.97,1.08,-0.22
1900-01-01 18:17:28.817,32.56,14.52,-0.09,0.25,0.55,0.82,0.76,-0.18,-0.9,17.91,19.31,-1.05,0.32,0.3,0.87,-0.65,1.6,0.49
1900-01-01 18:17:28.864,32.92,14.12,-0.07,0.24,0.54,0.8,-0.31,0.4,-0.69,17.37,18.76,-0.99,0.31,0.29,0.87,-1.4,1.52,0.44
1900-01-01 18:17:28.959,32.96,14.3,-0.02,0.25,0.55,0.8,0.12,-0.01,-1.52,17.74,19.04,-0.93,0.32,0.3,0.87,-0.99,1.57,-0.13
1900-01-01 18:17:29.006,32.96,14.33,-0.09,0.25,0.55,0.8,-0.55,-0.18,-1.53,18.01,18.91,-0.96,0.32,0.3,0.87,-1.31,1.37,-0.05
1900-01-01 18:17:29.101,32.86,14.0,-0.17,0.24,0.54,0.81,-0.6,-0.15,-1.3,17.48,18.99,-0.97,0.32,0.29,0.87,-1.22,1.31,-0.09
1900-01-01 18:17:29.193,33.02,14.1,-0.21,0.24,0.55,0.81,-0.77,-0.04,-1.48,17.96,18.82,-1.0,0.31,0.3,0.87,-1.35,1.24,-0.08
1900-01-01 18:17:29.241,32.8,14.08,-0.28,0.24,0.54,0.81,-0.93,-0.14,-0.96,17.59,18.96,-1.02,0.32,0.29,0.87,-1.37,1.24,0.14
1900-01-01 18:17:29.335,32.59,13.96,-0.27,0.24,0.54,0.81,-0.81,-0.27,-1.02,17.49,18.82,-1.0,0.31,0.29,0.87,-1.22,1.18,-0.08
1900-01-01 18:17:29.428,32.63,14.15,-0.26,0.25,0.54,0.81,-0.77,-0.5,-0.87,17.69,19.05,-1.02,0.32,0.3,0.87,-1.37,1.11,-0.06
1900-01-01 18:17:29.476,32.46,14.22,-0.24,0.25,0.54,0.81,-0.82,-0.44,-0.69,17.61,19.09,-1.04,0.32,0.29,0.87,-1.45,0.92,0.02
1900-01-01 18:17:29.568,32.45,14.05,-0.19,0.24,0.54,0.81,-0.85,-0.31,-0.98,17.67,18.94,-1.05,0.32,0.3,0.87,-1.38,1.06,-0.06
1900-01-01 18:17:29.663,32.73,14.13,-0.18,0.24,0.54,0.81,-0.89,-0.19,-0.69,17.82,18.99,-1.07,0.32,0.3,0.87,-1.46,1.24,0.18
1900-01-01 18:17:29.711,32.69,14.27,-0.12,0.25,0.54,0.81,-0.63,-0.21,-0.81,18.01,18.92,-1.05,0.32,0.3,0.87,-1.53,1.15,0.06
1900-01-01 18:17:29.805,32.66,13.89,-0.09,0.24,0.54,0.81,-0.8,-0.25,-0.86,18.11,18.7,-1.05,0.31,0.3,0.87,-1.32,1.32,0.15
1900-01-01 18:17:29.852,32.57,14.62,-0.06,0.25,0.54,0.81,-0.47,-0.51,-1.08,18.33,19.0,-1.03,0.32,0.31,0.87,-1.21,1.25,-0.03
1900-01-01 18:17:29.945,32.07,13.82,-0.07,0.24,0.53,0.81,-0.46,-0.42,-0.94,17.31,18.89,-1.05,0.31,0.29,0.87,-1.16,1.16,-0.06
1900-01-01 18:17:30.039,32.25,14.38,-0.06,0.25,0.54,0.82,-0.75,-0.3,-0.92,17.61,19.37,-1.06,0.32,0.3,0.87,-1.29,1.34,0.05
1900-01-01 18:17:30.086,32.48,13.94,-0.04,0.24,0.54,0.81,-0.52,-0.16,-0.88,17.44,18.81,-1.06,0.31,0.29,0.87,-1.41,1.27,0.06
1900-01-01 18:17:30.181,32.46,14.05,-0.01,0.24,0.54,0.81,-0.47,-0.33,-1.14,17.91,18.94,-1.06,0.32,0.3,0.87,-1.05,1.31,0.01
1900-01-01 18:17:30.274,32.19,14.49,-0.03,0.25,0.54,0.81,-0.54,-0.42,-0.91,17.58,19.31,-1.07,0.32,0.29,0.87,-1.27,1.28,-0.05
1900-01-01 18:17:30.321,32.13,14.02,-0.01,0.24,0.53,0.81,-0.31,-0.59,-1.31,17.59,18.98,-1.09,0.32,0.29,0.87,-1.05,1.25,-0.28
1900-01-01 18:17:30.415,32.31,14.32,-0.05,0.25,0.54,0.81,-0.71,-0.38,-0.63,17.51,19.3,-1.14,0.32,0.29,0.87,-1.01,1.3,0.24
1900-01-01 18:17:30.462,32.31,13.91,0.01,0.24,0.53,0.81,-0.73,0.18,-0.55,16.79,18.98,-1.11,0.31,0.28,0.87,-1.79,1.05,0.24
1900-01-01 18:17:30.556,32.4,13.67,0.09,0.24,0.54,0.81,-0.86,0.04,-0.53,17.63,19.06,-1.08,0.32,0.3,0.87,-1.15,1.16,0.51
1900-01-01 18:17:30.650,32.54,14.76,0.16,0.26,0.54,0.81,-0.8,0.22,-0.58,17.52,19.46,-1.01,0.32,0.29,0.87,-1.98,1.09,0.27
1900-01-01 18:17:30.700,32.67,14.0,0.23,0.24,0.54,0.81,-0.18,-0.52,-1.23,18.1,18.77,-0.98,0.31,0.3,0.87,-1.41,1.08,-0.08
1900-01-01 18:17:30.793,32.52,14.18,0.21,0.25,0.54,0.81,-0.76,-0.18,-1.01,17.8,18.94,-1.0,0.32,0.3,0.87,-1.36,1.42,0.08
1900-01-01 18:17:30.839,32.56,14.34,0.21,0.25,0.54,0.81,-0.42,-0.47,-1.19,18.48,18.84,-1.0,0.31,0.31,0.87,-1.35,1.27,0.0
1900-01-01 18:17:30.933,32.3,14.17,0.19,0.25,0.54,0.81,-0.47,-0.6,-1.02,17.72,19.1,-1.01,0.32,0.3,0.87,-1.33,1.15,-0.05
1900-01-01 18:17:31.027,32.13,14.27,0.19,0.25,0.53,0.81,-0.63,-0.29,-1.05,17.81,19.02,-1.02,0.32,0.3,0.87,-1.21,1.35,0.04
1900-01-01 18:17:31.074,32.21,14.15,0.19,0.24,0.53,0.81,-0.69,-0.31,-0.99,17.35,19.23,-1.02,0.32,0.29,0.87,-1.22,1.34,-0.04
1900-01-01 18:17:31.169,32.13,14.13,0.2,0.24,0.53,0.81,-0.53,-0.29,-1.04,17.51,19.24,-1.04,0.32,0.29,0.87,-1.29,1.24,-0.01
1900-01-01 18:17:31.262,32.08,14.23,0.2,0.25,0.53,0.81,-0.63,-0.49,-0.94,17.59,19.3,-1.05,0.32,0.29,0.87,-1.08,1.33,-0.03
1900-01-01 18:17:31.309,32.3,13.96,0.21,0.24,0.54,0.81,-0.53,-0.3,-0.82,17.74,19.19,-1.06,0.32,0.3,0.87,-1.18,1.28,0.04
1900-01-01 18:17:31.404,32.49,13.78,0.24,0.24,0.54,0.81,-0.62,-0.17,-0.87,17.42,18.96,-1.06,0.31,0.29,0.87,-1.37,1.22,0.04
1900-01-01 18:17:31.450,32.25,14.29,0.27,0.25,0.54,0.81,-0.41,-0.22,-1.15,17.5,19.32,-1.07,0.32,0.29,0.87,-1.18,1.33,-0.06
1900-01-01 18:17:31.544,32.27,14.1,0.25,0.24,0.54,0.81,-0.63,-0.18,-0.9,17.55,19.14,-1.08,0.32,0.29,0.87,-1.31,1.27,0.03
1900-01-01 18:17:31.638,32.24,14.26,0.27,0.25,0.54,0.81,-0.5,-0.35,-0.97,17.55,19.03,-1.09,0.32,0.29,0.87,-1.42,1.23,-0.02
1900-01-01 18:17:31.685,32.01,14.02,0.28,0.24,0.53,0.81,-0.5,-0.37,-1.12,17.56,19.03,-1.1,0.32,0.29,0.87,-1.16,1.28,-0.03
1900-01-01 18:17:31.779,31.72,14.15,0.27,0.25,0.53,0.82,-0.19,-0.32,-1.25,16.89,19.35,-1.11,0.32,0.28,0.87,-1.1,1.4,-0.21
1900-01-01 18:17:31.872,31.7,13.46,0.24,0.23,0.52,0.81,-0.44,0.34,-0.78,17.53,18.89,-1.15,0.32,0.29,0.87,-0.96,1.44,0.69
1900-01-01 18:17:31.919,32.41,14.78,0.28,0.26,0.54,0.81,-2.44,-0.5,0.63,17.74,19.51,-1.06,0.32,0.3,0.87,-1.7,0.67,0.37
1900-01-01 18:17:32.014,32.42,13.94,0.53,0.24,0.54,0.82,-0.44,-0.04,-1.52,17.21,19.21,-1.01,0.32,0.29,0.87,-2.0,0.53,-0.37
1900-01-01 18:17:32.062,31.86,13.69,0.46,0.24,0.53,0.82,-0.07,0.55,-3.21,16.82,18.85,-1.07,0.31,0.28,0.87,-0.67,1.82,-0.57
1900-01-01 18:17:32.155,31.73,14.34,0.13,0.25,0.52,0.81,0.18,0.31,-2.74,17.14,19.84,-1.17,0.33,0.29,0.87,-0.24,2.16,-0.21
1900-01-01 18:17:32.249,32.38,13.64,-0.13,0.23,0.53,0.8,-0.59,0.17,-0.68,17.82,19.09,-1.21,0.32,0.3,0.87,-1.66,0.77,0.31
1900-01-01 18:17:32.296,32.53,13.51,-0.07,0.23,0.54,0.81,-0.97,-0.46,0.08,17.49,19.05,-1.17,0.32,0.29,0.87,-1.38,0.94,0.34
1900-01-01 18:17:32.390,32.49,13.62,0.1,0.24,0.54,0.81,0.05,-0.63,-0.35,17.04,19.25,-1.13,0.32,0.28,0.87,-1.14,1.15,0.1
1900-01-01 18:17:32.484,32.75,14.19,0.2,0.25,0.54,0.81,-0.13,-0.63,-0.47,17.52,19.47,-1.12,0.32,0.29,0.87,-1.33,1.13,0.04
1900-01-01 18:17:32.530,32.52,14.1,0.29,0.24,0.54,0.81,-0.31,-0.56,-1.11,17.34,19.17,-1.12,0.32,0.29,0.87,-1.38,0.98,-0.32
1900-01-01 18:17:32.622,32.3,14.17,0.28,0.25,0.54,0.81,-0.69,-0.54,-0.99,17.13,19.58,-1.18,0.33,0.29,0.87,-1.39,1.19,-0.19
1900-01-01 18:17:32.670,32.7,14.24,0.28,0.25,0.54,0.81,-0.53,-0.4,-1.24,17.55,19.05,-1.22,0.32,0.29,0.87,-1.47,1.18,-0.41
1900-01-01 18:17:32.765,32.56,13.73,0.25,0.24,0.54,0.82,0.34,-0.24,-1.69,17.07,19.24,-1.29,0.32,0.29,0.87,-1.04,1.48,-0.32
1900-01-01 18:17:32.859,32.81,13.91,0.15,0.24,0.54,0.81,1.13,-0.09,-2.2,17.31,19.17,-1.35,0.32,0.29,0.87,-0.68,1.65,-0.16
1900-01-01 18:17:32.906,33.29,13.56,-0.02,0.23,0.55,0.8,1.27,-1.01,-0.95,17.74,19.03,-1.38,0.32,0.3,0.87,-0.62,1.05,-0.01
1900-01-01 18:17:32.999,32.89,13.7,-0.01,0.24,0.54,0.8,2.32,-1.1,-0.06,17.6,19.24,-1.39,0.32,0.29,0.87,-0.39,1.07,0.41
1900-01-01 18:17:33.092,32.94,14.18,0.14,0.25,0.55,0.81,1.45,-0.52,1.63,17.97,19.09,-1.34,0.32,0.3,0.87,-0.53,1.45,1.46
1900-01-01 18:17:33.140,33.66,14.31,0.55,0.25,0.56,0.8,0.66,0.03,2.59,17.61,19.22,-1.12,0.32,0.29,0.87,-0.37,1.88,1.84
1900-01-01 18:17:33.234,34.34,14.44,1.1,0.25,0.56,0.79,1.27,-0.64,2.64,17.66,19.22,-0.85,0.32,0.3,0.87,-0.61,1.71,1.76
1900-01-01 18:17:33.281,33.89,15.44,1.66,0.27,0.56,0.79,2.92,-1.08,2.2,17.75,19.85,-0.59,0.33,0.3,0.87,-1.19,1.62,0.71
1900-01-01 18:17:33.373,34.17,15.6,2.15,0.27,0.56,0.79,3.85,-0.32,3.03,18.68,19.29,-0.49,0.32,0.31,0.86,-1.29,2.16,0.37
1900-01-01 18:17:33.467,34.27,15.49,2.77,0.26,0.56,0.77,3.38,-0.71,5.44,18.46,19.32,-0.45,0.32,0.31,0.87,-0.23,2.48,0.73
1900-01-01 18:17:33.515,34.98,16.43,3.75,0.28,0.57,0.76,5.83,-1.87,6.69,18.81,18.56,-0.34,0.31,0.31,0.87,-0.37,2.33,0.53
1900-01-01 18:17:33.609,34.32,18.31,4.93,0.32,0.57,0.77,5.15,-2.43,9.4,17.71,18.93,-0.27,0.32,0.3,0.87,0.53,4.17,-0.94
1900-01-01 18:17:33.656,36.42,18.97,6.51,0.32,0.59,0.73,10.57,-3.48,10.29,18.94,17.83,-0.42,0.3,0.31,0.87,0.56,4.95,-0.08
1900-01-01 18:17:33.752,36.04,21.25,8.24,0.36,0.59,0.73,11.53,-3.28,10.87,18.6,18.11,-0.44,0.3,0.31,0.87,0.72,4.49,-0.7
1900-01-01 18:17:33.844,37.34,21.74,10.06,0.38,0.62,0.72,9.8,-0.78,10.15,19.23,16.92,-0.56,0.28,0.32,0.87,0.65,5.24,0.34
1900-01-01 18:17:33.892,36.94,23.41,11.76,0.39,0.6,0.69,10.21,1.0,11.6,18.39,17.37,-0.52,0.29,0.31,0.87,0.8,5.16,0.82
1900-01-01 18:17:33.986,40.42,25.83,13.68,0.44,0.66,0.63,11.63,-0.47,13.26,20.76,17.2,-0.4,0.29,0.35,0.88,-0.73,2.79,0.85
1900-01-01 18:17:34.080,41.79,25.65,15.87,0.44,0.68,0.62,12.79,-2.43,4.78,19.12,16.0,-0.28,0.27,0.32,0.87,-1.19,1.3,-2.78
1900-01-01 18:17:34.127,40.99,24.43,16.76,0.42,0.66,0.63,11.75,-2.84,5.49,20.2,14.65,-0.71,0.24,0.33,0.86,4.81,5.85,-2.09
1900-01-01 18:17:34.220,41.56,28.14,17.75,0.49,0.69,0.6,10.08,0.82,7.74,21.39,14.64,-1.04,0.25,0.35,0.87,2.24,7.68,1.55
1900-01-01 18:17:34.267,42.45,28.3,19.09,0.48,0.69,0.57,6.46,2.25,2.75,21.5,14.23,-0.81,0.24,0.36,0.88,0.63,4.24,2.1
1900-01-01 18:17:34.361,42.98,29.0,19.66,0.49,0.69,0.56,4.98,1.86,4.76,22.13,13.49,-0.5,0.23,0.37,0.87,2.07,6.35,2.05
1900-01-01 18:17:34.454,43.15,29.57,20.54,0.5,0.69,0.54,2.89,0.27,1.39,22.81,13.21,-0.2,0.22,0.38,0.87,0.49,3.08,2.52
1900-01-01 18:17:34.501,42.57,30.18,20.91,0.51,0.68,0.54,1.08,0.27,1.46,22.47,13.57,0.17,0.23,0.37,0.87,-1.21,1.86,1.24
1900-01-01 18:17:34.595,43.14,29.98,21.29,0.5,0.69,0.53,0.05,-0.54,0.72,21.65,13.33,0.35,0.22,0.36,0.87,-1.08,1.88,0.94
1900-01-01 18:17:34.688,43.19,29.77,21.56,0.5,0.69,0.54,-0.34,-2.05,-0.36,22.07,13.43,0.48,0.23,0.36,0.87,-0.3,1.12,-0.42
1900-01-01 18:17:34.736,42.77,29.77,21.66,0.5,0.69,0.55,-1.08,-1.6,-1.8,22.35,13.1,0.41,0.22,0.37,0.87,-1.03,1.22,-0.71
1900-01-01 18:17:34.830,42.41,29.85,21.54,0.5,0.68,0.55,-2.06,-0.4,-3.07,22.15,13.21,0.29,0.22,0.37,0.87,-2.61,0.42,0.35
1900-01-01 18:17:34.875,42.44,30.1,21.23,0.51,0.69,0.55,-1.69,0.41,-3.52,22.01,14.04,0.34,0.24,0.36,0.87,-2.21,0.18,0.73
1900-01-01 18:17:34.970,44.37,27.32,20.86,0.46,0.7,0.55,-1.86,2.31,-5.93,22.45,12.98,0.44,0.22,0.37,0.87,-1.56,-0.47,-0.06
1900-01-01 18:17:35.064,44.37,26.68,20.11,0.45,0.7,0.56,-6.1,3.61,-8.92,20.84,12.46,0.42,0.21,0.34,0.87,-5.36,1.37,2.1
1900-01-01 18:17:35.111,44.06,27.62,18.91,0.47,0.71,0.56,-5.47,2.62,-8.11,21.12,13.91,0.73,0.23,0.35,0.87,-4.98,-0.27,0.02
1900-01-01 18:17:35.205,45.0,25.98,17.83,0.45,0.72,0.56,-6.05,0.15,-10.03,19.44,14.49,0.73,0.24,0.32,0.88,-2.72,-0.35,-0.84
1900-01-01 18:17:35.300,45.15,24.92,16.45,0.43,0.73,0.58,-12.05,-5.84,-13.73,22.27,14.68,0.59,0.25,0.37,0.86,-5.76,-1.4,-2.6
1900-01-01 18:17:35.346,44.21,23.08,14.5,0.4,0.71,0.61,-10.35,-0.46,-19.58,19.14,14.39,0.18,0.24,0.32,0.89,-3.11,-3.96,-2.37
1900-01-01 18:17:35.440,44.48,19.43,11.64,0.34,0.71,0.64,-14.04,-4.59,-18.39,18.38,14.99,-0.19,0.25,0.3,0.88,-4.76,-2.47,-1.12
1900-01-01 18:17:35.488,42.69,19.31,8.97,0.33,0.68,0.66,-13.62,-1.09,-20.54,19.39,16.28,-0.37,0.27,0.32,0.87,-0.98,-0.94,-0.4
1900-01-01 18:17:35.582,41.16,16.9,5.96,0.29,0.65,0.69,-11.39,-1.06,-17.14,17.81,16.78,-0.44,0.28,0.3,0.88,0.17,0.36,-0.9
1900-01-01 18:17:35.676,39.19,15.5,3.5,0.27,0.63,0.73,-12.16,4.64,-14.71,18.59,16.15,-0.59,0.27,0.31,0.88,-2.04,2.4,-0.64
1900-01-01 18:17:35.723,37.91,13.7,1.4,0.22,0.58,0.71,-5.6,4.92,-6.69,19.98,16.19,-0.69,0.27,0.33,0.88,-0.4,3.53,0.73
1900-01-01 18:17:35.817,39.41,11.91,0.54,0.19,0.6,0.7,-3.79,3.36,0.79,21.04,13.78,-0.59,0.23,0.35,0.88,-2.11,2.35,-0.44
1900-01-01 18:17:35.864,36.86,14.67,0.82,0.25,0.58,0.74,-3.39,-0.15,5.65,18.35,17.54,-0.67,0.29,0.3,0.87,-2.73,-1.28,0.91
1900-01-01 18:17:35.958,38.97,13.19,1.84,0.22,0.61,0.72,0.04,-2.66,8.76,18.19,15.6,-0.54,0.26,0.3,0.88,-3.76,-0.95,0.13
1900-01-01 18:17:36.052,39.57,15.36,3.33,0.26,0.64,0.72,3.18,-9.29,11.2,19.26,16.16,-0.53,0.27,0.32,0.88,-2.64,-0.92,-0.02
1900-01-01 18:17:36.097,39.18,17.12,5.2,0.3,0.64,0.72,5.0,-7.4,6.47,19.14,16.54,-0.54,0.28,0.32,0.88,-0.02,0.22,0.31
1900-01-01 18:17:36.192,38.82,18.54,6.34,0.32,0.62,0.71,7.51,-5.73,5.18,18.35,16.76,-0.5,0.28,0.3,0.88,-0.23,0.76,0.21
1900-01-01 18:17:36.287,40.52,19.49,7.29,0.34,0.66,0.69,6.01,-5.41,4.18,19.43,16.84,-0.48,0.28,0.32,0.87,0.21,1.86,-0.31
1900-01-01 18:17:36.334,40.09,20.65,8.08,0.36,0.65,0.69,6.27,-4.05,5.57,19.6,16.3,-0.53,0.27,0.33,0.87,1.0,2.44,-0.35
1900-01-01 18:17:36.428,40.27,21.74,9.09,0.37,0.65,0.67,6.37,-2.31,6.87,19.46,16.06,-0.59,0.27,0.32,0.87,0.67,3.5,0.52
1900-01-01 18:17:36.475,39.74,23.37,10.29,0.39,0.63,0.65,6.44,-1.84,8.77,19.69,15.95,-0.52,0.27,0.33,0.87,-0.2,4.72,1.34
1900-01-01 18:17:36.570,40.49,25.7,11.78,0.43,0.64,0.62,7.44,-4.26,13.98,21.04,15.86,-0.33,0.27,0.35,0.87,0.12,5.14,1.76
1900-01-01 18:17:36.664,41.12,26.29,14.07,0.44,0.65,0.6,4.18,-5.77,15.37,20.03,14.54,-0.07,0.24,0.33,0.87,1.18,5.79,2.65
1900-01-01 18:17:36.711,41.09,27.56,16.56,0.48,0.69,0.62,8.65,-8.07,13.45,20.41,13.27,0.32,0.22,0.34,0.88,2.73,6.73,3.59
1900-01-01 18:17:36.805,39.0,32.18,18.76,0.57,0.67,0.6,8.18,4.79,5.5,21.44,14.87,0.86,0.25,0.36,0.88,1.18,4.57,-0.34
1900-01-01 18:17:36.853,41.82,29.93,19.75,0.51,0.68,0.57,-0.47,10.21,2.63,21.23,13.63,0.8,0.23,0.35,0.88,-0.29,4.41,0.53
1900-01-01 18:17:36.947,43.08,30.25,20.31,0.51,0.69,0.53,-7.76,5.79,-3.94,21.93,12.86,0.87,0.22,0.36,0.87,-2.87,0.02,-2.11
1900-01-01 18:17:37.040,41.92,28.3,19.87,0.47,0.67,0.57,-11.56,-0.15,-13.5,20.73,13.18,0.54,0.22,0.34,0.88,-2.44,-3.01,-2.83
1900-01-01 18:17:37.087,41.2,26.51,17.95,0.46,0.69,0.63,-10.76,-3.76,-22.78,20.6,14.0,0.1,0.23,0.34,0.88,-4.3,-2.36,-1.88
1900-01-01 18:17:37.181,41.11,25.52,14.6,0.45,0.69,0.64,-15.99,-2.31,-26.19,21.92,14.2,-0.2,0.24,0.36,0.87,-4.6,-4.28,-4.37
1900-01-01 18:17:37.275,39.07,23.63,10.72,0.41,0.64,0.68,-17.31,5.64,-27.24,21.31,15.79,-0.88,0.27,0.36,0.88,-7.02,-8.34,-3.8
1900-01-01 18:17:37.322,36.99,17.18,6.69,0.29,0.58,0.72,-19.44,11.21,-24.92,15.55,16.02,-1.48,0.26,0.26,0.88,-6.88,-6.76,-3.53
1900-01-01 18:17:37.414,35.68,15.94,3.02,0.26,0.56,0.74,-9.92,1.69,-22.91,18.5,18.04,-2.03,0.3,0.31,0.87,-0.68,-2.44,-3.56
1900-01-01 18:17:37.508,34.4,12.54,-0.33,0.21,0.54,0.76,-4.63,-2.06,-11.09,19.2,16.53,-2.58,0.27,0.32,0.87,-1.05,-0.66,-2.26
1900-01-01 18:17:37.555,34.45,13.57,-1.88,0.24,0.57,0.79,-3.52,-4.05,-3.06,19.2,17.76,-2.94,0.3,0.32,0.87,-0.03,1.58,0.11
1900-01-01 18:17:37.649,36.17,13.72,-2.19,0.24,0.59,0.78,-0.47,-1.8,-0.12,19.27,17.24,-2.93,0.29,0.32,0.87,-0.56,2.71,0.54
1900-01-01 18:17:37.696,38.02,12.56,-2.05,0.22,0.63,0.77,0.43,-0.62,-0.26,19.48,16.88,-2.85,0.28,0.32,0.87,0.05,3.31,0.74
1900-01-01 18:17:37.789,37.6,13.55,-1.93,0.24,0.62,0.77,0.99,1.34,-4.66,19.96,16.74,-2.75,0.28,0.33,0.87,-0.33,2.98,-0.18
1900-01-01 18:17:37.882,36.81,12.71,-2.49,0.22,0.6,0.77,-0.57,-2.63,-3.51,19.74,16.41,-2.79,0.27,0.33,0.87,-0.7,1.91,0.18
1900-01-01 18:17:37.929,36.86,13.16,-2.86,0.22,0.59,0.75,-0.92,-0.5,-0.71,19.84,16.66,-2.77,0.28,0.33,0.87,-1.3,2.13,0.73
1900-01-01 18:17:38.024,37.6,12.92,-2.81,0.22,0.6,0.75,-1.91,2.44,3.98,20.23,16.41,-2.66,0.27,0.34,0.87,-2.73,0.95,0.88
1900-01-01 18:17:38.118,36.73,13.36,-2.05,0.22,0.58,0.75,-3.29,1.8,5.7,20.03,16.25,-2.54,0.27,0.33,0.87,-3.02,0.91,1.11
1900-01-01 18:17:38.165,37.52,13.71,-1.02,0.23,0.6,0.74,2.76,-1.44,8.24,20.17,15.99,-2.38,0.27,0.34,0.88,-3.11,-2.16,0.71
1900-01-01 18:17:38.257,37.53,16.13,0.39,0.29,0.63,0.77,3.26,3.19,-0.3,19.54,17.79,-2.28,0.3,0.33,0.87,-1.68,0.87,-0.62
1900-01-01 18:17:38.305,36.53,13.93,0.5,0.24,0.6,0.77,1.04,-1.0,0.55,20.17,15.91,-2.38,0.26,0.33,0.86,-1.25,0.32,-2.51
1900-01-01 18:17:38.399,35.19,15.36,0.75,0.27,0.59,0.79,-0.91,0.18,2.83,18.86,18.71,-2.77,0.32,0.32,0.87,-0.34,1.58,1.66
1900-01-01 18:17:38.493,37.16,13.62,1.33,0.24,0.61,0.77,-0.46,3.96,0.11,17.86,17.21,-2.53,0.29,0.3,0.88,-1.8,2.05,0.73
1900-01-01 18:17:38.540,37.38,13.25,1.51,0.23,0.6,0.76,0.65,3.6,-3.01,18.05,16.94,-2.43,0.28,0.3,0.88,0.01,2.98,0.52
1900-01-01 18:17:38.633,37.92,14.09,1.21,0.24,0.61,0.75,3.67,-0.05,-3.14,19.5,17.49,-2.36,0.29,0.33,0.87,-0.03,1.47,-0.17
1900-01-01 18:17:38.729,37.79,13.27,0.89,0.23,0.6,0.74,-0.27,-2.79,-1.85,18.94,16.63,-2.39,0.28,0.31,0.87,-0.82,0.98,-0.15
1900-01-01 18:17:38.776,37.97,13.67,0.77,0.23,0.61,0.75,2.44,-1.25,-1.02,19.1,17.21,-2.42,0.29,0.32,0.87,-0.18,1.31,-0.08
1900-01-01 18:17:38.870,38.74,13.41,0.77,0.23,0.62,0.74,4.82,1.17,-1.37,19.36,16.59,-2.44,0.28,0.32,0.87,-0.03,1.49,-0.18
1900-01-01 18:17:38.916,39.23,13.71,0.72,0.24,0.64,0.74,2.2,-2.2,-0.28,20.34,16.78,-2.48,0.28,0.34,0.87,0.71,1.47,0.21
1900-01-01 18:17:39.010,38.67,14.27,0.84,0.25,0.62,0.74,1.77,0.35,-1.39,20.6,16.81,-2.46,0.28,0.34,0.86,-0.82,1.49,0.08
1900-01-01 18:17:39.105,39.13,13.34,0.79,0.23,0.62,0.73,-0.85,0.63,3.02,19.89,16.66,-2.45,0.28,0.33,0.87,-0.41,1.18,2.33
1900-01-01 18:17:39.152,40.18,14.07,1.4,0.25,0.65,0.73,-1.75,-0.59,1.84,19.36,17.89,-2.11,0.3,0.32,0.86,-0.55,-0.76,2.29
1900-01-01 18:17:39.245,39.6,15.18,1.84,0.27,0.65,0.73,-0.15,-0.62,-2.03,19.59,18.0,-1.77,0.3,0.33,0.87,-1.5,0.92,-0.26
1900-01-01 18:17:39.292,39.63,14.32,1.69,0.25,0.64,0.73,0.27,-0.87,-2.05,19.98,17.31,-1.82,0.29,0.33,0.86,-1.11,0.77,-0.58
1900-01-01 18:17:39.385,39.41,14.28,1.54,0.25,0.63,0.73,0.0,-1.12,-2.82,19.94,17.84,-1.91,0.3,0.33,0.87,-0.69,0.82,-0.82
1900-01-01 18:17:39.479,39.4,14.02,1.26,0.24,0.63,0.73,-0.89,-0.51,-2.53,20.23,17.43,-2.05,0.29,0.34,0.86,-1.22,0.85,-0.75
1900-01-01 18:17:39.527,39.46,14.42,1.04,0.25,0.64,0.73,-1.13,-1.12,-2.21,19.93,17.82,-2.17,0.3,0.33,0.86,-1.52,0.41,-0.79
1900-01-01 18:17:39.621,39.22,13.4,0.86,0.23,0.63,0.74,-0.98,-0.18,-2.72,19.89,17.54,-2.3,0.29,0.33,0.86,-1.87,0.47,-0.79
1900-01-01 18:17:39.716,38.8,14.56,0.6,0.25,0.62,0.73,-0.87,-0.62,-0.69,20.42,18.22,-2.43,0.31,0.34,0.86,-1.93,0.37,0.34
1900-01-01 18:17:39.763,39.77,13.4,0.65,0.23,0.64,0.73,-2.63,-1.35,2.3,18.92,17.88,-2.38,0.3,0.31,0.86,-2.2,0.05,0.69
1900-01-01 18:17:39.856,40.11,14.07,1.16,0.24,0.65,0.73,-0.85,-1.42,-0.78,19.53,18.27,-2.29,0.3,0.33,0.86,-1.18,0.9,-0.33
1900-01-01 18:17:39.904,39.25,14.3,1.2,0.25,0.64,0.74,1.12,-1.69,-2.66,19.78,18.04,-2.35,0.3,0.33,0.86,-0.62,1.18,-1.11
1900-01-01 18:17:39.999,38.09,14.84,0.95,0.26,0.62,0.75,0.39,-0.36,-3.24,20.33,18.37,-2.52,0.31,0.34,0.86,-0.97,1.21,-0.76
1900-01-01 18:17:40.092,39.38,14.27,0.62,0.25,0.64,0.73,-1.8,1.53,-0.91,21.06,17.85,-2.65,0.3,0.35,0.86,-1.55,1.47,0.69
1900-01-01 18:17:40.140,39.4,14.24,0.64,0.24,0.63,0.72,-1.63,0.21,-0.08,19.6,18.24,-2.55,0.3,0.32,0.86,-1.35,1.63,0.55
1900-01-01 18:17:40.234,40.34,13.34,0.79,0.23,0.65,0.72,-0.77,-1.58,-0.73,20.46,17.76,-2.48,0.3,0.34,0.86,-1.3,0.69,-0.03
1900-01-01 18:17:40.327,38.63,14.3,0.83,0.25,0.63,0.75,-0.47,-0.22,-1.65,19.8,18.45,-2.49,0.31,0.33,0.86,-1.41,1.21,-0.28
1900-01-01 18:17:40.374,39.25,13.79,0.74,0.24,0.63,0.73,-0.74,0.63,-0.21,20.17,17.94,-2.54,0.3,0.34,0.86,-1.47,1.1,0.27
1900-01-01 18:17:40.467,38.93,14.32,0.87,0.25,0.63,0.74,-0.98,0.51,-0.53,20.25,17.92,-2.51,0.3,0.34,0.86,-1.03,1.94,0.31
1900-01-01 18:17:40.515,39.28,14.47,0.94,0.25,0.63,0.73,-0.74,-0.38,0.38,20.29,18.04,-2.47,0.3,0.34,0.86,-1.21,1.56,0.41
1900-01-01 18:17:40.609,39.24,14.71,1.16,0.25,0.63,0.73,-0.17,-1.04,0.04,20.45,17.85,-2.42,0.3,0.34,0.86,-1.65,1.26,-0.42
1900-01-01 18:17:40.703,38.18,14.37,1.32,0.25,0.62,0.75,-0.94,-0.37,0.34,20.0,17.89,-2.49,0.3,0.33,0.86,-1.17,1.87,0.08
1900-01-01 18:17:40.751,38.42,15.14,1.53,0.26,0.62,0.74,-1.21,1.34,1.24,19.99,17.86,-2.48,0.3,0.33,0.86,-1.5,1.44,0.34
1900-01-01 18:17:40.844,39.3,14.92,1.88,0.26,0.64,0.74,0.3,-3.73,0.06,19.52,18.08,-2.44,0.3,0.33,0.87,-0.6,1.3,-0.26
1900-01-01 18:17:40.938,37.82,15.46,2.05,0.26,0.61,0.74,1.55,-2.05,-3.04,19.61,18.0,-2.49,0.3,0.33,0.87,-0.99,1.24,-0.8
1900-01-01 18:17:40.985,38.85,15.03,1.74,0.26,0.62,0.73,0.15,-0.62,1.42,20.38,17.46,-2.62,0.29,0.34,0.86,-0.55,0.96,0.76
1900-01-01 18:17:41.080,39.12,15.87,2.12,0.28,0.65,0.75,-0.36,-1.87,-0.79,20.32,18.22,-2.51,0.3,0.34,0.86,-1.47,1.13,-0.08
1900-01-01 18:17:41.127,39.03,15.08,2.16,0.26,0.63,0.73,0.41,0.5,-2.21,20.25,17.52,-2.53,0.29,0.34,0.86,-1.18,1.47,-0.15
1900-01-01 18:17:41.220,39.54,15.03,1.98,0.26,0.63,0.72,-0.47,-0.06,-1.14,20.35,17.66,-2.57,0.3,0.34,0.86,-0.69,1.59,0.26
1900-01-01 18:17:41.313,39.81,15.22,1.96,0.26,0.64,0.72,-0.42,-0.47,-1.74,20.3,17.82,-2.54,0.3,0.34,0.86,-0.94,1.08,-0.52
1900-01-01 18:17:41.361,39.26,15.2,1.86,0.26,0.64,0.73,-0.15,-0.73,-2.3,20.39,17.79,-2.62,0.3,0.34,0.86,-1.24,1.44,-0.63
1900-01-01 18:17:41.454,38.98,14.9,1.66,0.26,0.63,0.73,-1.15,-0.41,-1.27,20.46,17.57,-2.73,0.29,0.34,0.86,-0.97,1.72,0.14
1900-01-01 18:17:41.502,39.35,15.19,1.63,0.26,0.63,0.73,-2.5,0.02,-0.65,20.09,17.73,-2.71,0.3,0.33,0.86,-1.67,1.64,0.26
1900-01-01 18:17:41.595,39.12,15.36,1.69,0.26,0.63,0.73,-2.92,0.12,-1.2,20.11,17.82,-2.68,0.3,0.33,0.86,-1.24,1.54,-0.01
1900-01-01 18:17:41.689,39.24,15.11,1.66,0.26,0.63,0.73,-4.6,0.13,-0.66,20.15,17.71,-2.69,0.29,0.33,0.86,-2.01,0.98,-0.59
1900-01-01 18:17:41.736,38.36,14.95,1.72,0.26,0.62,0.74,-4.46,-1.41,-2.43,19.84,17.89,-2.79,0.3,0.33,0.86,-1.91,0.57,-1.33
1900-01-01 18:17:41.830,37.88,14.75,1.51,0.26,0.62,0.75,-2.16,-2.83,-4.14,20.59,17.41,-3.0,0.29,0.34,0.86,-1.25,1.13,-1.39
1900-01-01 18:17:41.924,36.38,14.85,1.03,0.26,0.59,0.76,-2.26,-4.11,-1.46,19.57,17.63,-3.22,0.29,0.32,0.86,-1.66,0.87,-0.69
1900-01-01 18:17:41.969,37.89,14.78,0.97,0.26,0.63,0.76,-0.56,-2.41,-1.08,20.58,17.46,-3.34,0.29,0.34,0.87,-0.75,1.21,-0.12
1900-01-01 18:17:42.063,36.79,15.68,0.96,0.27,0.61,0.76,1.85,-0.41,-3.83,20.81,17.63,-3.37,0.3,0.35,0.86,-0.95,2.14,-0.46
1900-01-01 18:17:42.110,37.12,14.02,0.54,0.24,0.59,0.74,0.37,2.7,-0.15,20.2,16.58,-3.44,0.28,0.33,0.86,-1.05,1.84,1.34
1900-01-01 18:17:42.204,38.46,15.44,0.67,0.27,0.63,0.75,1.97,0.85,0.79,20.63,17.68,-3.25,0.3,0.34,0.86,-0.33,1.66,1.21
1900-01-01 18:17:42.300,38.09,15.14,0.95,0.26,0.62,0.74,1.55,1.24,-1.5,20.38,17.44,-3.07,0.29,0.34,0.87,-1.25,1.22,0.24
1900-01-01 18:17:42.345,38.74,15.1,0.88,0.26,0.62,0.73,1.19,-0.01,0.92,20.41,17.44,-3.05,0.29,0.34,0.87,-1.27,1.23,0.8
1900-01-01 18:17:42.440,39.6,14.96,1.18,0.26,0.64,0.73,0.81,0.06,0.5,20.23,17.44,-2.93,0.29,0.33,0.86,-1.55,0.68,0.18
1900-01-01 18:17:42.534,39.16,15.01,1.41,0.26,0.64,0.74,2.25,-1.44,-0.57,20.73,17.49,-2.91,0.29,0.34,0.86,-1.08,0.93,-0.07
1900-01-01 18:17:42.581,38.43,15.43,1.48,0.27,0.62,0.74,1.47,0.06,0.39,20.15,17.86,-2.93,0.3,0.33,0.86,-1.56,1.08,0.6
1900-01-01 18:17:42.675,39.58,15.15,1.7,0.26,0.64,0.73,0.76,0.92,1.16,20.84,17.35,-2.85,0.29,0.35,0.86,-1.37,1.15,0.98
1900-01-01 18:17:42.722,39.96,15.63,2.04,0.27,0.64,0.72,0.17,0.96,0.84,20.27,17.8,-2.71,0.3,0.34,0.86,-1.39,1.5,0.94
1900-01-01 18:17:42.816,40.17,15.34,2.32,0.26,0.64,0.72,0.97,0.07,-0.07,20.46,17.71,-2.58,0.3,0.34,0.86,-1.41,0.93,0.32
1900-01-01 18:17:42.910,40.0,15.61,2.47,0.27,0.64,0.72,1.4,-0.7,-0.73,20.41,17.79,-2.54,0.3,0.34,0.86,-0.79,1.28,-0.05
1900-01-01 18:17:42.957,40.31,15.44,2.52,0.27,0.65,0.72,1.5,-0.55,-1.57,19.87,17.92,-2.55,0.3,0.33,0.86,-0.53,1.48,-0.27
1900-01-01 18:17:43.051,40.43,15.35,2.44,0.27,0.65,0.72,-0.13,-0.05,-1.23,20.19,18.01,-2.6,0.3,0.34,0.86,-1.18,1.36,0.14
1900-01-01 18:17:43.097,40.58,15.34,2.41,0.26,0.65,0.71,-0.33,-0.21,-1.02,20.19,17.93,-2.59,0.3,0.34,0.86,-1.07,1.33,-0.03
1900-01-01 18:17:43.191,40.67,15.22,2.41,0.26,0.65,0.71,-0.32,-0.19,-1.93,20.35,17.8,-2.6,0.3,0.34,0.86,-1.08,1.39,-0.28
1900-01-01 18:17:43.285,40.79,14.87,2.27,0.26,0.65,0.71,-0.7,-0.43,-2.39,20.47,17.43,-2.66,0.29,0.34,0.86,-0.95,1.17,-0.57
1900-01-01 18:17:43.332,40.64,15.39,2.07,0.27,0.65,0.71,-0.52,-0.65,-2.09,20.94,17.86,-2.75,0.3,0.35,0.86,-0.71,1.28,-0.44
1900-01-01 18:17:43.426,40.87,15.28,1.91,0.26,0.65,0.71,-0.01,-0.7,-1.63,21.09,17.62,-2.83,0.29,0.35,0.86,-0.97,1.08,-0.45
1900-01-01 18:17:43.521,40.45,15.16,1.81,0.26,0.64,0.71,-0.83,-0.6,-0.79,20.62,17.86,-2.91,0.3,0.34,0.86,-1.15,1.15,0.13
1900-01-01 18:17:43.567,40.54,14.9,1.85,0.26,0.64,0.71,-2.39,-0.27,1.31,20.71,17.69,-2.89,0.3,0.34,0.86,-1.72,0.88,0.96
1900-01-01 18:17:43.661,40.8,15.68,2.21,0.27,0.66,0.71,-1.93,-0.92,1.17,20.44,18.07,-2.76,0.3,0.34,0.86,-1.73,0.68,0.43
1900-01-01 18:17:43.709,40.58,15.63,2.54,0.27,0.66,0.72,-0.63,-0.81,-1.36,21.06,18.21,-2.7,0.31,0.35,0.86,-1.7,0.75,-0.31
1900-01-01 18:17:43.802,39.96,15.43,2.5,0.27,0.64,0.72,-1.12,0.17,-1.51,20.76,17.72,-2.76,0.3,0.34,0.86,-1.63,1.14,-0.1
1900-01-01 18:17:43.896,40.2,15.71,2.42,0.27,0.65,0.72,-1.36,-0.18,-0.67,21.06,18.12,-2.78,0.3,0.35,0.86,-1.34,1.11,0.31
1900-01-01 18:17:43.942,40.13,15.29,2.48,0.26,0.64,0.72,-0.76,-0.24,-1.54,20.44,17.59,-2.74,0.29,0.34,0.86,-1.48,1.06,-0.45
1900-01-01 18:17:44.037,39.66,15.56,2.4,0.27,0.64,0.72,-0.85,-0.55,-1.36,20.6,18.27,-2.82,0.31,0.34,0.86,-1.18,1.25,-0.11
1900-01-01 18:17:44.129,39.75,15.51,2.35,0.27,0.64,0.72,-0.6,-0.2,-1.42,20.89,17.84,-2.84,0.3,0.35,0.86,-1.18,1.3,-0.12
1900-01-01 18:17:44.177,39.51,15.84,2.29,0.27,0.64,0.72,-0.54,-0.18,-1.16,20.27,18.45,-2.87,0.31,0.34,0.86,-1.15,1.39,0.02
1900-01-01 18:17:44.270,39.88,15.23,2.28,0.26,0.64,0.72,-0.62,-0.18,-1.06,20.34,17.96,-2.87,0.3,0.34,0.86,-1.24,1.23,0.01
1900-01-01 18:17:44.317,40.09,15.42,2.27,0.27,0.65,0.72,-0.48,-0.28,-1.04,20.87,17.96,-2.88,0.3,0.35,0.86,-1.3,1.27,-0.02
1900-01-01 18:17:44.411,39.82,15.35,2.27,0.26,0.64,0.72,-0.57,-0.13,-0.89,20.55,18.0,-2.89,0.3,0.34,0.86,-1.48,1.21,0.16
1900-01-01 18:17:44.503,40.16,15.31,2.29,0.26,0.65,0.72,-0.53,-0.17,-0.92,20.92,18.04,-2.88,0.3,0.35,0.86,-1.27,1.28,0.11
1900-01-01 18:17:44.551,40.03,15.41,2.31,0.27,0.64,0.72,-0.39,-0.17,-1.12,20.94,17.91,-2.87,0.3,0.35,0.86,-1.24,1.31,-0.02
1900-01-01 18:17:44.645,40.06,15.46,2.3,0.27,0.64,0.72,-0.69,-0.38,-0.73,20.51,18.14,-2.88,0.3,0.34,0.86,-1.44,1.23,0.1
1900-01-01 18:17:44.738,39.91,15.07,2.35,0.26,0.64,0.72,-0.55,-0.33,-1.15,20.61,17.84,-2.87,0.3,0.34,0.86,-1.21,1.22,-0.05
1900-01-01 18:17:44.786,40.0,15.7,2.33,0.27,0.65,0.72,-0.53,-0.48,-1.0,21.05,18.34,-2.89,0.31,0.35,0.86,-1.14,1.31,0.0
1900-01-01 18:17:44.881,40.12,15.24,2.34,0.26,0.64,0.72,-0.33,-0.5,-0.79,20.97,17.87,-2.9,0.3,0.35,0.86,-1.33,1.17,-0.01
1900-01-01 18:17:44.927,39.88,15.39,2.37,0.27,0.64,0.72,-0.42,-0.53,-1.02,20.73,18.04,-2.91,0.3,0.34,0.86,-1.19,1.26,-0.11
1900-01-01 18:17:45.021,39.93,15.4,2.38,0.27,0.64,0.72,-0.67,-0.24,-1.05,20.77,17.98,-2.93,0.3,0.34,0.86,-1.22,1.33,0.03
1900-01-01 18:17:45.115,40.04,15.51,2.38,0.27,0.64,0.72,-0.73,-0.24,-1.03,20.86,18.17,-2.94,0.3,0.35,0.86,-1.32,1.27,0.02
1900-01-01 18:17:45.161,39.8,15.2,2.38,0.26,0.64,0.72,-0.7,-0.24,-1.08,20.63,18.04,-2.94,0.3,0.34,0.86,-1.31,1.21,-0.05
1900-01-01 18:17:45.256,40.03,15.26,2.37,0.26,0.65,0.72,-0.64,-0.14,-1.17,20.78,17.93,-2.96,0.3,0.34,0.86,-1.35,1.31,-0.06
1900-01-01 18:17:45.350,39.9,15.46,2.35,0.27,0.64,0.72,-0.63,-0.23,-1.18,20.64,18.16,-2.98,0.3,0.34,0.86,-1.32,1.33,0.03
1900-01-01 18:17:45.395,40.04,15.18,2.33,0.26,0.64,0.72,-0.7,-0.35,-0.96,20.67,17.99,-2.98,0.3,0.34,0.86,-1.42,1.21,0.05
1900-01-01 18:17:45.490,39.9,15.26,2.34,0.26,0.64,0.72,-0.72,-0.15,-1.06,20.79,17.92,-2.98,0.3,0.35,0.86,-1.44,1.29,0.08
1900-01-01 18:17:45.584,39.99,15.22,2.34,0.26,0.64,0.72,-0.79,-0.24,-1.01,20.63,17.92,-2.98,0.3,0.34,0.86,-1.37,1.16,0.04
1900-01-01 18:17:45.633,39.76,15.66,2.34,0.27,0.64,0.72,-0.66,-0.41,-1.09,20.88,18.24,-2.98,0.31,0.35,0.86,-1.32,1.34,-0.07
1900-01-01 18:17:45.726,40.01,15.06,2.33,0.26,0.64,0.72,-0.69,-0.42,-0.92,20.73,17.68,-3.0,0.29,0.34,0.86,-1.45,1.17,0.02
1900-01-01 18:17:45.771,39.77,15.25,2.35,0.26,0.64,0.72,-0.53,-0.29,-1.11,20.63,17.98,-3.01,0.3,0.34,0.86,-1.25,1.31,-0.05
1900-01-01 18:17:45.866,39.78,15.21,2.34,0.26,0.64,0.72,-0.73,-0.28,-0.98,20.6,17.98,-3.02,0.3,0.34,0.86,-1.36,1.19,0.01
1900-01-01 18:17:45.961,40.07,15.23,2.35,0.26,0.64,0.72,-0.61,-0.25,-0.98,20.81,17.9,-3.03,0.3,0.35,0.86,-1.36,1.25,0.05
1900-01-01 18:17:46.007,39.81,15.29,2.36,0.26,0.64,0.72,-0.63,-0.3,-1.05,20.8,17.87,-3.03,0.3,0.34,0.86,-1.34,1.28,-0.05
1900-01-01 18:17:46.103,39.73,15.36,2.36,0.27,0.64,0.72,-0.63,-0.53,-0.91,20.55,18.17,-3.05,0.3,0.34,0.86,-1.31,1.24,-0.02
1900-01-01 18:17:46.147,39.88,14.85,2.38,0.26,0.64,0.72,-0.5,-0.18,-1.08,20.7,17.66,-3.06,0.29,0.34,0.86,-1.32,1.27,0.02
1900-01-01 18:17:46.241,39.83,15.45,2.37,0.27,0.64,0.72,-0.68,-0.19,-0.92,20.71,18.28,-3.07,0.31,0.35,0.86,-1.26,1.35,0.07
1900-01-01 18:17:46.336,40.12,14.96,2.39,0.26,0.64,0.72,-0.58,-0.24,-0.9,20.6,17.9,-3.06,0.3,0.34,0.86,-1.45,1.14,0.04
1900-01-01 18:17:46.382,39.76,15.32,2.41,0.26,0.64,0.72,-0.5,-0.4,-0.85,20.76,18.09,-3.07,0.3,0.34,0.86,-1.26,1.24,0.1
1900-01-01 18:17:46.476,39.93,15.14,2.44,0.26,0.64,0.72,-0.59,-0.28,-0.95,20.56,18.0,-3.06,0.3,0.34,0.86,-1.39,1.21,0.05
1900-01-01 18:17:46.570,40.01,15.3,2.45,0.26,0.64,0.72,-0.39,-0.34,-0.96,21.16,17.87,-3.06,0.3,0.35,0.86,-1.3,1.35,0.02
1900-01-01 18:17:46.618,39.68,15.15,2.46,0.26,0.64,0.72,-0.55,-0.4,-1.0,20.64,17.89,-3.06,0.3,0.34,0.86,-1.31,1.26,0.0
1900-01-01 18:17:46.711,39.59,15.33,2.47,0.26,0.64,0.72,-0.55,-0.37,-1.06,20.74,17.98,-3.07,0.3,0.34,0.86,-1.29,1.31,-0.04
1900-01-01 18:17:46.760,39.72,15.2,2.47,0.26,0.64,0.72,-0.62,-0.36,-0.92,20.61,18.01,-3.09,0.3,0.34,0.86,-1.24,1.29,0.05
1900-01-01 18:17:46.853,39.84,15.12,2.49,0.26,0.64,0.72,-0.6,-0.27,-0.98,20.79,17.82,-3.09,0.3,0.35,0.86,-1.34,1.24,-0.02
1900-01-01 18:17:46.946,39.63,15.15,2.49,0.26,0.64,0.72,-0.61,-0.36,-1.08,20.64,18.06,-3.1,0.3,0.34,0.86,-1.21,1.29,0.02
1900-01-01 18:17:46.994,39.68,15.16,2.49,0.26,0.64,0.72,-0.66,-0.13,-0.89,20.79,17.85,-3.11,0.3,0.34,0.86,-1.39,1.25,0.06
1900-01-01 18:17:47.088,39.9,15.12,2.51,0.26,0.65,0.73,-0.58,-0.28,-1.19,20.64,18.02,-3.1,0.3,0.34,0.86,-1.39,1.35,-0.15
1900-01-01 18:17:47.182,39.57,15.05,2.49,0.26,0.64,0.73,-0.77,0.16,-1.62,20.76,17.98,-3.14,0.3,0.34,0.86,-1.41,1.5,-0.02
1900-01-01 18:17:47.228,39.43,15.04,2.4,0.26,0.63,0.72,-0.89,-0.13,-0.2,20.69,17.86,-3.15,0.3,0.34,0.86,-1.33,1.18,0.42
1900-01-01 18:17:47.322,39.9,15.04,2.53,0.26,0.64,0.73,-0.8,-0.28,-0.95,20.32,18.06,-3.09,0.3,0.34,0.86,-1.37,1.21,-0.16
1900-01-01 18:17:47.368,39.47,15.04,2.54,0.26,0.64,0.73,-0.88,-0.18,-1.51,20.5,17.98,-3.13,0.3,0.34,0.86,-1.31,1.4,-0.1
1900-01-01 18:17:47.463,39.61,14.9,2.47,0.26,0.64,0.72,-1.6,0.25,-0.92,20.51,17.79,-3.15,0.3,0.34,0.86,-1.59,1.4,0.16
1900-01-01 18:17:47.558,39.46,15.05,2.49,0.26,0.64,0.73,-0.82,-0.39,-1.28,20.55,17.98,-3.13,0.3,0.34,0.86,-1.31,1.38,-0.09
1900-01-01 18:17:47.604,39.17,14.82,2.45,0.26,0.63,0.73,-0.93,-0.08,-1.18,20.16,17.86,-3.16,0.3,0.33,0.86,-1.24,1.47,0.12
1900-01-01 18:17:47.698,39.6,14.82,2.43,0.26,0.64,0.73,-0.76,-0.22,-1.13,20.65,17.84,-3.15,0.3,0.34,0.86,-1.1,1.38,0.28
1900-01-01 18:17:47.793,39.24,15.11,2.41,0.26,0.63,0.73,-0.7,-0.18,-1.43,20.37,18.12,-3.11,0.3,0.34,0.86,-1.24,1.37,-0.03
1900-01-01 18:17:47.840,39.44,14.86,2.35,0.26,0.64,0.73,-0.92,-0.23,-1.19,20.53,17.82,-3.12,0.3,0.34,0.86,-1.44,1.31,-0.08
1900-01-01 18:17:47.934,39.24,14.67,2.33,0.25,0.63,0.73,-1.14,-0.15,-1.3,20.22,17.87,-3.14,0.3,0.34,0.86,-1.52,1.52,0.0
1900-01-01 18:17:47.980,39.7,14.55,2.29,0.25,0.64,0.73,-6.15,-1.38,-1.01,20.61,17.88,-3.15,0.3,0.34,0.86,-1.04,1.99,-1.02
1900-01-01 18:17:48.074,38.16,14.96,2.29,0.26,0.62,0.75,-5.32,-1.8,-0.73,20.43,17.46,-3.32,0.29,0.34,0.87,-0.75,2.19,-0.82
1900-01-01 18:17:48.169,37.48,14.72,2.34,0.25,0.61,0.75,-1.6,-0.12,-0.6,20.35,17.33,-3.45,0.29,0.34,0.86,-1.23,1.6,0.08
1900-01-01 18:17:48.216,37.8,14.87,2.41,0.26,0.61,0.74,0.56,0.07,-0.57,20.41,17.51,-3.45,0.29,0.34,0.86,-0.82,1.02,0.9
1900-01-01 18:17:48.310,38.05,14.8,2.48,0.26,0.62,0.75,1.02,-0.37,-0.91,20.55,17.37,-3.32,0.29,0.34,0.86,-2.08,0.93,0.55
1900-01-01 18:17:48.404,37.99,14.77,2.5,0.26,0.62,0.75,0.67,-0.31,-1.13,20.41,17.62,-3.24,0.29,0.34,0.86,-1.75,0.99,0.25
1900-01-01 18:17:48.452,38.07,15.1,2.49,0.26,0.62,0.74,0.4,-0.27,-1.07,20.1,18.01,-3.21,0.3,0.33,0.86,-1.38,0.9,0.18
1900-01-01 18:17:48.546,38.64,14.71,2.48,0.25,0.63,0.74,0.08,-0.15,-1.02,20.59,17.48,-3.2,0.29,0.34,0.86,-1.57,0.66,0.16
1900-01-01 18:17:48.593,38.25,14.83,2.49,0.26,0.62,0.74,0.45,-0.39,-1.24,20.16,18.04,-3.18,0.3,0.33,0.86,-1.09,1.31,0.05
1900-01-01 18:17:48.687,38.95,14.73,2.46,0.26,0.63,0.74,1.72,0.02,-2.06,20.82,17.5,-3.18,0.29,0.35,0.86,-1.07,1.53,0.07
1900-01-01 18:17:48.781,38.12,14.76,2.3,0.25,0.62,0.74,0.49,0.76,-1.02,20.28,17.93,-3.18,0.3,0.34,0.86,-0.88,1.67,0.99
1900-01-01 18:17:48.828,39.24,14.89,2.31,0.26,0.63,0.73,0.24,1.6,0.53,20.16,17.86,-3.04,0.3,0.34,0.86,-1.73,1.26,1.33
1900-01-01 18:17:48.923,40.17,14.07,2.54,0.24,0.64,0.72,1.17,0.78,-1.18,20.22,17.59,-2.84,0.29,0.33,0.86,-1.47,1.24,0.24
1900-01-01 18:17:48.970,39.84,14.59,2.52,0.25,0.65,0.73,1.09,-0.27,-2.76,20.16,18.01,-2.82,0.3,0.34,0.86,-0.77,1.59,-0.34
1900-01-01 18:17:49.062,39.57,13.73,2.26,0.24,0.64,0.74,0.0,0.6,-4.57,20.29,17.71,-2.88,0.3,0.34,0.86,-0.45,2.14,-0.1
1900-01-01 18:17:49.157,40.05,13.64,1.72,0.24,0.65,0.74,-5.87,-1.94,-4.57,20.66,17.78,-2.9,0.3,0.34,0.86,-0.72,2.24,0.33
1900-01-01 18:17:49.205,39.61,12.88,1.19,0.22,0.64,0.74,-3.57,3.67,-5.21,20.49,17.46,-2.86,0.29,0.34,0.86,-0.79,2.56,0.24
1900-01-01 18:17:49.297,39.48,12.47,0.55,0.21,0.63,0.74,-3.39,1.37,-4.41,20.83,17.28,-2.83,0.29,0.35,0.86,-1.05,2.44,0.31
1900-01-01 18:17:49.392,38.61,12.35,0.04,0.21,0.61,0.74,-1.97,2.97,-3.68,20.68,17.14,-2.79,0.29,0.34,0.86,-1.6,1.31,-0.32
1900-01-01 18:17:49.439,39.14,11.52,-0.36,0.2,0.63,0.74,-4.07,1.66,-1.12,20.79,17.32,-2.85,0.29,0.35,0.86,-1.9,1.23,0.17
1900-01-01 18:17:49.533,38.38,11.05,-0.38,0.19,0.62,0.76,-2.75,1.86,-2.61,20.25,16.71,-2.83,0.28,0.33,0.86,-1.5,0.14,0.69
1900-01-01 18:17:49.580,37.94,10.62,-0.62,0.18,0.61,0.76,-1.76,0.05,-2.02,20.41,16.87,-2.73,0.28,0.34,0.86,-1.21,1.47,0.15
1900-01-01 18:17:49.673,38.26,10.69,-0.77,0.19,0.63,0.78,-0.82,0.21,-3.07,20.54,17.21,-2.72,0.29,0.34,0.86,-0.55,1.51,-0.26
1900-01-01 18:17:49.766,38.04,10.58,-1.08,0.18,0.62,0.76,-0.49,0.66,-5.04,20.91,17.47,-2.77,0.29,0.35,0.86,-1.07,1.44,-0.17
1900-01-01 18:17:49.814,37.81,9.06,-1.69,0.15,0.6,0.75,-2.38,-0.24,-1.52,20.3,16.74,-2.8,0.28,0.34,0.86,-1.5,0.92,0.16
1900-01-01 18:17:49.908,38.01,10.16,-1.76,0.18,0.62,0.77,-0.2,-1.69,-0.44,20.3,17.83,-2.79,0.3,0.34,0.87,-1.29,0.31,-0.08
1900-01-01 18:17:50.001,37.84,9.54,-1.67,0.17,0.61,0.77,0.65,-0.18,-2.53,20.52,17.35,-2.81,0.29,0.34,0.86,-1.37,0.76,-0.48
1900-01-01 18:17:50.049,38.21,9.73,-1.9,0.17,0.62,0.77,-0.69,0.68,-1.78,20.45,17.46,-2.89,0.29,0.34,0.86,-1.12,1.44,-0.03
1900-01-01 18:17:50.142,38.49,9.12,-2.01,0.16,0.62,0.76,1.25,0.06,-3.62,20.57,17.06,-2.9,0.28,0.34,0.86,-0.85,1.26,-0.53
1900-01-01 18:17:50.190,38.35,9.34,-2.4,0.16,0.62,0.76,0.62,-0.14,-3.27,20.76,17.27,-2.99,0.29,0.34,0.86,-1.06,1.17,-0.38
1900-01-01 18:17:50.282,38.63,9.06,-2.74,0.16,0.62,0.76,-0.46,-0.4,-2.38,20.43,17.34,-3.06,0.29,0.34,0.86,-1.19,0.99,-0.34
1900-01-01 18:17:50.377,38.8,8.79,-2.95,0.15,0.62,0.76,-0.31,-0.66,-2.36,20.91,17.32,-3.12,0.29,0.35,0.86,-1.21,0.77,-0.45
1900-01-01 18:17:50.423,38.68,8.92,-3.15,0.15,0.62,0.76,-0.63,-0.36,-1.81,20.64,17.56,-3.2,0.29,0.34,0.86,-1.4,0.85,-0.27
1900-01-01 18:17:50.518,38.66,8.24,-3.27,0.14,0.62,0.76,-0.68,0.18,-0.93,20.49,17.14,-3.25,0.29,0.34,0.86,-1.12,1.15,0.21
1900-01-01 18:17:50.612,38.75,8.92,-3.25,0.15,0.62,0.76,-1.22,0.07,-1.15,20.88,17.79,-3.22,0.3,0.35,0.86,-1.24,1.21,0.08
1900-01-01 18:17:50.657,38.74,8.43,-3.27,0.14,0.62,0.76,0.2,-0.56,-0.78,20.89,17.28,-3.22,0.29,0.35,0.86,-1.34,1.12,0.05
1900-01-01 18:17:50.753,38.62,8.7,-3.23,0.15,0.62,0.76,0.24,-1.21,0.62,20.31,17.67,-3.22,0.29,0.34,0.86,-1.14,0.64,0.49
1900-01-01 18:17:50.801,39.03,8.83,-2.97,0.15,0.63,0.77,0.7,-0.63,-0.32,20.83,17.43,-3.16,0.29,0.35,0.86,-1.27,0.89,0.02
1900-01-01 18:17:50.893,38.84,9.31,-2.86,0.16,0.63,0.77,0.69,-0.82,0.31,20.73,17.65,-3.16,0.29,0.34,0.86,-0.95,1.35,0.55
1900-01-01 18:17:50.987,39.05,9.27,-2.66,0.16,0.62,0.75,-0.09,-0.04,0.37,20.57,17.82,-3.09,0.3,0.34,0.86,-1.18,1.0,0.5
1900-01-01 18:17:51.034,39.72,9.59,-2.44,0.17,0.64,0.75,0.08,-0.72,0.31,20.53,18.08,-3.02,0.3,0.34,0.86,-1.49,0.85,0.15
1900-01-01 18:17:51.129,39.13,9.24,-2.24,0.16,0.63,0.76,-0.15,-0.12,-0.95,20.31,17.68,-3.0,0.29,0.34,0.86,-1.79,0.98,-0.22
1900-01-01 18:17:51.177,39.39,9.16,-2.23,0.16,0.63,0.75,-1.24,0.02,-1.04,20.67,17.57,-3.05,0.29,0.34,0.86,-1.22,1.28,0.02
1900-01-01 18:17:51.272,39.14,9.71,-2.22,0.17,0.63,0.75,-0.24,-0.14,-1.74,20.86,17.94,-3.05,0.3,0.35,0.86,-1.27,1.15,-0.24
1900-01-01 18:17:51.364,39.01,9.43,-2.33,0.16,0.63,0.76,-0.86,-0.09,-0.94,20.71,17.8,-3.1,0.3,0.34,0.86,-1.51,1.17,-0.05
1900-01-01 18:17:51.412,39.16,9.2,-2.32,0.16,0.63,0.75,-0.83,0.25,-1.29,20.59,17.63,-3.11,0.29,0.34,0.86,-1.3,1.4,0.0
1900-01-01 18:17:51.505,39.34,9.46,-2.35,0.16,0.63,0.75,-0.55,-0.4,-1.18,20.83,17.77,-3.12,0.3,0.35,0.86,-1.26,1.1,-0.21
1900-01-01 18:17:51.600,38.98,9.12,-2.38,0.16,0.63,0.76,-0.21,-0.54,-1.27,20.58,17.69,-3.16,0.29,0.34,0.86,-1.29,1.07,-0.15
1900-01-01 18:17:51.648,39.26,9.35,-2.41,0.16,0.63,0.76,-0.46,-0.44,-0.76,20.8,17.82,-3.19,0.3,0.35,0.86,-1.14,1.28,0.15
1900-01-01 18:17:51.741,39.05,9.36,-2.37,0.16,0.62,0.75,-0.14,-0.08,-1.12,20.66,17.71,-3.18,0.3,0.34,0.86,-1.27,1.31,0.07
1900-01-01 18:17:51.788,39.21,9.5,-2.38,0.16,0.63,0.75,-0.6,-0.34,-0.69,20.48,17.99,-3.18,0.3,0.34,0.86,-1.28,1.26,0.1
1900-01-01 18:17:51.884,39.09,9.35,-2.33,0.16,0.63,0.76,-0.44,-0.33,-1.06,20.65,17.89,-3.17,0.3,0.34,0.86,-1.27,1.15,-0.04
1900-01-01 18:17:51.978,39.06,9.39,-2.34,0.16,0.63,0.76,-0.69,-0.15,-0.87,20.53,17.77,-3.19,0.3,0.34,0.86,-1.38,1.29,0.06
1900-01-01 18:17:52.025,39.24,9.45,-2.31,0.16,0.63,0.75,-0.7,-0.27,-0.9,20.57,17.88,-3.18,0.3,0.34,0.86,-1.22,1.34,0.15
1900-01-01 18:17:52.118,39.48,9.4,-2.29,0.16,0.63,0.75,-0.44,-0.3,-1.14,20.71,17.8,-3.17,0.3,0.34,0.86,-1.31,1.25,-0.1
1900-01-01 18:17:52.164,39.2,9.26,-2.3,0.16,0.63,0.75,-0.51,-0.38,-1.0,20.7,17.86,-3.19,0.3,0.34,0.86,-1.35,1.12,-0.02
1900-01-01 18:17:52.259,39.47,9.26,-2.3,0.16,0.63,0.75,-0.63,-0.34,-1.16,20.72,17.65,-3.21,0.29,0.34,0.86,-1.33,1.24,-0.11
1900-01-01 18:17:52.352,39.28,9.43,-2.32,0.16,0.63,0.75,-0.5,-0.24,-1.15,20.73,17.87,-3.23,0.3,0.34,0.86,-1.23,1.27,-0.01
1900-01-01 18:17:52.399,39.33,9.18,-2.33,0.16,0.63,0.75,-0.45,-0.22,-1.02,20.82,17.73,-3.24,0.3,0.34,0.86,-1.31,1.24,0.01
1900-01-01 18:17:52.494,39.21,9.31,-2.33,0.16,0.63,0.76,-0.71,-0.06,-1.18,20.5,17.9,-3.25,0.3,0.34,0.86,-1.31,1.4,-0.03
1900-01-01 18:17:52.588,39.27,9.26,-2.35,0.16,0.63,0.75,-0.99,-0.17,-1.14,20.69,17.73,-3.26,0.3,0.34,0.86,-1.21,1.23,-0.05
1900-01-01 18:17:52.635,39.37,9.25,-2.37,0.16,0.63,0.75,-0.71,-0.42,-1.19,20.8,17.94,-3.28,0.3,0.35,0.86,-1.32,1.18,-0.05
1900-01-01 18:17:52.727,39.1,9.04,-2.39,0.16,0.63,0.76,-1.06,-0.38,-0.91,20.44,17.82,-3.29,0.3,0.34,0.86,-1.41,1.18,0.03
1900-01-01 18:17:52.776,39.33,9.16,-2.37,0.16,0.63,0.76,-1.13,-0.22,-1.15,20.74,17.81,-3.3,0.3,0.34,0.86,-1.29,1.38,0.01
1900-01-01 18:17:52.870,39.17,9.11,-2.39,0.16,0.63,0.75,-0.28,-0.61,-1.18,20.67,17.75,-3.3,0.3,0.34,0.86,-1.24,1.24,-0.11
1900-01-01 18:17:52.963,38.98,9.1,-2.41,0.16,0.63,0.76,-0.26,-0.32,-1.05,20.66,17.77,-3.33,0.3,0.34,0.86,-1.21,1.22,0.0
1900-01-01 18:17:53.011,39.16,9.23,-2.41,0.16,0.63,0.76,-0.39,-0.15,-1.21,20.75,17.84,-3.34,0.3,0.34,0.86,-1.21,1.29,-0.13
1900-01-01 18:17:53.103,39.23,9.23,-2.44,0.16,0.63,0.76,-0.63,-0.54,-0.95,20.87,17.7,-3.37,0.3,0.35,0.86,-1.18,1.28,0.05
1900-01-01 18:17:53.197,39.38,9.11,-2.42,0.16,0.63,0.75,-0.81,-0.57,-1.21,20.51,17.9,-3.37,0.3,0.34,0.86,-1.12,1.27,-0.06
1900-01-01 18:17:53.244,39.18,9.08,-2.45,0.16,0.63,0.75,0.11,-0.61,-1.06,20.69,17.6,-3.38,0.29,0.34,0.86,-1.04,0.99,-0.15
1900-01-01 18:17:53.339,39.23,9.16,-2.45,0.16,0.63,0.76,0.38,-0.68,-0.64,20.78,17.86,-3.42,0.3,0.34,0.86,-0.91,1.05,0.22
1900-01-01 18:17:53.385,39.13,8.98,-2.39,0.16,0.63,0.75,0.54,-0.33,-0.4,20.33,17.9,-3.39,0.3,0.34,0.86,-0.77,1.15,0.35
1900-01-01 18:17:53.478,39.92,9.68,-2.29,0.17,0.64,0.75,0.05,0.04,0.34,20.88,18.48,-3.35,0.31,0.35,0.86,-1.18,1.27,0.8
1900-01-01 18:17:53.572,39.74,9.22,-2.08,0.16,0.64,0.75,0.44,0.08,-0.59,20.43,17.89,-3.23,0.3,0.34,0.86,-1.43,1.32,0.26
1900-01-01 18:17:53.619,39.87,9.1,-2.02,0.16,0.64,0.75,-0.05,0.36,-0.71,21.29,17.71,-3.2,0.29,0.35,0.85,-1.27,1.47,0.41
1900-01-01 18:17:53.713,39.97,9.65,-1.96,0.17,0.64,0.74,-0.65,0.11,-0.66,21.28,17.84,-3.15,0.3,0.35,0.85,-1.22,1.39,0.27
1900-01-01 18:17:53.809,39.78,9.41,-1.91,0.16,0.64,0.75,-0.13,-0.4,-1.41,20.97,17.78,-3.12,0.3,0.35,0.86,-1.2,1.16,-0.28
1900-01-01 18:17:53.854,39.54,9.45,-1.96,0.16,0.64,0.75,-1.47,-0.35,-1.44,20.85,17.91,-3.17,0.3,0.35,0.86,-1.2,1.39,-0.23
1900-01-01 18:17:53.948,39.88,9.32,-2.02,0.16,0.64,0.75,-0.73,-0.4,-1.08,20.77,18.08,-3.21,0.3,0.35,0.86,-1.54,1.29,-0.07
1900-01-01 18:17:53.996,39.58,8.88,-2.03,0.15,0.63,0.75,-1.47,-0.11,-1.07,20.32,17.81,-3.23,0.3,0.34,0.86,-1.53,1.31,-0.01
1900-01-01 18:17:54.090,39.53,9.18,-2.04,0.16,0.63,0.75,-1.3,-0.18,-1.6,21.07,17.96,-3.24,0.3,0.35,0.86,-1.4,1.18,-0.18
1900-01-01 18:17:54.183,39.59,9.27,-2.12,0.16,0.64,0.75,-0.4,-0.79,-0.98,20.85,17.83,-3.28,0.3,0.35,0.86,-1.47,1.06,-0.1
1900-01-01 18:17:54.232,39.08,8.79,-2.11,0.15,0.63,0.76,-0.44,-0.28,-1.08,20.78,17.68,-3.3,0.29,0.34,0.86,-1.37,1.2,0.04
1900-01-01 18:17:54.324,39.61,9.5,-2.12,0.17,0.64,0.75,-1.51,-0.02,-0.51,21.09,18.08,-3.3,0.3,0.35,0.86,-1.36,1.39,0.27
1900-01-01 18:17:54.418,39.47,8.89,-2.04,0.15,0.63,0.75,-0.22,-0.58,-1.2,20.52,17.64,-3.27,0.29,0.34,0.86,-1.31,1.1,-0.18
1900-01-01 18:17:54.466,39.18,9.19,-2.06,0.16,0.63,0.76,-0.77,-0.53,-1.11,20.69,18.1,-3.3,0.3,0.34,0.86,-1.27,1.21,-0.1
1900-01-01 18:17:54.560,39.59,8.83,-2.07,0.15,0.64,0.75,-0.57,-0.22,-1.21,20.73,17.81,-3.33,0.3,0.34,0.86,-1.14,1.31,0.02
1900-01-01 18:17:54.607,39.13,9.29,-2.1,0.16,0.63,0.75,0.34,0.02,-1.59,20.78,17.92,-3.33,0.3,0.35,0.86,-1.18,1.52,-0.08
1900-01-01 18:17:54.700,39.83,8.8,-2.18,0.15,0.64,0.75,-0.62,-0.1,-0.78,21.24,17.62,-3.35,0.29,0.35,0.86,-1.33,1.27,0.18
1900-01-01 18:17:54.794,39.01,9.03,-2.14,0.16,0.62,0.75,-0.38,-0.18,-1.29,20.21,17.76,-3.33,0.29,0.33,0.86,-1.34,1.37,-0.27
1900-01-01 18:17:54.840,39.59,8.55,-2.18,0.15,0.63,0.75,-0.56,-0.48,-0.91,20.75,17.57,-3.38,0.29,0.34,0.86,-1.24,0.99,0.11
1900-01-01 18:17:54.934,39.4,9.59,-2.16,0.17,0.64,0.75,-0.47,-0.2,-0.98,20.93,18.17,-3.37,0.3,0.35,0.86,-1.31,1.37,0.05
1900-01-01 18:17:55.029,39.28,8.88,-2.15,0.15,0.63,0.75,-0.75,-0.02,-0.6,20.44,17.78,-3.38,0.3,0.34,0.86,-1.4,1.07,0.07
1900-01-01 18:17:55.075,39.45,8.95,-2.09,0.16,0.63,0.75,-0.56,-0.4,-0.76,21.0,17.83,-3.37,0.3,0.35,0.86,-1.21,1.25,0.16
1900-01-01 18:17:55.168,39.21,9.27,-2.04,0.16,0.63,0.76,0.05,-0.45,-1.07,20.8,17.73,-3.36,0.3,0.34,0.86,-1.51,1.13,-0.15
1900-01-01 18:17:55.215,39.39,8.82,-2.05,0.15,0.63,0.75,-0.85,-0.16,-0.84,21.05,17.62,-3.39,0.29,0.35,0.86,-1.17,1.3,0.22
1900-01-01 18:17:55.309,39.4,9.5,-2.02,0.16,0.63,0.75,-0.95,0.09,-1.01,20.88,18.05,-3.36,0.3,0.35,0.86,-1.28,1.46,0.1
1900-01-01 18:17:55.403,39.67,8.76,-2.01,0.15,0.63,0.75,0.26,-0.47,-1.16,20.91,17.76,-3.36,0.3,0.35,0.86,-1.21,1.15,-0.06
1900-01-01 18:17:55.449,39.48,9.1,-2.03,0.16,0.64,0.76,-0.74,-0.4,-1.6,21.4,17.92,-3.37,0.3,0.36,0.86,-1.05,1.54,-0.17
1900-01-01 18:17:55.543,39.3,9.26,-2.12,0.16,0.63,0.76,-1.35,-0.08,-1.77,21.0,18.2,-3.41,0.3,0.35,0.86,-1.51,1.6,0.18
1900-01-01 18:17:55.637,39.2,8.9,-2.23,0.15,0.62,0.75,-2.79,-0.05,-0.84,20.81,17.58,-3.39,0.29,0.34,0.86,-1.7,1.15,0.05
1900-01-01 18:17:55.685,39.21,9.19,-2.2,0.16,0.63,0.76,-0.56,-0.82,-1.92,21.17,17.9,-3.39,0.3,0.35,0.86,-1.22,1.26,-0.4
1900-01-01 18:17:55.777,38.85,8.71,-2.33,0.15,0.62,0.76,-0.21,-0.9,-1.86,20.93,17.77,-3.46,0.3,0.35,0.86,-1.17,1.05,-0.31
1900-01-01 18:17:55.823,38.71,8.91,-2.46,0.15,0.63,0.76,-0.66,-0.18,-1.05,21.0,17.76,-3.52,0.3,0.35,0.86,-1.34,0.97,0.06
1900-01-01 18:17:55.917,39.59,8.37,-2.46,0.14,0.63,0.75,-1.12,0.06,-0.33,21.2,17.47,-3.52,0.29,0.35,0.86,-1.12,1.4,0.54
1900-01-01 18:17:56.012,39.25,8.84,-2.35,0.15,0.63,0.75,-0.22,-0.38,-0.95,20.94,17.82,-3.44,0.3,0.35,0.86,-1.21,1.27,0.02
1900-01-01 18:17:56.059,39.12,8.9,-2.34,0.15,0.63,0.76,-0.6,-0.45,-0.34,20.8,18.15,-3.45,0.3,0.35,0.86,-1.31,1.13,0.28
1900-01-01 18:17:56.152,39.02,8.85,-2.23,0.15,0.63,0.76,-0.19,-0.37,-1.05,20.51,17.7,-3.41,0.3,0.34,0.86,-1.33,1.19,-0.23
1900-01-01 18:17:56.245,39.02,8.99,-2.24,0.16,0.63,0.76,-0.22,-0.55,-0.95,20.79,18.2,-3.46,0.3,0.34,0.86,-0.99,1.36,0.15
1900-01-01 18:17:56.292,39.26,8.99,-2.22,0.15,0.63,0.75,0.21,0.02,-0.75,20.89,17.72,-3.44,0.29,0.35,0.86,-1.4,1.32,0.22
1900-01-01 18:17:56.387,38.94,8.93,-2.18,0.15,0.62,0.76,-0.38,-0.15,-0.52,20.58,17.92,-3.42,0.3,0.34,0.86,-1.15,1.15,0.15
1900-01-01 18:17:56.433,39.22,9.2,-2.1,0.16,0.63,0.76,0.34,-0.39,-0.98,20.8,18.09,-3.4,0.3,0.35,0.86,-1.21,1.28,-0.06
1900-01-01 18:17:56.527,39.32,8.85,-2.09,0.15,0.63,0.75,0.21,-0.25,-1.47,21.01,17.81,-3.42,0.3,0.35,0.86,-1.11,1.31,-0.16
1900-01-01 18:17:56.620,39.52,8.79,-2.16,0.15,0.63,0.75,-0.88,0.07,-0.91,20.74,17.95,-3.45,0.3,0.34,0.86,-1.17,1.42,0.15
1900-01-01 18:17:56.668,40.44,8.28,-2.14,0.14,0.65,0.75,-0.85,-0.15,-1.31,21.24,17.44,-3.44,0.29,0.35,0.86,-1.16,1.24,-0.14
1900-01-01 18:17:56.762,40.14,8.59,-2.18,0.15,0.65,0.75,-0.88,-0.38,-0.97,20.55,17.88,-3.47,0.3,0.34,0.86,-1.59,1.24,-0.14
1900-01-01 18:17:56.855,39.71,8.17,-2.17,0.14,0.64,0.75,0.5,-0.39,-1.65,20.67,17.38,-3.5,0.29,0.34,0.86,-1.15,1.14,-0.41
1900-01-01 18:17:56.902,39.37,8.87,-2.26,0.15,0.63,0.76,-0.89,-0.15,-1.09,20.77,18.0,-3.57,0.3,0.35,0.86,-1.39,1.33,-0.22
1900-01-01 18:17:56.996,39.4,8.32,-2.27,0.14,0.63,0.75,-0.07,-0.22,-1.74,20.51,17.53,-3.61,0.29,0.34,0.86,-1.22,1.18,-0.34
1900-01-01 18:17:57.042,39.11,9.23,-2.38,0.16,0.63,0.76,-0.64,-0.27,-1.23,20.95,18.29,-3.67,0.31,0.35,0.86,-1.15,1.41,0.02
1900-01-01 18:17:57.136,39.16,8.65,-2.41,0.15,0.63,0.76,-0.73,0.13,-1.4,20.85,17.6,-3.68,0.29,0.34,0.85,-1.37,1.38,-0.07
1900-01-01 18:17:57.230,39.62,8.52,-2.46,0.15,0.64,0.75,-0.78,-0.36,-0.69,20.8,18.0,-3.69,0.3,0.34,0.86,-1.27,1.21,0.14
1900-01-01 18:17:57.276,39.37,8.66,-2.41,0.15,0.63,0.76,-0.27,-0.33,-1.18,20.87,17.92,-3.68,0.3,0.35,0.86,-1.37,1.24,-0.06
1900-01-01 18:17:57.370,39.26,8.58,-2.43,0.15,0.63,0.75,-0.34,-0.12,-1.03,20.82,17.71,-3.7,0.3,0.35,0.86,-1.22,1.34,0.04
1900-01-01 18:17:57.467,39.28,8.61,-2.43,0.15,0.63,0.75,-0.47,-0.18,-0.91,20.83,17.83,-3.7,0.3,0.34,0.86,-1.3,1.24,-0.01
1900-01-01 18:17:57.511,39.24,8.67,-2.41,0.15,0.63,0.76,-0.73,-0.37,-0.66,20.95,18.08,-3.71,0.3,0.35,0.86,-1.22,1.21,0.11
1900-01-01 18:17:57.605,39.09,8.57,-2.35,0.15,0.63,0.76,-0.53,-0.4,-0.77,20.25,17.87,-3.7,0.3,0.34,0.86,-1.4,1.11,-0.09
1900-01-01 18:17:57.653,39.19,7.98,-2.31,0.14,0.63,0.76,-0.64,0.03,-1.34,20.7,17.54,-3.73,0.29,0.34,0.86,-1.15,1.18,0.06
1900-01-01 18:17:57.746,39.31,9.53,-2.35,0.17,0.63,0.76,-0.56,0.0,-1.15,21.48,18.33,-3.72,0.31,0.36,0.86,-1.18,1.57,0.07
1900-01-01 18:17:57.841,39.26,8.08,-2.37,0.14,0.62,0.75,-0.08,-0.11,-1.11,20.71,17.28,-3.72,0.29,0.34,0.86,-1.59,1.05,-0.08
1900-01-01 18:17:57.888,39.16,8.67,-2.38,0.15,0.63,0.76,-0.9,-0.32,-0.93,20.94,17.91,-3.74,0.3,0.35,0.86,-1.08,1.27,0.03
1900-01-01 18:17:57.981,39.16,8.77,-2.37,0.15,0.63,0.76,-0.36,-0.19,-1.46,20.77,18.04,-3.75,0.3,0.34,0.86,-1.31,1.31,-0.19
1900-01-01 18:17:58.076,39.19,8.47,-2.43,0.15,0.63,0.76,-0.82,0.02,-1.18,20.74,17.73,-3.79,0.3,0.34,0.86,-1.25,1.37,0.04
1900-01-01 18:17:58.122,39.16,8.87,-2.45,0.15,0.63,0.76,-0.38,-0.28,-1.34,20.65,17.91,-3.79,0.3,0.34,0.86,-1.37,1.25,-0.15
1900-01-01 18:17:58.216,38.88,8.22,-2.5,0.14,0.62,0.76,-0.52,-0.24,-1.37,20.64,17.73,-3.82,0.29,0.34,0.86,-1.12,1.27,-0.07
1900-01-01 18:17:58.264,39.18,8.79,-2.55,0.15,0.63,0.76,-0.56,-0.28,-1.24,21.07,18.06,-3.84,0.3,0.35,0.86,-1.19,1.24,-0.11
1900-01-01 18:17:58.357,39.2,8.31,-2.58,0.14,0.63,0.76,-0.21,-0.37,-1.27,20.9,17.54,-3.86,0.29,0.35,0.86,-1.19,1.1,-0.18
1900-01-01 18:17:58.451,39.13,8.76,-2.61,0.15,0.63,0.76,-0.5,-0.49,-1.02,20.87,18.11,-3.9,0.3,0.35,0.86,-1.17,1.17,0.02
1900-01-01 18:17:58.498,39.3,8.17,-2.61,0.14,0.63,0.76,-0.53,-0.28,-0.96,20.72,17.57,-3.9,0.29,0.34,0.86,-1.15,1.13,0.0
1900-01-01 18:17:58.592,39.42,8.65,-2.6,0.15,0.63,0.75,-0.33,-0.49,-0.92,21.02,18.17,-3.91,0.3,0.35,0.86,-0.96,1.1,-0.02
1900-01-01 18:17:58.686,39.4,8.71,-2.58,0.15,0.63,0.75,-0.18,-0.31,-0.85,20.98,18.07,-3.92,0.3,0.35,0.86,-1.27,1.2,0.03
1900-01-01 18:17:58.732,39.37,8.23,-2.55,0.14,0.63,0.75,-0.5,-0.05,-1.02,20.96,17.69,-3.93,0.29,0.35,0.86,-1.25,1.24,0.03
1900-01-01 18:17:58.828,39.81,8.71,-2.55,0.15,0.64,0.75,-0.59,-0.21,-1.02,21.17,18.04,-3.93,0.3,0.35,0.86,-1.2,1.24,0.02
1900-01-01 18:17:58.875,39.64,8.45,-2.55,0.15,0.63,0.75,-0.4,-0.28,-1.05,21.27,17.7,-3.94,0.29,0.35,0.85,-1.34,1.19,-0.06
1900-01-01 18:17:58.968,39.32,8.65,-2.55,0.15,0.63,0.76,-0.53,-0.4,-1.05,20.95,17.97,-3.95,0.3,0.35,0.86,-1.18,1.32,0.0
1900-01-01 18:17:59.064,39.44,8.5,-2.55,0.15,0.63,0.75,-0.81,-0.36,-0.93,21.02,18.09,-3.96,0.3,0.35,0.86,-1.27,1.19,0.05
1900-01-01 18:17:59.110,39.54,8.53,-2.53,0.15,0.63,0.75,-0.69,-0.33,-0.69,20.92,17.96,-3.96,0.3,0.35,0.86,-1.27,1.21,0.13
1900-01-01 18:17:59.202,39.41,8.5,-2.48,0.15,0.63,0.75,-0.52,-0.22,-0.88,20.72,17.87,-3.95,0.3,0.34,0.86,-1.37,1.21,-0.02
1900-01-01 18:17:59.297,39.37,8.46,-2.46,0.15,0.63,0.76,-0.69,-0.13,-0.93,20.97,17.95,-3.97,0.3,0.35,0.86,-1.29,1.31,0.03
1900-01-01 18:17:59.344,39.4,8.59,-2.44,0.15,0.63,0.75,-0.6,-0.11,-1.17,20.96,18.0,-3.97,0.3,0.35,0.86,-1.4,1.2,-0.05
1900-01-01 18:17:59.437,39.5,8.48,-2.46,0.15,0.63,0.75,-0.67,-0.06,-0.95,21.27,17.89,-3.99,0.3,0.35,0.86,-1.37,1.27,0.1
1900-01-01 18:17:59.484,39.55,8.81,-2.44,0.15,0.64,0.76,-0.6,-0.21,-0.74,21.52,18.14,-3.98,0.31,0.36,0.86,-1.44,1.31,0.23
1900-01-01 18:17:59.578,39.04,8.03,-2.4,0.14,0.62,0.75,-0.15,-0.01,-1.05,19.89,17.57,-3.95,0.29,0.33,0.85,-1.54,1.34,-0.21
1900-01-01 18:17:59.672,39.36,8.0,-2.4,0.14,0.63,0.76,-0.48,-0.04,-1.33,21.39,17.51,-3.99,0.29,0.36,0.86,-0.86,1.12,0.07
1900-01-01 18:17:59.719,39.3,9.68,-2.44,0.17,0.63,0.76,-0.3,-0.05,-0.9,21.26,18.46,-3.99,0.31,0.35,0.86,-1.24,1.58,0.02
1900-01-01 18:17:59.813,39.08,7.63,-2.42,0.13,0.62,0.75,-0.38,-0.15,-0.98,20.8,17.15,-4.0,0.28,0.34,0.85,-1.35,1.03,0.1
1900-01-01 18:17:59.907,39.44,9.29,-2.41,0.16,0.64,0.76,-0.85,-0.35,-0.75,21.68,18.39,-3.99,0.31,0.36,0.86,-1.03,1.5,0.15
1900-01-01 18:17:59.954,39.57,8.47,-2.37,0.15,0.64,0.75,-0.73,-0.26,-0.98,20.78,17.92,-3.98,0.3,0.34,0.86,-1.58,1.28,0.03
1900-01-01 18:18:00.049,39.47,7.94,-2.36,0.14,0.63,0.75,-0.73,0.01,-1.21,20.58,17.94,-3.98,0.3,0.34,0.85,-1.35,1.36,0.02
1900-01-01 18:18:00.095,39.55,8.41,-2.39,0.15,0.64,0.76,-0.76,0.27,-1.24,20.94,18.19,-3.99,0.3,0.35,0.86,-1.29,1.38,0.02
1900-01-01 18:18:00.190,39.38,8.33,-2.42,0.14,0.63,0.76,-0.38,0.26,-1.26,20.79,18.06,-3.99,0.3,0.35,0.86,-1.29,1.43,-0.02
1900-01-01 18:18:00.284,39.42,7.95,-2.45,0.14,0.63,0.76,-0.32,0.22,-1.94,20.67,17.7,-4.0,0.29,0.34,0.86,-1.21,1.51,-0.31
1900-01-01 18:18:00.331,39.47,8.0,-2.59,0.14,0.64,0.76,-0.96,0.26,-1.95,20.93,17.95,-4.06,0.3,0.35,0.86,-1.15,1.6,0.0
1900-01-01 18:18:00.424,39.7,7.86,-2.73,0.14,0.63,0.75,-0.9,0.35,-1.89,20.78,17.78,-4.07,0.3,0.34,0.86,-1.37,1.46,-0.08
1900-01-01 18:18:00.471,39.38,7.33,-2.86,0.13,0.63,0.76,-0.37,-0.02,-1.69,20.74,17.81,-4.09,0.3,0.34,0.86,-1.21,1.27,-0.12
1900-01-01 18:18:00.564,39.49,7.48,-2.96,0.13,0.63,0.76,-1.07,0.17,-1.24,20.96,17.91,-4.12,0.3,0.35,0.86,-1.34,1.34,0.13
1900-01-01 18:18:00.660,39.41,7.3,-2.99,0.13,0.63,0.76,-0.28,0.0,-1.5,20.9,17.64,-4.1,0.29,0.35,0.86,-1.31,1.32,-0.02
1900-01-01 18:18:00.705,39.45,7.37,-3.06,0.13,0.63,0.75,-0.44,-0.42,-0.32,20.88,17.75,-4.11,0.3,0.35,0.86,-1.24,1.02,0.44
1900-01-01 18:18:00.799,39.47,7.65,-2.95,0.13,0.63,0.75,0.73,-0.82,0.07,20.92,17.98,-4.06,0.3,0.35,0.86,-1.31,0.68,0.13
1900-01-01 18:18:00.894,39.53,7.53,-2.78,0.13,0.63,0.75,0.53,-0.69,0.18,21.03,17.68,-4.04,0.29,0.35,0.86,-1.09,0.98,0.23
1900-01-01 18:18:00.941,40.01,8.19,-2.59,0.14,0.64,0.75,0.11,-0.69,0.06,21.33,18.15,-4.02,0.3,0.35,0.86,-1.15,1.21,0.44
1900-01-01 18:18:01.035,40.06,7.88,-2.43,0.14,0.64,0.75,0.11,-0.34,-0.37,21.01,17.64,-3.96,0.29,0.35,0.85,-1.26,1.38,0.16
1900-01-01 18:18:01.081,39.61,8.27,-2.32,0.14,0.63,0.75,1.09,-0.53,-0.5,20.48,18.21,-3.94,0.3,0.34,0.86,-1.07,1.11,0.02
1900-01-01 18:18:01.175,38.93,8.44,-2.24,0.15,0.62,0.76,-1.92,0.52,0.68,21.28,18.15,-3.95,0.3,0.35,0.86,-2.28,0.95,1.09
1900-01-01 18:18:01.269,40.87,8.29,-1.98,0.14,0.64,0.73,-2.03,-0.54,1.56,21.87,18.23,-3.79,0.3,0.36,0.85,-1.73,0.53,0.79
1900-01-01 18:18:01.316,38.67,8.43,-1.58,0.15,0.63,0.77,-2.89,-0.32,1.92,20.05,18.03,-3.68,0.3,0.33,0.86,-2.93,0.09,0.71
1900-01-01 18:18:01.410,40.13,7.91,-1.13,0.14,0.65,0.76,-2.95,-0.83,0.79,19.95,17.61,-3.58,0.29,0.33,0.86,-0.4,2.42,0.59
1900-01-01 18:18:01.504,37.97,9.77,-0.85,0.17,0.62,0.77,-1.29,0.07,-1.18,19.41,18.67,-3.5,0.31,0.32,0.86,-1.35,2.49,-0.22
1900-01-01 18:18:01.552,39.08,9.61,-0.88,0.17,0.64,0.77,-2.46,-0.8,-1.13,21.35,18.51,-3.54,0.31,0.36,0.86,-1.49,1.82,-0.28
1900-01-01 18:18:01.647,37.11,8.21,-0.89,0.14,0.58,0.76,-1.73,2.08,-1.86,19.65,18.18,-3.6,0.3,0.33,0.86,-1.37,1.98,0.06
1900-01-01 18:18:01.693,38.46,8.41,-1.01,0.14,0.62,0.76,-1.53,-0.11,0.59,20.54,17.71,-3.6,0.3,0.34,0.86,-1.27,1.04,0.49
1900-01-01 18:18:01.788,38.64,8.87,-0.77,0.16,0.63,0.78,0.82,-0.69,-2.71,20.63,17.73,-3.53,0.3,0.34,0.86,-1.24,1.66,-0.63
1900-01-01 18:18:01.882,37.94,8.58,-1.02,0.15,0.61,0.76,-0.29,-0.15,-1.47,20.45,17.54,-3.63,0.29,0.34,0.86,-1.23,1.21,-0.02
1900-01-01 18:18:01.929,37.69,9.73,-1.09,0.17,0.61,0.77,0.61,-1.42,-0.79,20.16,18.63,-3.65,0.31,0.34,0.86,-1.47,0.72,-0.24
1900-01-01 18:18:02.023,38.03,8.24,-1.05,0.14,0.61,0.77,0.53,-0.33,-1.21,19.97,17.87,-3.69,0.3,0.33,0.86,-1.35,0.95,-0.2
1900-01-01 18:18:02.070,38.56,8.52,-1.08,0.15,0.62,0.76,-0.73,-0.31,-1.35,20.63,17.81,-3.73,0.3,0.34,0.86,-1.08,0.93,-0.11
1900-01-01 18:18:02.164,38.41,8.99,-1.12,0.16,0.63,0.77,0.28,-0.57,-2.39,20.51,18.21,-3.75,0.3,0.34,0.86,-1.2,1.02,-0.47
1900-01-01 18:18:02.257,38.34,8.37,-1.33,0.14,0.61,0.76,-1.33,-0.27,-1.68,20.57,17.71,-3.83,0.29,0.34,0.86,-1.08,1.29,-0.15
1900-01-01 18:18:02.306,38.76,8.84,-1.43,0.15,0.62,0.76,-0.34,-1.05,-1.06,21.09,18.03,-3.87,0.3,0.35,0.86,-1.17,1.11,-0.02
1900-01-01 18:18:02.398,38.75,8.47,-1.43,0.15,0.63,0.77,-0.27,-1.1,-1.18,20.97,17.86,-3.88,0.3,0.35,0.86,-1.21,1.18,-0.15
1900-01-01 18:18:02.489,38.44,8.47,-1.45,0.15,0.62,0.76,-0.01,-0.69,-1.15,20.58,17.88,-3.91,0.3,0.34,0.86,-1.04,1.32,-0.02
1900-01-01 18:18:02.536,38.71,8.61,-1.47,0.15,0.62,0.76,-0.36,-0.47,-0.46,20.73,17.86,-3.92,0.3,0.34,0.86,-1.31,1.07,0.22
1900-01-01 18:18:02.631,38.89,8.73,-1.38,0.15,0.63,0.77,0.74,-0.6,-0.69,20.76,17.98,-3.9,0.3,0.34,0.86,-1.18,1.11,-0.02
1900-01-01 18:18:02.678,38.74,8.83,-1.33,0.15,0.62,0.76,0.25,-0.29,-1.12,20.63,18.14,-3.91,0.3,0.34,0.86,-1.17,1.31,0.1
1900-01-01 18:18:02.772,39.34,8.63,-1.34,0.15,0.63,0.76,-0.47,-0.45,-0.59,20.96,17.8,-3.9,0.3,0.35,0.86,-1.11,1.23,0.18
1900-01-01 18:18:02.867,38.92,9.06,-1.27,0.16,0.63,0.76,0.13,-0.4,-1.12,20.66,18.24,-3.88,0.3,0.34,0.86,-1.18,1.31,0.03
1900-01-01 18:18:02.914,39.01,8.85,-1.28,0.15,0.62,0.76,-0.17,-0.66,-0.67,20.59,17.9,-3.89,0.3,0.34,0.86,-1.41,0.83,-0.07
1900-01-01 18:18:03.006,39.47,8.77,-1.23,0.15,0.64,0.76,-0.51,-0.73,-1.04,20.73,18.15,-3.9,0.3,0.34,0.86,-1.14,1.1,-0.09
1900-01-01 18:18:03.100,39.09,8.77,-1.23,0.15,0.63,0.76,-0.03,-0.41,-1.92,20.74,18.13,-3.93,0.3,0.34,0.86,-1.32,1.1,-0.31
1900-01-01 18:18:03.147,38.92,8.67,-1.36,0.15,0.63,0.76,-1.18,-0.17,-1.38,20.67,18.04,-3.98,0.3,0.34,0.86,-1.33,1.21,-0.04
1900-01-01 18:18:03.242,39.36,9.02,-1.42,0.16,0.63,0.75,-1.74,-0.18,-1.56,20.96,18.08,-4.0,0.3,0.35,0.86,-1.33,1.26,-0.25
1900-01-01 18:18:03.289,39.14,8.65,-1.5,0.15,0.63,0.75,-0.44,-0.93,-2.15,20.73,18.09,-4.04,0.3,0.34,0.86,-1.38,0.93,-0.73
1900-01-01 18:18:03.383,38.57,8.59,-1.67,0.15,0.62,0.76,-0.14,-0.54,-1.84,20.75,18.01,-4.16,0.3,0.34,0.86,-1.12,1.1,-0.47
1900-01-01 18:18:03.476,38.94,8.83,-1.79,0.15,0.63,0.76,-0.66,-0.58,-0.69,20.85,18.2,-4.24,0.3,0.35,0.86,-1.22,1.05,0.15
1900-01-01 18:18:03.523,39.13,8.5,-1.74,0.15,0.63,0.76,-0.9,0.08,-0.71,20.72,18.16,-4.23,0.3,0.34,0.85,-1.4,1.3,0.18
1900-01-01 18:18:03.617,39.38,8.41,-1.69,0.15,0.63,0.76,-0.33,-0.36,-0.97,20.86,17.9,-4.21,0.3,0.35,0.86,-1.37,1.12,-0.05
1900-01-01 18:18:03.711,39.01,8.73,-1.68,0.15,0.63,0.76,0.26,-0.5,-1.36,20.65,18.24,-4.23,0.3,0.34,0.86,-1.2,1.11,-0.15
1900-01-01 18:18:03.758,39.23,8.62,-1.72,0.15,0.63,0.76,-0.64,-0.15,-0.84,20.96,18.2,-4.26,0.3,0.35,0.86,-1.35,1.21,0.13
1900-01-01 18:18:03.851,39.32,8.56,-1.69,0.15,0.63,0.76,-0.5,-0.24,-0.66,20.89,18.08,-4.25,0.3,0.35,0.86,-1.21,1.39,0.24
1900-01-01 18:18:03.943,39.37,8.55,-1.64,0.15,0.63,0.75,0.08,-0.05,-1.06,20.88,18.02,-4.22,0.3,0.35,0.85,-1.2,1.28,0.11
1900-01-01 18:18:03.991,39.41,8.8,-1.64,0.15,0.63,0.76,-0.95,-0.03,-0.86,20.96,18.21,-4.21,0.3,0.35,0.85,-1.34,1.31,0.03
1900-01-01 18:18:04.085,39.35,8.78,-1.61,0.15,0.63,0.75,-0.21,-0.02,-1.36,20.95,18.33,-4.21,0.31,0.35,0.86,-1.27,1.14,-0.17
1900-01-01 18:18:04.133,39.12,8.42,-1.66,0.15,0.63,0.76,-0.78,-1.08,-1.23,20.78,18.05,-4.25,0.3,0.34,0.86,-1.36,1.26,-0.06
1900-01-01 18:18:04.226,39.2,8.66,-1.69,0.15,0.63,0.76,-0.94,-0.32,-1.14,20.51,18.36,-4.26,0.31,0.34,0.86,-1.28,1.27,-0.05
1900-01-01 18:18:04.319,39.05,8.48,-1.71,0.15,0.63,0.76,-0.34,0.24,-1.28,20.87,18.04,-4.28,0.3,0.35,0.86,-1.38,1.47,-0.05
1900-01-01 18:18:04.366,39.3,8.52,-1.74,0.15,0.63,0.76,-0.97,0.12,-0.63,20.74,18.05,-4.3,0.3,0.34,0.86,-1.4,1.42,0.35
1900-01-01 18:18:04.460,39.24,8.65,-1.68,0.15,0.63,0.76,-0.81,-0.02,-1.11,20.76,18.17,-4.25,0.3,0.34,0.86,-1.37,1.37,0.04
1900-01-01 18:18:04.554,39.26,8.43,-1.69,0.15,0.63,0.75,-0.53,-0.2,-1.17,20.86,17.89,-4.25,0.3,0.34,0.85,-1.47,1.19,-0.15
1900-01-01 18:18:04.601,38.63,8.51,-1.71,0.15,0.62,0.77,-0.76,-0.34,-1.15,20.51,18.24,-4.29,0.3,0.34,0.86,-1.26,1.36,0.06
1900-01-01 18:18:04.693,39.16,8.26,-1.73,0.14,0.63,0.76,-1.16,0.05,-0.79,21.06,17.94,-4.28,0.3,0.35,0.86,-1.4,1.31,0.17
1900-01-01 18:18:04.740,39.13,8.36,-1.69,0.14,0.63,0.76,-0.5,-0.63,-0.84,20.73,17.96,-4.27,0.3,0.34,0.85,-1.37,1.11,-0.05
1900-01-01 18:18:04.835,38.5,8.58,-1.66,0.15,0.62,0.77,-0.59,-0.4,-1.33,20.58,18.23,-4.28,0.3,0.34,0.86,-1.5,0.97,-0.16
1900-01-01 18:18:04.929,39.08,8.37,-1.71,0.15,0.63,0.76,-1.09,-0.13,-0.92,21.13,18.0,-4.32,0.3,0.35,0.86,-1.34,1.25,0.14
1900-01-01 18:18:04.975,39.03,8.43,-1.69,0.15,0.63,0.76,-0.44,-0.13,-1.0,20.08,18.26,-4.3,0.3,0.33,0.85,-1.63,1.27,-0.11
1900-01-01 18:18:05.070,38.43,7.79,-1.68,0.13,0.62,0.76,-0.43,-0.19,-1.69,20.37,17.45,-4.33,0.29,0.33,0.85,-1.1,1.12,-0.27
1900-01-01 18:18:05.164,39.15,9.15,-1.78,0.16,0.64,0.76,-0.84,-0.18,-1.1,21.47,18.6,-4.38,0.31,0.36,0.86,-1.12,1.45,0.17
1900-01-01 18:18:05.211,38.94,8.26,-1.79,0.14,0.62,0.75,-0.2,-0.4,-1.13,20.81,17.84,-4.36,0.3,0.35,0.86,-1.53,1.05,-0.12
1900-01-01 18:18:05.305,38.43,8.21,-1.81,0.14,0.62,0.77,-0.68,-0.45,-0.86,20.44,18.24,-4.39,0.3,0.34,0.86,-1.18,1.25,0.12
1900-01-01 18:18:05.351,39.08,8.17,-1.78,0.14,0.63,0.76,-0.46,-0.21,-0.95,20.85,17.97,-4.38,0.3,0.35,0.86,-1.33,1.21,0.04
1900-01-01 18:18:05.445,39.03,8.2,-1.77,0.14,0.63,0.76,-0.18,-0.34,-0.98,20.85,18.12,-4.38,0.3,0.35,0.86,-1.33,1.27,0.06
1900-01-01 18:18:05.539,38.99,8.36,-1.76,0.14,0.63,0.76,-0.44,-0.31,-0.78,20.75,17.97,-4.38,0.3,0.34,0.86,-1.37,1.16,0.03
1900-01-01 18:18:05.586,39.02,8.48,-1.72,0.15,0.63,0.76,-0.49,-0.31,-0.75,20.52,18.37,-4.39,0.31,0.34,0.86,-1.27,1.22,0.13
1900-01-01 18:18:05.680,38.83,7.95,-1.67,0.14,0.62,0.76,-0.3,-0.19,-1.25,20.62,17.76,-4.37,0.3,0.34,0.86,-1.26,1.17,-0.05
1900-01-01 18:18:05.773,38.79,8.59,-1.71,0.15,0.63,0.77,-0.44,-0.19,-1.11,20.89,18.32,-4.39,0.31,0.35,0.86,-1.09,1.43,-0.02
1900-01-01 18:18:05.821,39.4,8.39,-1.72,0.15,0.63,0.76,-0.55,-0.3,-0.82,21.67,17.78,-4.4,0.3,0.36,0.86,-1.66,1.15,0.25
1900-01-01 18:18:05.916,38.53,8.59,-1.68,0.15,0.62,0.76,-0.07,-0.22,-0.92,20.09,17.94,-4.37,0.3,0.33,0.85,-1.66,1.45,-0.07
1900-01-01 18:18:05.963,38.6,8.0,-1.66,0.14,0.62,0.77,-0.96,-0.47,-0.83,20.46,18.03,-4.39,0.3,0.34,0.86,-1.05,1.05,0.14
1900-01-01 18:18:06.058,39.19,8.74,-1.63,0.15,0.63,0.76,-0.7,-0.39,-1.18,20.57,18.31,-4.38,0.31,0.34,0.86,-1.12,1.3,-0.16
1900-01-01 18:18:06.151,38.92,7.87,-1.65,0.14,0.63,0.77,-0.55,-0.63,-0.92,20.88,18.38,-4.41,0.31,0.35,0.86,-1.11,0.89,0.23
1900-01-01 18:18:06.198,39.39,8.89,-1.64,0.16,0.64,0.76,-0.76,0.01,-0.57,21.14,18.57,-4.39,0.31,0.35,0.86,-1.57,1.6,0.2
1900-01-01 18:18:06.293,38.79,7.27,-1.56,0.12,0.62,0.76,-0.42,-0.28,-0.95,20.01,17.54,-4.36,0.29,0.33,0.85,-1.43,1.22,-0.08
1900-01-01 18:18:06.387,38.9,8.93,-1.55,0.16,0.63,0.77,-0.78,-0.37,-1.09,20.89,18.48,-4.38,0.31,0.35,0.86,-1.19,1.5,0.02
1900-01-01 18:18:06.434,38.84,7.96,-1.56,0.14,0.62,0.76,-0.73,-0.34,-0.95,20.09,18.03,-4.39,0.3,0.33,0.86,-1.41,1.08,-0.09
1900-01-01 18:18:06.526,38.86,8.53,-1.55,0.15,0.63,0.76,-0.65,-0.34,-1.08,20.68,18.15,-4.41,0.3,0.34,0.86,-1.34,1.14,-0.02
1900-01-01 18:18:06.574,38.58,8.33,-1.55,0.14,0.62,0.76,-0.53,-0.49,-1.18,20.26,18.32,-4.42,0.3,0.34,0.86,-1.08,1.44,-0.05
1900-01-01 18:18:06.669,38.75,8.34,-1.57,0.14,0.62,0.76,-0.71,-0.27,-0.9,20.66,18.16,-4.44,0.3,0.34,0.86,-1.3,1.12,0.11
1900-01-01 18:18:06.762,38.84,8.38,-1.55,0.14,0.62,0.76,-0.46,-0.23,-0.98,20.79,18.1,-4.43,0.3,0.35,0.86,-1.21,1.35,-0.01
1900-01-01 18:18:06.810,39.07,8.25,-1.54,0.14,0.63,0.76,-0.45,-0.45,-0.83,20.58,18.15,-4.44,0.3,0.34,0.86,-1.34,1.18,0.07
1900-01-01 18:18:06.902,38.94,8.32,-1.51,0.14,0.63,0.76,-0.49,-0.31,-0.93,20.83,18.04,-4.44,0.3,0.35,0.86,-1.27,1.31,0.06
1900-01-01 18:18:06.951,39.03,8.43,-1.5,0.15,0.63,0.76,-0.61,-0.37,-1.01,20.87,18.24,-4.44,0.3,0.35,0.86,-1.37,1.2,-0.02
1900-01-01 18:18:07.044,39.05,8.29,-1.49,0.14,0.63,0.76,-0.63,-0.26,-0.84,20.9,17.79,-4.45,0.3,0.35,0.86,-1.34,1.27,0.11
1900-01-01 18:18:07.138,38.84,8.34,-1.46,0.14,0.62,0.76,-0.48,-0.33,-1.09,20.48,18.18,-4.44,0.3,0.34,0.86,-1.27,1.27,-0.05
1900-01-01 18:18:07.184,38.93,8.25,-1.47,0.14,0.63,0.76,-0.58,-0.21,-0.9,20.95,18.11,-4.46,0.3,0.35,0.86,-1.35,1.19,0.14
1900-01-01 18:18:07.278,38.92,8.4,-1.45,0.14,0.62,0.76,-0.41,-0.17,-0.99,20.51,18.13,-4.44,0.3,0.34,0.86,-1.29,1.31,0.0
1900-01-01 18:18:07.373,38.92,8.34,-1.44,0.14,0.63,0.76,-0.6,-0.29,-0.62,20.31,18.36,-4.45,0.31,0.34,0.86,-1.29,1.05,0.18
1900-01-01 18:18:07.419,38.81,8.18,-1.38,0.14,0.62,0.76,-0.29,-0.02,-1.05,20.55,17.9,-4.43,0.3,0.34,0.86,-1.31,1.32,0.0
1900-01-01 18:18:07.513,39.06,8.49,-1.38,0.15,0.63,0.76,-0.4,-0.34,-0.76,20.89,18.3,-4.44,0.31,0.35,0.86,-1.34,1.22,0.12
1900-01-01 18:18:07.561,39.42,8.53,-1.34,0.15,0.63,0.76,-0.55,-0.47,-0.6,20.93,18.1,-4.43,0.3,0.35,0.86,-1.43,1.15,0.09
1900-01-01 18:18:07.654,38.91,8.47,-1.27,0.15,0.63,0.76,-0.44,-0.67,-0.84,20.57,18.17,-4.43,0.3,0.34,0.86,-1.31,1.19,-0.05
1900-01-01 18:18:07.749,38.84,8.51,-1.24,0.15,0.62,0.76,-0.57,-0.44,-0.63,20.68,18.22,-4.44,0.3,0.34,0.86,-1.23,1.14,0.14
1900-01-01 18:18:07.797,38.97,8.42,-1.18,0.15,0.63,0.76,-0.92,-0.34,-0.44,20.75,18.08,-4.43,0.3,0.34,0.86,-1.32,1.22,0.11
1900-01-01 18:18:07.890,38.64,8.8,-1.09,0.15,0.62,0.76,-0.19,-0.84,-0.37,20.38,18.51,-4.42,0.31,0.34,0.86,-1.24,1.02,-0.02
1900-01-01 18:18:07.983,38.65,8.5,-0.98,0.15,0.62,0.76,-0.11,-0.46,-0.63,20.32,18.23,-4.43,0.3,0.34,0.86,-1.28,1.1,0.08
1900-01-01 18:18:08.032,39.05,8.81,-0.92,0.15,0.63,0.76,-1.06,-0.45,0.37,20.6,18.33,-4.43,0.31,0.34,0.86,-1.29,1.13,0.42
1900-01-01 18:18:08.125,38.9,9.14,-0.71,0.16,0.62,0.76,0.48,-0.23,-0.9,20.73,18.56,-4.37,0.31,0.35,0.86,-1.39,1.19,0.06
1900-01-01 18:18:08.172,39.06,8.95,-0.68,0.15,0.62,0.75,-0.85,0.95,1.05,21.03,17.88,-4.37,0.3,0.35,0.86,-1.51,0.9,0.31
1900-01-01 18:18:08.266,38.62,9.41,-0.37,0.16,0.63,0.77,-0.25,-1.47,1.29,20.09,18.57,-4.33,0.31,0.33,0.86,-1.04,1.15,0.41
1900-01-01 18:18:08.361,38.33,9.57,-0.01,0.16,0.61,0.76,0.6,-0.33,0.23,20.26,19.06,-4.28,0.32,0.34,0.86,-1.52,0.84,0.47
1900-01-01 18:18:08.408,38.74,9.62,0.18,0.17,0.62,0.75,-0.9,0.34,1.5,20.51,18.58,-4.22,0.31,0.34,0.86,-1.76,0.85,0.75
1900-01-01 18:18:08.504,39.63,8.97,0.57,0.16,0.64,0.75,2.29,2.06,1.18,20.6,18.29,-4.11,0.3,0.34,0.86,-1.35,0.81,0.53
1900-01-01 18:18:08.550,38.68,10.14,0.9,0.18,0.63,0.76,0.24,-0.98,-0.63,20.76,18.7,-4.04,0.31,0.34,0.85,-1.31,1.17,-0.02
1900-01-01 18:18:08.644,38.83,10.03,0.97,0.17,0.63,0.76,-0.61,-0.62,0.47,20.64,18.73,-4.05,0.31,0.34,0.86,-1.51,1.18,0.32
1900-01-01 18:18:08.738,39.31,9.42,1.19,0.16,0.63,0.75,-0.37,-0.51,0.25,20.43,18.19,-4.01,0.3,0.34,0.85,-0.85,1.25,0.36
1900-01-01 18:18:08.784,38.91,10.98,1.39,0.19,0.63,0.76,0.44,-0.9,-0.56,20.32,19.48,-3.96,0.33,0.34,0.86,-1.29,1.06,-0.11
1900-01-01 18:18:08.880,39.02,10.01,1.46,0.17,0.63,0.75,-0.47,-0.4,0.27,20.43,18.37,-3.99,0.31,0.34,0.86,-1.67,0.97,0.24
1900-01-01 18:18:08.973,39.08,10.63,1.66,0.18,0.63,0.75,-0.2,-0.56,0.1,20.4,19.16,-3.96,0.32,0.34,0.85,-1.32,1.14,0.47
1900-01-01 18:18:09.020,39.79,9.97,1.84,0.17,0.64,0.75,-1.24,-0.38,0.14,20.64,18.28,-3.9,0.3,0.34,0.86,-1.04,1.24,0.55
1900-01-01 18:18:09.114,38.89,11.33,2.02,0.2,0.63,0.76,0.73,-0.56,-1.79,20.25,19.26,-3.82,0.32,0.34,0.86,-1.37,1.35,-0.44
1900-01-01 18:18:09.162,38.95,10.43,1.9,0.18,0.62,0.75,-0.78,-0.33,-0.92,20.59,18.83,-3.9,0.31,0.34,0.85,-1.29,1.31,0.18
1900-01-01 18:18:09.256,39.34,10.75,1.92,0.19,0.63,0.75,-0.92,-0.08,-0.64,20.53,18.79,-3.88,0.31,0.34,0.86,-1.27,1.46,0.3
1900-01-01 18:18:09.349,39.43,10.42,1.98,0.18,0.63,0.74,-0.18,-0.56,-0.82,20.37,18.66,-3.84,0.31,0.34,0.86,-1.45,0.91,-0.1
1900-01-01 18:18:09.398,39.12,10.71,2.01,0.19,0.63,0.75,-0.12,-0.63,-0.84,20.74,18.68,-3.87,0.31,0.34,0.85,-1.22,1.24,-0.03
1900-01-01 18:18:09.491,39.15,10.79,2.04,0.19,0.63,0.76,-0.76,-0.12,-0.93,20.52,18.93,-3.88,0.32,0.34,0.85,-1.34,1.42,0.09
1900-01-01 18:18:09.585,39.45,10.51,2.06,0.18,0.63,0.75,-0.96,-0.2,-0.76,20.53,18.57,-3.87,0.31,0.34,0.86,-1.19,1.41,0.11
1900-01-01 18:18:09.631,39.14,10.73,2.1,0.18,0.62,0.74,0.6,-0.58,-1.6,20.86,18.98,-3.86,0.32,0.35,0.85,-1.39,0.83,-0.39
1900-01-01 18:18:09.726,37.41,9.72,2.02,0.17,0.62,0.79,-2.63,2.88,-0.02,18.72,18.64,-3.93,0.31,0.31,0.86,-2.11,2.22,0.89
1900-01-01 18:18:09.772,39.27,11.31,2.17,0.19,0.61,0.72,-2.92,-0.04,0.7,20.31,18.58,-3.81,0.31,0.34,0.86,-0.96,2.15,0.04
1900-01-01 18:18:09.866,38.56,10.93,2.44,0.19,0.61,0.74,2.08,-1.1,-0.37,20.39,18.93,-3.81,0.32,0.34,0.86,-1.19,1.24,-0.32
1900-01-01 18:18:09.961,37.96,10.92,2.54,0.19,0.62,0.77,-1.17,-0.45,-0.53,20.34,18.63,-3.87,0.31,0.34,0.86,-1.81,1.5,0.11
1900-01-01 18:18:10.007,38.97,11.14,2.62,0.19,0.63,0.75,-1.69,-0.13,-0.08,20.68,18.84,-3.86,0.32,0.35,0.86,-0.85,1.92,0.27
1900-01-01 18:18:10.101,38.46,11.04,2.76,0.19,0.62,0.76,-1.02,-0.58,-0.71,20.26,19.07,-3.82,0.32,0.34,0.86,-0.98,1.69,-0.56
1900-01-01 18:18:10.149,37.02,11.19,2.81,0.19,0.6,0.77,-2.18,0.07,-0.51,18.38,19.4,-3.92,0.32,0.31,0.86,-2.56,2.1,-0.02
1900-01-01 18:18:10.243,38.66,10.09,2.89,0.17,0.62,0.75,-2.6,1.02,0.1,19.78,17.2,-3.93,0.29,0.33,0.87,-1.7,1.03,0.08
1900-01-01 18:18:10.336,38.1,10.11,3.07,0.17,0.61,0.76,-0.97,0.69,0.33,19.62,17.6,-3.93,0.29,0.32,0.86,-1.61,0.95,0.77
1900-01-01 18:18:10.383,38.39,10.05,3.28,0.17,0.61,0.75,-1.82,0.48,-0.63,20.02,17.58,-3.82,0.29,0.33,0.86,-0.15,1.88,0.94
1900-01-01 18:18:10.477,37.45,11.57,3.34,0.2,0.61,0.77,-2.53,-1.13,0.62,19.75,19.31,-3.68,0.32,0.33,0.86,-0.26,0.04,1.02
1900-01-01 18:18:10.571,37.82,11.93,3.59,0.21,0.62,0.77,0.24,-1.71,-0.85,20.1,19.32,-3.54,0.32,0.33,0.86,-1.69,0.31,-0.68
1900-01-01 18:18:10.617,37.11,10.5,3.62,0.18,0.6,0.78,0.27,-0.76,-1.82,19.68,18.66,-3.65,0.31,0.33,0.86,-1.31,1.28,-0.64
1900-01-01 18:18:10.710,37.07,11.12,3.5,0.19,0.6,0.77,-0.92,0.23,-0.84,19.58,18.82,-3.76,0.31,0.33,0.86,-1.17,1.59,0.27
1900-01-01 18:18:10.757,37.72,11.18,3.53,0.19,0.61,0.76,-0.48,-0.17,-1.12,20.1,18.76,-3.72,0.31,0.33,0.86,-1.58,1.18,-0.06
1900-01-01 18:18:10.853,37.51,10.95,3.52,0.19,0.61,0.77,-2.05,-0.36,-1.3,19.68,18.42,-3.74,0.31,0.33,0.86,-2.11,1.14,-0.57
1900-01-01 18:18:10.946,36.41,11.31,3.48,0.2,0.59,0.78,-3.88,0.02,-0.33,19.71,18.39,-3.84,0.31,0.33,0.87,-4.3,-1.18,0.21
1900-01-01 18:18:10.994,37.76,10.86,3.59,0.19,0.6,0.76,-1.66,-0.45,0.02,20.83,18.74,-3.81,0.31,0.35,0.85,-1.95,-2.54,-0.66
1900-01-01 18:18:11.087,36.28,11.37,3.75,0.2,0.59,0.78,0.74,-0.87,-0.56,19.24,20.58,-3.92,0.34,0.32,0.85,-0.66,1.22,-1.66
1900-01-01 18:18:11.181,36.81,10.96,3.82,0.19,0.6,0.78,1.53,-0.25,-0.86,18.68,19.42,-4.18,0.32,0.31,0.86,1.38,5.56,-2.59
1900-01-01 18:18:11.230,36.96,12.69,3.85,0.23,0.63,0.8,-1.79,-2.61,-0.87,22.23,20.27,-4.59,0.34,0.37,0.84,-2.92,2.44,-1.04
1900-01-01 18:18:11.323,34.95,9.56,3.88,0.16,0.57,0.79,-5.67,5.27,2.92,17.77,18.02,-4.75,0.3,0.3,0.87,-2.11,2.9,2.22
1900-01-01 18:18:11.370,38.16,11.4,4.48,0.19,0.6,0.74,-4.19,2.49,2.69,19.06,18.09,-4.43,0.3,0.32,0.87,-2.28,2.11,0.29
1900-01-01 18:18:11.464,37.03,12.32,5.04,0.21,0.6,0.76,3.88,-3.59,0.66,19.39,19.01,-4.39,0.32,0.32,0.86,-1.73,-0.85,-1.21
1900-01-01 18:18:11.558,36.82,10.77,5.3,0.19,0.62,0.8,2.05,-2.51,-0.65,19.36,19.48,-4.58,0.32,0.32,0.86,-1.86,0.45,-1.38
1900-01-01 18:18:11.604,35.73,11.07,5.36,0.19,0.59,0.8,-1.54,1.02,-1.11,17.46,17.75,-4.8,0.3,0.29,0.88,-5.27,1.28,0.69
1900-01-01 18:18:11.699,37.05,13.95,5.35,0.25,0.61,0.77,-4.98,0.43,-2.02,19.72,19.51,-4.71,0.33,0.33,0.86,-5.47,-1.03,-0.05
1900-01-01 18:18:11.792,37.09,8.64,5.2,0.15,0.59,0.76,-1.43,0.07,-1.68,19.12,15.58,-4.72,0.26,0.31,0.87,-4.26,1.76,-0.95
1900-01-01 18:18:11.841,36.61,9.98,5.1,0.17,0.6,0.78,-0.21,0.12,1.68,20.19,16.39,-4.88,0.27,0.33,0.86,-0.4,1.57,1.0
1900-01-01 18:18:11.933,31.83,15.0,5.52,0.27,0.55,0.85,-1.76,-0.92,0.42,16.25,23.66,-4.73,0.4,0.28,0.87,2.87,4.08,0.32
1900-01-01 18:18:11.981,36.93,10.97,5.74,0.19,0.59,0.76,-3.75,0.37,0.59,16.74,19.11,-4.69,0.32,0.28,0.87,-4.82,-0.53,-0.04
1900-01-01 18:18:12.074,36.13,10.71,5.99,0.19,0.59,0.79,1.14,-1.34,-1.02,18.29,17.97,-4.71,0.3,0.3,0.87,-1.43,1.27,-1.15
1900-01-01 18:18:12.168,33.45,13.37,5.99,0.24,0.56,0.82,-0.46,0.63,-2.18,19.26,19.08,-4.89,0.32,0.32,0.87,-2.27,2.19,0.38
1900-01-01 18:18:12.213,35.13,11.94,5.82,0.2,0.56,0.77,-2.3,-0.21,1.05,18.58,18.74,-4.84,0.31,0.31,0.87,0.02,1.13,0.5
1900-01-01 18:18:12.307,35.64,11.34,6.13,0.19,0.57,0.78,0.39,-0.63,-0.19,16.07,19.64,-4.77,0.33,0.27,0.88,-4.24,-1.99,-0.21
1900-01-01 18:18:12.354,35.31,11.05,6.26,0.2,0.59,0.81,2.65,-0.77,-1.53,16.77,18.69,-4.81,0.31,0.28,0.87,-3.06,-0.38,-0.45
1900-01-01 18:18:12.449,34.91,11.43,6.19,0.2,0.58,0.81,-0.14,-0.02,-2.4,16.57,19.33,-4.89,0.32,0.28,0.87,0.4,2.75,0.06
1900-01-01 18:18:12.544,35.69,12.1,5.98,0.21,0.59,0.79,-0.24,0.5,-3.63,17.26,19.21,-4.89,0.32,0.29,0.87,0.82,2.73,-0.25
1900-01-01 18:18:12.591,35.66,11.77,5.59,0.2,0.58,0.78,0.16,-0.71,-3.14,17.9,19.45,-4.94,0.32,0.3,0.87,-0.37,1.1,-0.23
1900-01-01 18:18:12.684,35.24,11.59,5.27,0.2,0.58,0.8,0.22,-0.56,-1.92,17.05,19.83,-4.98,0.33,0.29,0.87,-1.92,0.05,0.21
1900-01-01 18:18:12.779,36.09,10.03,5.13,0.17,0.59,0.79,0.05,0.11,-1.91,16.74,18.92,-4.96,0.32,0.28,0.88,-0.19,1.34,-0.07
1900-01-01 18:18:12.826,35.51,11.26,5.0,0.19,0.58,0.78,-0.98,0.62,-1.6,17.76,19.7,-4.97,0.33,0.3,0.87,-1.16,1.1,0.23
1900-01-01 18:18:12.920,35.56,11.17,4.92,0.19,0.58,0.79,-1.88,0.54,-0.13,17.38,19.72,-4.95,0.33,0.29,0.87,-1.95,0.58,0.34
1900-01-01 18:18:12.966,36.78,10.54,5.06,0.18,0.59,0.77,-0.53,-0.73,-0.11,17.94,19.01,-4.9,0.32,0.3,0.87,-0.66,1.44,-0.44
1900-01-01 18:18:13.062,34.69,11.75,5.2,0.21,0.57,0.8,-1.69,-0.73,-0.66,17.45,20.01,-4.98,0.33,0.29,0.87,-1.68,1.95,-0.57
1900-01-01 18:18:13.155,34.63,11.32,5.26,0.2,0.58,0.82,-3.55,1.47,-0.7,17.11,19.73,-5.08,0.33,0.29,0.87,-1.47,3.7,0.05
1900-01-01 18:18:13.201,35.87,9.79,5.31,0.17,0.57,0.77,-3.42,1.79,-1.78,17.99,17.97,-5.08,0.3,0.3,0.87,-0.21,3.75,-0.19
1900-01-01 18:18:13.295,34.68,10.61,5.19,0.18,0.56,0.79,-0.45,-0.76,-0.11,17.34,18.58,-5.11,0.31,0.29,0.87,-0.37,1.91,-0.11
1900-01-01 18:18:13.388,33.6,11.63,5.34,0.21,0.56,0.82,0.27,0.04,-0.98,17.15,19.33,-5.14,0.32,0.29,0.88,-1.76,1.6,0.02
1900-01-01 18:18:13.436,35.27,10.34,5.35,0.18,0.57,0.79,-0.66,0.89,-0.27,17.69,17.6,-5.14,0.29,0.29,0.87,-0.94,1.34,0.6
1900-01-01 18:18:13.531,34.02,13.0,5.46,0.22,0.55,0.79,1.76,-1.54,-2.05,17.71,19.24,-5.06,0.32,0.3,0.88,-1.15,-0.3,0.24
1900-01-01 18:18:13.578,35.43,9.57,5.31,0.16,0.56,0.77,2.06,-3.12,-1.29,17.52,18.3,-5.03,0.31,0.29,0.88,0.03,-0.92,-0.15
1900-01-01 18:18:13.672,35.23,12.86,5.27,0.23,0.59,0.81,3.98,-2.32,-4.18,19.35,19.72,-5.06,0.33,0.32,0.86,-1.31,-0.68,-2.29
1900-01-01 18:18:13.765,33.73,10.62,4.79,0.19,0.57,0.83,-7.08,1.69,-1.4,15.88,19.6,-5.42,0.32,0.26,0.87,-5.77,0.03,1.06
1900-01-01 18:18:13.811,36.23,10.42,4.74,0.18,0.58,0.77,-4.1,1.47,0.24,17.96,18.31,-5.27,0.3,0.3,0.87,-1.75,1.88,1.6
1900-01-01 18:18:13.907,35.6,12.13,4.93,0.21,0.58,0.78,-1.5,-1.65,-0.7,18.73,19.91,-5.03,0.34,0.32,0.87,-1.56,1.11,-2.04
1900-01-01 18:18:13.954,34.96,9.73,4.98,0.17,0.58,0.81,-1.31,-0.15,-1.02,15.17,19.6,-5.35,0.33,0.25,0.88,-5.08,-12.02,4.59
1900-01-01 18:18:14.047,33.05,9.93,4.99,0.17,0.55,0.83,0.58,1.63,-1.09,14.26,23.64,-4.66,0.38,0.23,0.84,2.66,6.08,0.67
1900-01-01 18:18:14.142,37.96,10.24,4.98,0.18,0.61,0.77,-1.11,0.51,-2.85,20.04,18.9,-4.57,0.33,0.35,0.89,-1.39,-18.97,5.49
1900-01-01 18:18:14.187,31.2,10.64,4.7,0.18,0.51,0.82,0.73,0.87,-3.03,13.13,27.39,-3.74,0.44,0.22,0.81,1.28,3.13,-0.85
1900-01-01 18:18:14.282,33.98,11.65,4.4,0.2,0.55,0.79,-1.43,-0.31,-0.31,18.09,26.81,-3.87,0.43,0.3,0.8,-3.05,4.37,-3.85
1900-01-01 18:18:14.376,34.4,10.16,4.51,0.18,0.57,0.81,5.02,-1.47,1.63,18.04,21.17,-4.47,0.35,0.3,0.86,-0.85,19.65,-11.5
1900-01-01 18:18:14.423,34.49,9.53,4.92,0.17,0.57,0.82,-3.36,0.33,1.19,15.59,21.14,-6.24,0.35,0.26,0.86,-2.25,1.37,0.9
1900-01-01 18:18:14.517,35.29,9.44,5.26,0.17,0.59,0.81,-1.47,0.41,-0.43,15.75,19.97,-6.11,0.33,0.26,0.87,-1.0,2.26,0.15
1900-01-01 18:18:14.563,35.97,11.06,5.35,0.19,0.59,0.79,-0.11,-0.03,-2.26,18.12,20.25,-6.09,0.34,0.3,0.86,-0.99,2.27,-0.21
1900-01-01 18:18:14.657,35.08,9.93,5.17,0.17,0.57,0.79,0.93,-0.58,-3.2,17.27,19.91,-6.14,0.33,0.29,0.87,-1.4,1.03,-0.35
1900-01-01 18:18:14.752,34.88,9.71,4.84,0.17,0.57,0.8,-0.56,-0.27,-1.02,17.02,19.59,-6.2,0.33,0.28,0.87,-0.38,1.31,0.05
1900-01-01 18:18:14.799,35.74,11.59,4.84,0.2,0.58,0.79,-0.79,-0.77,2.15,17.95,21.06,-6.2,0.35,0.3,0.86,-1.83,0.05,1.49
1900-01-01 18:18:14.895,35.38,10.54,5.33,0.18,0.58,0.79,3.07,-1.77,-0.27,16.57,20.07,-5.98,0.33,0.28,0.86,-3.47,-0.53,-0.6
1900-01-01 18:18:14.942,35.61,10.15,5.45,0.18,0.59,0.8,1.23,-2.23,-0.08,17.29,20.23,-6.08,0.34,0.29,0.87,0.31,1.51,-0.32
1900-01-01 18:18:15.035,36.23,11.94,5.59,0.21,0.6,0.8,-0.45,-0.12,-1.24,17.68,21.44,-6.14,0.36,0.3,0.86,-1.59,1.33,-0.21
1900-01-01 18:18:15.130,35.55,10.7,5.56,0.18,0.58,0.78,-0.37,0.27,-2.54,17.06,20.71,-6.18,0.34,0.29,0.87,-1.87,0.71,-0.1
1900-01-01 18:18:15.177,35.96,10.49,5.33,0.18,0.59,0.79,-2.32,0.63,-4.37,16.78,20.44,-6.2,0.34,0.28,0.86,-1.73,1.27,-0.73
1900-01-01 18:18:15.269,36.33,9.2,4.83,0.16,0.58,0.78,0.2,-1.01,-4.81,16.98,19.97,-6.32,0.33,0.28,0.86,1.15,2.45,-1.07
1900-01-01 18:18:15.364,35.67,9.71,4.25,0.17,0.58,0.8,0.05,-0.88,-4.95,17.92,20.21,-6.49,0.34,0.3,0.86,2.43,2.56,-1.62
1900-01-01 18:18:15.411,35.79,9.87,3.66,0.17,0.58,0.79,-1.16,-1.07,-4.61,18.43,20.46,-6.75,0.34,0.31,0.86,0.61,2.05,0.06
1900-01-01 18:18:15.504,36.65,8.88,3.12,0.15,0.59,0.78,-1.7,-0.87,-3.67,18.77,19.64,-6.75,0.33,0.31,0.86,0.07,1.19,-0.78
1900-01-01 18:18:15.551,35.52,11.36,2.72,0.2,0.58,0.78,-0.19,-2.89,-1.64,18.41,21.76,-6.87,0.36,0.31,0.85,-0.69,-0.55,-0.98
1900-01-01 18:18:15.644,35.95,8.83,2.63,0.15,0.58,0.78,2.72,-1.34,-0.8,17.98,20.02,-7.03,0.33,0.3,0.86,-1.31,-0.47,-0.95
1900-01-01 18:18:15.739,35.28,9.1,2.66,0.16,0.59,0.82,3.57,-1.19,-1.5,18.84,19.74,-7.19,0.33,0.32,0.86,-0.66,1.44,-0.89
1900-01-01 18:18:15.786,35.46,10.65,2.59,0.18,0.58,0.79,-1.28,2.0,-0.51,19.19,20.89,-7.33,0.35,0.32,0.86,-0.47,1.67,1.66
1900-01-01 18:18:15.879,37.41,10.37,2.67,0.18,0.59,0.75,-1.82,0.92,0.37,18.82,20.85,-7.09,0.35,0.31,0.85,-1.54,0.82,1.03
1900-01-01 18:18:15.972,37.55,9.53,2.89,0.16,0.6,0.77,1.67,-1.9,-1.02,18.8,20.52,-6.94,0.34,0.31,0.86,-1.17,0.01,-0.76
1900-01-01 18:18:16.019,36.84,9.55,2.89,0.17,0.61,0.79,1.18,-1.68,-2.09,18.77,20.42,-7.06,0.34,0.31,0.86,-0.97,0.88,-0.85
1900-01-01 18:18:16.114,36.97,10.05,2.73,0.18,0.6,0.78,-0.56,0.01,-1.67,19.3,20.65,-7.2,0.34,0.32,0.85,-1.09,1.37,0.12
1900-01-01 18:18:16.161,37.43,9.9,2.64,0.17,0.6,0.77,-0.51,-0.15,-1.0,19.14,20.5,-7.19,0.34,0.32,0.85,-1.22,1.08,0.18
1900-01-01 18:18:16.254,37.32,9.87,2.64,0.17,0.61,0.78,-0.06,-0.62,-1.24,19.1,20.72,-7.17,0.35,0.32,0.86,-1.23,0.93,-0.23
1900-01-01 18:18:16.349,37.36,9.66,2.61,0.17,0.61,0.78,-0.28,-0.49,-1.56,19.16,20.46,-7.21,0.34,0.32,0.85,-1.31,1.12,-0.25
1900-01-01 18:18:16.396,37.33,10.02,2.53,0.17,0.61,0.78,-0.15,-0.3,-1.51,19.26,20.78,-7.26,0.34,0.32,0.85,-1.11,1.18,-0.1
1900-01-01 18:18:16.490,37.47,9.97,2.46,0.17,0.61,0.77,-0.63,-0.34,-1.13,19.2,20.88,-7.28,0.35,0.32,0.85,-1.33,0.91,0.12
1900-01-01 18:18:16.585,37.66,9.81,2.44,0.17,0.61,0.77,-0.24,-0.51,-1.1,19.04,20.79,-7.27,0.35,0.32,0.85,-1.27,1.05,-0.01
1900-01-01 18:18:16.632,37.28,9.55,2.44,0.17,0.6,0.78,-0.06,-0.4,-1.51,18.97,20.73,-7.28,0.34,0.32,0.85,-1.37,1.14,-0.13
1900-01-01 18:18:16.726,37.69,9.86,2.36,0.17,0.61,0.77,-0.56,-0.38,-0.9,19.44,20.86,-7.31,0.35,0.32,0.85,-1.08,1.21,0.19
1900-01-01 18:18:16.772,37.55,9.64,2.39,0.17,0.6,0.77,-0.69,-0.13,-1.11,19.07,20.63,-7.29,0.34,0.32,0.85,-1.22,1.19,-0.06
1900-01-01 18:18:16.867,37.64,9.98,2.37,0.17,0.61,0.77,-0.4,-0.63,-0.76,19.28,21.23,-7.31,0.36,0.32,0.85,-1.05,1.11,0.28
1900-01-01 18:18:16.960,37.5,9.83,2.42,0.17,0.61,0.77,-0.34,-0.34,-0.95,18.76,20.96,-7.27,0.35,0.31,0.85,-1.53,1.0,0.12
1900-01-01 18:18:17.006,37.37,9.36,2.43,0.16,0.6,0.77,-0.44,-0.24,-1.09,18.55,20.89,-7.26,0.35,0.31,0.85,-1.18,1.23,0.09
1900-01-01 18:18:17.100,38.13,10.14,2.42,0.18,0.62,0.77,-0.5,-0.23,-0.97,19.66,21.31,-7.26,0.36,0.33,0.85,-1.29,1.18,0.18
1900-01-01 18:18:17.148,37.84,9.67,2.43,0.17,0.61,0.77,-0.46,-0.32,-1.17,19.12,20.81,-7.24,0.34,0.32,0.85,-1.47,1.18,-0.09
1900-01-01 18:18:17.241,37.81,9.77,2.41,0.17,0.62,0.77,-0.71,-0.47,-0.85,19.21,21.22,-7.26,0.35,0.32,0.85,-1.24,1.4,0.22
1900-01-01 18:18:17.334,37.61,9.78,2.44,0.17,0.61,0.77,-0.57,-0.4,-1.21,19.07,20.87,-7.24,0.35,0.32,0.85,-1.4,1.3,-0.05
1900-01-01 18:18:17.382,37.69,9.65,2.42,0.17,0.61,0.77,-0.36,-0.36,-0.97,19.1,20.83,-7.25,0.35,0.32,0.85,-1.27,1.3,0.02
1900-01-01 18:18:17.474,37.79,9.59,2.43,0.17,0.61,0.77,-0.69,-0.17,-1.26,19.06,20.92,-7.26,0.35,0.32,0.85,-1.36,1.31,-0.01
1900-01-01 18:18:17.568,37.9,9.74,2.39,0.17,0.61,0.77,-0.69,-0.46,-1.12,19.46,20.96,-7.27,0.35,0.32,0.85,-1.27,1.24,0.09
1900-01-01 18:18:17.614,37.43,9.49,2.38,0.16,0.61,0.77,-0.47,-0.34,-1.47,19.07,20.81,-7.26,0.35,0.32,0.85,-1.28,1.23,-0.19
1900-01-01 18:18:17.708,38.48,10.39,2.32,0.18,0.63,0.77,-1.06,-0.56,0.03,19.53,21.79,-7.3,0.37,0.33,0.86,-1.46,1.34,0.66
1900-01-01 18:18:17.755,37.82,8.74,2.48,0.15,0.6,0.76,-0.41,-0.02,-1.44,18.22,20.05,-7.21,0.33,0.3,0.85,-1.66,1.09,-0.46
1900-01-01 18:18:17.849,37.57,9.84,2.42,0.17,0.61,0.78,-0.69,-0.51,-0.9,18.74,21.46,-7.29,0.35,0.31,0.85,-0.66,1.53,-0.01
1900-01-01 18:18:17.942,38.03,9.6,2.44,0.17,0.61,0.77,-0.66,0.03,-1.26,19.36,20.7,-7.3,0.34,0.32,0.85,-1.47,1.08,-0.06
1900-01-01 18:18:17.989,37.78,9.75,2.41,0.17,0.61,0.77,-0.46,-0.54,-0.85,19.18,21.23,-7.31,0.36,0.32,0.86,-1.11,1.46,0.1
1900-01-01 18:18:18.082,37.61,9.26,2.43,0.16,0.61,0.77,-0.5,-0.24,-1.03,18.92,20.7,-7.31,0.35,0.32,0.86,-1.55,1.09,0.06
1900-01-01 18:18:18.177,37.7,9.85,2.44,0.17,0.61,0.77,-0.45,-0.27,-0.8,19.18,21.25,-7.31,0.35,0.32,0.85,-1.35,1.45,0.15
1900-01-01 18:18:18.224,37.38,9.24,2.47,0.16,0.6,0.77,-0.55,-0.11,-0.69,18.73,20.65,-7.29,0.34,0.31,0.85,-1.4,1.0,0.08
1900-01-01 18:18:18.318,37.21,9.77,2.53,0.17,0.59,0.76,-0.78,-0.48,2.1,19.48,20.8,-7.29,0.35,0.33,0.85,-1.04,1.07,1.02
1900-01-01 18:18:18.410,37.77,10.52,3.0,0.19,0.62,0.78,2.04,0.51,3.85,18.68,21.56,-7.14,0.36,0.31,0.85,-1.54,0.73,1.13
1900-01-01 18:18:18.457,37.91,9.57,3.75,0.17,0.62,0.78,1.86,-0.9,0.52,18.74,20.49,-6.98,0.34,0.31,0.85,-0.98,1.73,0.53
1900-01-01 18:18:18.552,37.7,11.2,3.98,0.2,0.62,0.77,-3.1,-1.43,0.18,19.21,21.84,-6.91,0.36,0.32,0.85,-1.46,1.86,1.1
1900-01-01 18:18:18.599,38.24,10.32,4.17,0.18,0.62,0.76,-1.92,2.93,-1.99,18.74,20.91,-6.75,0.35,0.31,0.85,-2.15,1.34,0.21
1900-01-01 18:18:18.693,38.63,10.19,4.02,0.18,0.62,0.76,-0.38,0.23,-5.47,18.79,21.4,-6.72,0.36,0.31,0.85,-0.66,1.61,-1.36
1900-01-01 18:18:18.785,38.35,10.15,3.35,0.18,0.63,0.78,1.84,-1.47,-11.21,19.11,21.03,-6.94,0.35,0.32,0.85,-1.03,2.31,-2.31
1900-01-01 18:18:18.832,38.01,8.89,1.79,0.16,0.62,0.78,0.73,1.59,-12.07,19.13,19.96,-7.3,0.33,0.32,0.85,-0.4,0.61,0.05
1900-01-01 18:18:18.926,37.99,7.56,0.12,0.13,0.6,0.75,-1.83,2.57,-7.28,19.65,20.35,-7.3,0.34,0.33,0.86,-0.74,2.89,0.18
1900-01-01 18:18:18.975,38.77,6.23,-0.83,0.1,0.6,0.74,-0.53,1.5,-2.48,19.97,19.87,-7.28,0.33,0.33,0.85,-1.29,1.79,0.38
1900-01-01 18:18:19.067,38.84,6.47,-1.05,0.11,0.61,0.75,-1.79,-0.51,0.88,19.28,20.58,-7.23,0.34,0.32,0.85,-1.23,0.82,0.53
1900-01-01 18:18:19.160,38.7,6.23,-0.75,0.11,0.62,0.77,0.42,-0.56,-0.76,19.61,19.91,-7.16,0.33,0.33,0.86,-1.07,1.13,-0.14
1900-01-01 18:18:19.207,38.66,7.13,-0.71,0.12,0.63,0.77,-2.1,-0.54,0.8,19.31,20.58,-7.19,0.34,0.32,0.85,-1.64,0.95,0.44
1900-01-01 18:18:19.301,38.93,6.33,-0.43,0.11,0.62,0.76,0.74,-0.71,0.96,19.26,20.02,-7.13,0.33,0.32,0.86,-0.7,1.11,0.62
1900-01-01 18:18:19.395,39.08,7.62,-0.13,0.13,0.63,0.76,0.49,-1.66,1.37,19.29,20.97,-7.05,0.35,0.32,0.85,-0.92,0.55,0.36
1900-01-01 18:18:19.441,39.06,8.07,0.24,0.14,0.64,0.77,1.83,-1.79,0.24,19.52,21.14,-7.0,0.35,0.33,0.85,-1.38,0.56,-0.01
1900-01-01 18:18:19.535,38.67,7.42,0.43,0.13,0.62,0.76,-1.11,0.03,0.19,18.92,20.61,-7.01,0.34,0.31,0.85,-1.73,0.33,0.08
1900-01-01 18:18:19.583,40.05,7.6,0.62,0.13,0.65,0.76,-0.49,-0.37,-0.07,19.86,20.6,-7.0,0.34,0.33,0.85,-0.92,1.53,0.44
1900-01-01 18:18:19.676,39.44,8.1,0.77,0.14,0.63,0.76,-1.12,-0.21,-1.34,19.46,20.79,-6.95,0.35,0.32,0.85,-1.39,1.24,-0.18
1900-01-01 18:18:19.770,39.34,8.05,0.72,0.14,0.63,0.76,-0.48,-1.48,-0.89,19.35,20.99,-6.98,0.35,0.32,0.85,-1.42,0.65,-0.53
1900-01-01 18:18:19.817,39.0,7.57,0.75,0.13,0.63,0.77,0.07,-2.17,-0.82,19.35,20.76,-7.07,0.35,0.32,0.85,-0.99,1.46,-0.08
1900-01-01 18:18:19.912,39.29,8.4,0.78,0.15,0.63,0.76,-0.66,-1.08,-0.87,19.52,21.2,-7.09,0.35,0.33,0.85,-1.28,1.39,0.08
1900-01-01 18:18:19.960,39.08,7.26,0.81,0.12,0.62,0.76,0.03,-0.53,-1.57,19.21,20.49,-7.09,0.34,0.32,0.85,-1.34,1.14,-0.43
1900-01-01 18:18:20.053,39.4,7.83,0.72,0.14,0.63,0.76,-0.85,-0.15,-0.89,19.68,21.07,-7.16,0.35,0.33,0.85,-1.08,1.57,0.4
1900-01-01 18:18:20.147,39.67,7.94,0.75,0.14,0.63,0.75,-0.31,-0.32,-1.0,19.61,20.73,-7.11,0.34,0.33,0.85,-1.51,0.9,-0.17
1900-01-01 18:18:20.194,38.96,8.11,0.75,0.14,0.63,0.76,-0.21,-0.63,-0.96,19.52,21.22,-7.14,0.35,0.33,0.85,-1.44,0.94,-0.11
1900-01-01 18:18:20.287,39.24,7.79,0.77,0.13,0.63,0.76,-1.44,0.44,-0.24,19.48,20.78,-7.17,0.35,0.32,0.85,-1.45,1.31,0.42
1900-01-01 18:18:20.381,39.49,7.81,0.89,0.13,0.63,0.75,-1.29,-0.13,-1.14,19.32,20.72,-7.11,0.34,0.32,0.85,-1.3,1.27,-0.08
1900-01-01 18:18:20.428,39.31,7.56,0.87,0.13,0.63,0.76,0.18,-0.62,-1.55,19.24,20.81,-7.13,0.35,0.32,0.85,-1.14,1.17,-0.34
1900-01-01 18:18:20.522,38.72,8.01,0.8,0.14,0.62,0.77,-0.11,-0.01,-1.99,19.29,21.02,-7.19,0.35,0.32,0.85,-1.05,1.49,-0.24
1900-01-01 18:18:20.571,39.23,7.92,0.65,0.14,0.63,0.75,-0.92,0.38,-0.9,19.6,21.01,-7.24,0.35,0.33,0.85,-1.05,1.63,0.43
1900-01-01 18:18:20.664,39.69,7.82,0.67,0.13,0.63,0.75,-0.93,-0.31,-0.53,19.64,20.69,-7.18,0.34,0.33,0.85,-1.42,0.95,0.03
1900-01-01 18:18:20.758,39.25,8.12,0.75,0.14,0.63,0.76,0.12,-1.75,-0.92,19.51,21.02,-7.19,0.35,0.32,0.85,-1.21,1.21,-0.08
1900-01-01 18:18:20.804,38.95,7.79,0.77,0.13,0.62,0.76,-0.63,-0.49,-0.61,19.45,20.88,-7.21,0.35,0.33,0.85,-1.26,1.3,0.16
1900-01-01 18:18:20.899,39.25,7.85,0.83,0.14,0.63,0.76,-0.28,-0.13,-0.98,19.62,20.77,-7.19,0.34,0.33,0.85,-1.23,1.34,0.08
1900-01-01 18:18:20.946,39.43,7.84,0.84,0.14,0.63,0.75,-0.69,-0.45,-0.92,19.64,20.85,-7.19,0.35,0.33,0.85,-1.24,1.1,0.08
1900-01-01 18:18:21.040,39.08,8.15,0.86,0.14,0.63,0.76,-0.38,-0.5,-1.14,19.11,21.19,-7.19,0.35,0.32,0.85,-1.34,1.2,-0.24
1900-01-01 18:18:21.134,39.02,7.61,0.85,0.13,0.63,0.76,-1.07,0.14,-0.88,19.44,20.82,-7.23,0.35,0.32,0.85,-1.35,1.44,0.34
1900-01-01 18:18:21.181,39.36,7.93,0.87,0.14,0.63,0.75,-0.81,-0.12,-1.1,19.63,20.88,-7.19,0.35,0.33,0.85,-1.25,1.52,0.05
1900-01-01 18:18:21.274,39.29,8.12,0.86,0.14,0.63,0.76,-0.47,-0.12,-1.03,19.5,20.86,-7.19,0.35,0.32,0.85,-1.6,1.28,0.04
1900-01-01 18:18:21.368,38.52,7.33,0.87,0.13,0.62,0.76,-0.93,-0.04,-1.14,18.8,20.84,-7.19,0.34,0.31,0.85,-1.33,1.65,0.11
1900-01-01 18:18:21.417,39.01,8.34,0.85,0.14,0.63,0.76,-0.78,0.0,-0.58,19.42,21.06,-7.18,0.35,0.33,0.85,-1.27,1.6,0.18
1900-01-01 18:18:21.510,39.01,8.11,0.92,0.14,0.63,0.76,-0.85,-0.34,-0.85,19.22,21.03,-7.16,0.35,0.32,0.85,-1.36,1.02,-0.02
1900-01-01 18:18:21.556,39.18,7.96,0.95,0.14,0.63,0.76,-0.27,-0.44,-1.16,19.48,20.68,-7.17,0.34,0.32,0.85,-1.36,1.19,-0.08
1900-01-01 18:18:21.651,38.94,7.89,0.93,0.14,0.63,0.76,-0.46,-0.31,-1.23,19.35,20.87,-7.2,0.35,0.32,0.85,-1.16,1.41,0.04
1900-01-01 18:18:21.743,39.02,8.01,0.9,0.14,0.63,0.76,-0.58,-0.22,-1.0,19.34,20.93,-7.2,0.35,0.32,0.85,-1.4,1.22,0.07
1900-01-01 18:18:21.791,38.99,7.94,0.91,0.14,0.63,0.76,-0.35,-0.38,-1.05,19.38,20.84,-7.2,0.35,0.32,0.85,-1.31,1.17,-0.02
1900-01-01 18:18:21.885,38.92,7.76,0.91,0.13,0.62,0.76,-0.61,-0.34,-0.92,19.08,20.85,-7.21,0.35,0.32,0.85,-1.31,1.2,0.02
1900-01-01 18:18:21.978,38.97,8.04,0.93,0.14,0.63,0.76,-0.7,-0.42,-1.15,19.41,21.23,-7.21,0.35,0.32,0.85,-1.19,1.3,-0.08
1900-01-01 18:18:22.026,39.2,7.91,0.91,0.14,0.63,0.76,-0.88,-0.25,-1.24,19.58,20.74,-7.23,0.34,0.33,0.85,-1.4,1.35,-0.05
1900-01-01 18:18:22.119,39.01,8.08,0.88,0.14,0.63,0.76,-1.24,-0.56,-1.05,19.27,21.24,-7.25,0.35,0.32,0.85,-1.47,1.09,-0.05
1900-01-01 18:18:22.165,39.07,7.49,0.88,0.13,0.63,0.76,-0.45,-0.73,-1.15,19.23,20.71,-7.27,0.34,0.32,0.85,-1.31,0.99,-0.26
1900-01-01 18:18:22.259,38.76,7.88,0.86,0.14,0.62,0.76,0.1,-0.27,-1.26,19.07,20.66,-7.31,0.34,0.32,0.85,-1.36,1.49,-0.08
1900-01-01 18:18:22.353,38.59,7.65,0.83,0.13,0.62,0.77,-0.5,-0.21,-1.0,19.38,20.8,-7.33,0.35,0.32,0.85,-1.03,1.11,0.22
1900-01-01 18:18:22.401,39.51,8.48,0.83,0.15,0.64,0.76,-0.76,-0.11,-0.46,19.89,21.37,-7.31,0.36,0.33,0.85,-1.25,1.43,0.28
1900-01-01 18:18:22.495,38.85,7.56,0.92,0.13,0.62,0.76,-0.04,-0.39,-1.08,18.88,20.67,-7.27,0.34,0.31,0.85,-1.4,1.13,-0.21
1900-01-01 18:18:22.588,38.9,8.03,0.92,0.14,0.63,0.76,-0.74,-0.24,-0.97,19.21,21.17,-7.32,0.35,0.32,0.85,-1.15,1.34,0.15
1900-01-01 18:18:22.636,39.21,7.98,0.93,0.14,0.63,0.76,-0.7,-0.15,-1.09,19.61,20.77,-7.3,0.35,0.33,0.85,-1.54,1.25,-0.02
1900-01-01 18:18:22.729,38.55,7.64,0.92,0.13,0.62,0.76,-0.5,-0.18,-1.02,18.58,20.94,-7.31,0.35,0.31,0.85,-1.32,1.3,-0.04
1900-01-01 18:18:22.776,39.04,7.91,0.92,0.14,0.63,0.76,-0.95,-0.18,-0.98,19.58,20.85,-7.33,0.35,0.33,0.85,-1.27,1.23,0.08
1900-01-01 18:18:22.869,38.98,7.97,0.93,0.14,0.63,0.76,-0.6,-0.24,-1.03,19.46,20.96,-7.33,0.35,0.32,0.85,-1.36,1.24,-0.01
1900-01-01 18:18:22.964,38.87,7.66,0.93,0.13,0.62,0.76,-0.26,-0.15,-0.99,19.33,20.74,-7.33,0.34,0.32,0.85,-1.35,1.29,0.05
1900-01-01 18:18:23.011,38.83,8.0,0.94,0.14,0.62,0.76,-0.44,-0.16,-1.03,19.5,20.85,-7.34,0.35,0.32,0.85,-1.25,1.27,0.03
1900-01-01 18:18:23.105,38.88,8.09,0.94,0.14,0.63,0.76,-0.22,-0.38,-0.98,19.6,20.98,-7.34,0.35,0.33,0.85,-1.27,1.27,-0.04
1900-01-01 18:18:23.200,38.76,7.89,0.95,0.14,0.62,0.76,-0.27,-0.34,-0.88,19.48,20.83,-7.35,0.35,0.32,0.85,-1.29,1.17,0.15
1900-01-01 18:18:23.246,39.23,7.82,0.98,0.14,0.63,0.76,-0.3,-0.16,-0.97,19.38,21.15,-7.34,0.35,0.32,0.85,-1.03,1.28,0.07
1900-01-01 18:18:23.339,39.56,7.94,0.99,0.14,0.64,0.76,1.28,-0.04,-1.85,19.55,20.76,-7.34,0.34,0.33,0.85,-1.01,1.6,-0.43
1900-01-01 18:18:23.387,39.44,7.85,0.86,0.14,0.65,0.77,-0.14,0.55,-4.15,19.38,20.99,-7.41,0.35,0.32,0.85,-1.22,1.97,-0.49
1900-01-01 18:18:23.482,39.57,7.24,0.39,0.13,0.65,0.77,-1.11,1.98,-6.15,19.5,20.82,-7.49,0.35,0.32,0.85,-1.5,2.43,-0.37
1900-01-01 18:18:23.576,39.41,6.36,-0.39,0.11,0.63,0.76,-1.69,3.24,-8.89,19.88,21.19,-7.56,0.35,0.33,0.85,-1.1,1.05,0.18
1900-01-01 18:18:23.622,39.88,4.4,-1.58,0.08,0.63,0.75,1.51,4.89,-8.98,19.35,19.88,-7.54,0.33,0.32,0.85,-0.51,1.21,-0.09
1900-01-01 18:18:23.715,39.6,3.57,-2.79,0.06,0.64,0.77,1.66,5.47,-8.23,19.61,20.65,-7.56,0.34,0.33,0.85,-0.76,2.22,0.07
1900-01-01 18:18:23.763,40.28,1.9,-3.88,0.03,0.64,0.76,-3.06,6.77,-5.64,19.77,20.14,-7.56,0.33,0.33,0.85,-1.16,2.2,0.78
1900-01-01 18:18:23.856,40.09,0.62,-4.58,0.01,0.63,0.75,-2.24,5.72,-6.37,19.93,20.02,-7.45,0.33,0.33,0.85,-1.2,2.17,-0.3
1900-01-01 18:18:23.951,39.58,0.21,-5.39,0.0,0.63,0.77,-0.74,3.78,-6.2,19.91,20.64,-7.5,0.34,0.33,0.85,-1.57,0.69,0.04
1900-01-01 18:18:23.999,39.15,-1.6,-6.17,-0.03,0.61,0.75,-3.27,4.32,-5.98,19.48,20.06,-7.51,0.33,0.32,0.85,-2.24,0.1,0.06
1900-01-01 18:18:24.091,38.84,-2.72,-6.92,-0.05,0.6,0.75,-1.46,0.68,-2.8,19.56,20.15,-7.51,0.33,0.33,0.85,-1.73,0.56,-0.36
1900-01-01 18:18:24.186,39.01,-1.32,-7.19,-0.02,0.62,0.77,0.4,-1.05,-0.51,19.42,20.86,-7.57,0.35,0.32,0.85,-2.0,-0.01,-0.3
1900-01-01 18:18:24.233,39.06,-2.33,-7.11,-0.04,0.62,0.76,-1.99,-0.58,0.44,19.57,19.92,-7.62,0.33,0.32,0.85,-2.38,0.69,0.15
1900-01-01 18:18:24.326,39.19,-1.01,-6.89,-0.02,0.63,0.77,-1.18,-1.88,1.73,19.76,20.83,-7.61,0.35,0.33,0.85,-1.25,1.04,0.47
1900-01-01 18:18:24.374,38.54,-1.35,-6.47,-0.02,0.61,0.76,-0.63,-3.73,5.89,18.87,20.73,-7.55,0.34,0.31,0.85,-0.5,0.92,1.5
1900-01-01 18:18:24.468,38.49,-1.26,-5.41,-0.02,0.59,0.74,0.84,-4.9,8.0,19.37,19.48,-7.33,0.32,0.32,0.86,-0.11,1.98,1.97
1900-01-01 18:18:24.561,40.29,2.44,-4.04,0.04,0.64,0.75,2.92,-4.53,4.62,20.72,20.95,-7.04,0.35,0.34,0.84,0.11,1.24,1.21
1900-01-01 18:18:24.608,39.95,5.33,-3.18,0.09,0.65,0.77,1.5,-9.02,8.63,19.41,21.99,-6.86,0.37,0.33,0.85,-0.87,-4.85,2.31
1900-01-01 18:18:24.702,39.33,3.77,-1.71,0.06,0.61,0.74,1.83,-4.27,9.08,18.76,21.84,-6.52,0.36,0.31,0.85,-2.64,-0.56,0.8
1900-01-01 18:18:24.796,40.27,6.1,-0.17,0.1,0.64,0.74,4.24,2.11,9.93,19.25,21.33,-6.41,0.35,0.32,0.84,-1.84,1.47,0.33
1900-01-01 18:18:24.842,41.39,8.66,1.49,0.16,0.69,0.77,-1.15,-6.82,5.56,20.15,21.75,-6.37,0.36,0.34,0.84,-1.84,-0.06,-1.16
1900-01-01 18:18:24.936,40.81,9.19,2.5,0.17,0.68,0.77,0.72,-7.37,3.02,19.16,22.55,-6.55,0.37,0.32,0.84,-1.37,0.01,-1.17
1900-01-01 18:18:24.984,40.31,8.06,3.12,0.14,0.65,0.75,-0.56,-1.5,-1.01,18.99,21.94,-6.74,0.37,0.32,0.85,-2.43,0.85,-0.52
1900-01-01 18:18:25.076,40.55,8.3,3.12,0.14,0.65,0.75,-0.95,0.73,-2.07,19.75,21.64,-6.82,0.36,0.33,0.84,-0.82,2.38,-0.22
1900-01-01 18:18:25.170,39.88,9.37,2.96,0.16,0.64,0.75,-1.86,0.48,-2.37,19.38,22.24,-6.87,0.37,0.32,0.84,-1.28,1.83,-0.05
1900-01-01 18:18:25.218,40.03,8.51,2.76,0.15,0.64,0.75,-1.0,-0.16,-1.66,19.29,21.87,-6.88,0.36,0.32,0.84,-1.02,1.51,0.02
1900-01-01 18:18:25.312,39.85,8.39,2.67,0.14,0.63,0.74,0.41,0.06,-2.16,19.08,21.7,-6.89,0.36,0.32,0.85,-0.51,2.15,-0.27
1900-01-01 18:18:25.359,39.84,8.64,2.5,0.15,0.64,0.76,-1.53,0.05,-2.27,19.09,22.07,-6.94,0.37,0.32,0.85,-1.36,1.85,0.34
1900-01-01 18:18:25.454,39.66,8.29,2.31,0.14,0.63,0.75,-1.75,-0.08,-0.91,19.08,21.76,-6.89,0.36,0.32,0.85,-1.27,1.49,0.71
1900-01-01 18:18:25.548,39.92,8.7,2.33,0.15,0.64,0.75,-1.76,-0.87,-0.34,19.05,21.91,-6.79,0.36,0.32,0.85,-1.37,1.37,0.37
1900-01-01 18:18:25.594,39.6,8.59,2.44,0.15,0.64,0.75,-0.98,-0.79,-1.22,19.02,22.03,-6.75,0.36,0.32,0.84,-1.47,1.08,0.11
1900-01-01 18:18:25.688,39.8,8.69,2.41,0.15,0.65,0.76,-1.66,-0.63,-0.8,19.14,21.96,-6.74,0.36,0.32,0.84,-1.33,1.31,0.19
1900-01-01 18:18:25.782,39.82,8.42,2.45,0.15,0.65,0.77,-2.34,0.76,-4.0,19.03,22.03,-6.72,0.37,0.32,0.85,-1.62,1.73,-0.4
1900-01-01 18:18:25.829,39.17,7.64,2.0,0.13,0.61,0.74,-3.76,1.07,-4.29,18.67,21.56,-6.79,0.36,0.31,0.85,-1.67,1.37,-0.6
1900-01-01 18:18:25.925,39.15,6.75,1.51,0.12,0.62,0.75,2.73,-2.5,-1.24,19.37,21.29,-6.89,0.35,0.32,0.85,-0.52,0.79,-0.24
1900-01-01 18:18:25.971,38.42,8.58,1.48,0.15,0.63,0.78,-0.01,0.24,-2.08,19.15,22.4,-6.93,0.37,0.32,0.84,-1.5,1.6,0.11
1900-01-01 18:18:26.065,39.64,7.14,1.32,0.12,0.63,0.75,-2.67,0.85,0.74,19.43,21.32,-6.93,0.35,0.32,0.85,-1.2,1.66,1.31
1900-01-01 18:18:26.160,40.03,7.87,1.59,0.14,0.64,0.75,-0.26,-0.89,-0.01,18.89,21.94,-6.74,0.36,0.32,0.85,-1.24,1.04,0.09
1900-01-01 18:18:26.207,39.39,7.52,1.75,0.13,0.63,0.76,1.04,-1.34,-1.24,19.02,21.76,-6.73,0.36,0.32,0.85,-1.34,0.73,-0.42
1900-01-01 18:18:26.301,38.94,7.77,1.72,0.14,0.63,0.77,-0.61,-0.33,-0.71,19.13,21.92,-6.8,0.36,0.32,0.85,-1.25,1.31,0.2
1900-01-01 18:18:26.347,39.41,7.72,1.77,0.13,0.63,0.76,-1.27,0.23,-0.47,18.86,21.94,-6.78,0.36,0.31,0.85,-1.33,1.51,0.56
1900-01-01 18:18:26.442,39.55,7.81,1.85,0.13,0.63,0.75,-0.34,-0.04,-0.82,19.13,21.71,-6.71,0.36,0.32,0.85,-1.27,1.39,0.16
1900-01-01 18:18:26.535,39.45,7.79,1.89,0.13,0.63,0.76,-0.16,-0.19,-0.96,18.98,21.71,-6.69,0.36,0.32,0.85,-1.37,1.22,-0.08
1900-01-01 18:18:26.582,39.37,7.84,1.9,0.14,0.64,0.76,-0.63,-0.09,-0.93,18.8,22.06,-6.71,0.37,0.31,0.85,-1.24,1.44,-0.03
1900-01-01 18:18:26.676,39.46,7.43,1.92,0.13,0.63,0.75,-0.66,0.01,-0.86,19.15,21.63,-6.72,0.36,0.32,0.85,-1.11,1.43,0.18
1900-01-01 18:18:26.771,39.51,7.73,1.95,0.13,0.63,0.76,-0.28,-0.55,-0.51,19.38,21.68,-6.7,0.36,0.32,0.85,-1.26,1.07,0.16
1900-01-01 18:18:26.819,39.27,7.95,2.03,0.14,0.63,0.76,-0.02,-0.31,-0.46,19.06,21.77,-6.69,0.36,0.32,0.85,-1.39,1.12,0.08
1900-01-01 18:18:26.913,39.82,7.7,2.11,0.13,0.64,0.75,-0.27,-0.91,0.0,19.12,21.62,-6.68,0.36,0.32,0.85,-1.08,1.14,0.2
1900-01-01 18:18:26.960,39.78,7.9,2.27,0.14,0.64,0.76,0.54,-1.11,-0.82,19.12,21.81,-6.66,0.36,0.32,0.85,-0.97,1.01,-0.08
1900-01-01 18:18:27.054,39.43,8.22,2.31,0.14,0.64,0.77,-1.95,0.19,-1.15,18.74,21.06,-6.68,0.36,0.32,0.87,-3.92,-3.02,-1.62
1900-01-01 18:18:27.147,38.11,7.56,2.29,0.13,0.62,0.78,-5.83,0.27,-0.82,20.58,27.75,-6.94,0.43,0.32,0.74,-3.89,-0.44,3.91
1900-01-01 18:18:27.193,37.84,8.59,2.33,0.15,0.6,0.75,0.61,-1.23,0.29,19.02,18.73,-6.35,0.32,0.33,0.9,0.37,14.93,1.66
1900-01-01 18:18:27.287,38.55,8.33,2.53,0.14,0.61,0.75,0.36,-0.24,-1.25,18.71,19.33,-6.11,0.33,0.32,0.87,-1.44,2.91,-0.65
1900-01-01 18:18:27.335,38.17,7.98,2.5,0.14,0.62,0.78,0.51,-0.51,-1.27,18.86,22.01,-6.22,0.36,0.31,0.83,-2.33,-2.39,-1.16
1900-01-01 18:18:27.428,38.4,8.42,2.46,0.15,0.62,0.77,0.1,-0.47,-0.7,19.8,20.64,-6.4,0.35,0.33,0.86,-0.76,1.37,0.52
1900-01-01 18:18:27.523,38.96,8.05,2.51,0.14,0.62,0.76,-0.37,0.02,-1.43,18.95,20.41,-6.33,0.34,0.32,0.86,-0.88,1.96,0.32
1900-01-01 18:18:27.569,38.99,8.21,2.45,0.14,0.63,0.77,0.68,-0.6,-1.17,18.96,21.07,-6.29,0.35,0.32,0.85,-1.16,-0.76,-0.41
1900-01-01 18:18:27.664,38.86,8.36,2.43,0.15,0.63,0.76,-0.28,-0.41,-0.69,19.04,21.73,-6.36,0.36,0.32,0.85,-0.82,0.68,-0.49
1900-01-01 18:18:27.756,38.97,8.28,2.49,0.14,0.62,0.76,-1.08,-0.18,-1.25,19.24,21.15,-6.45,0.35,0.32,0.85,-1.32,1.79,0.33
1900-01-01 18:18:27.802,39.12,8.43,2.45,0.15,0.63,0.76,-0.47,-0.67,-0.63,18.87,21.14,-6.41,0.35,0.31,0.85,-1.6,0.02,0.37
1900-01-01 18:18:27.897,38.95,8.29,2.52,0.14,0.63,0.76,-0.02,-0.37,-0.57,18.66,21.57,-6.36,0.36,0.31,0.85,-2.19,-2.13,-0.45
1900-01-01 18:18:27.946,39.01,8.27,2.59,0.14,0.63,0.76,0.03,-0.28,-0.91,18.96,21.59,-6.43,0.36,0.32,0.85,-1.34,0.24,-0.45
1900-01-01 18:18:28.038,38.92,8.38,2.61,0.14,0.63,0.76,0.02,-0.09,-1.21,18.63,22.01,-6.51,0.37,0.31,0.85,-0.76,1.09,0.32
1900-01-01 18:18:28.132,39.23,8.3,2.58,0.14,0.63,0.76,-0.43,-0.06,-1.02,18.82,21.63,-6.47,0.36,0.31,0.85,-0.99,1.12,0.6
1900-01-01 18:18:28.178,39.16,8.21,2.59,0.14,0.63,0.76,-0.5,-0.21,-1.13,18.81,21.77,-6.39,0.36,0.31,0.85,-1.1,1.31,0.19
1900-01-01 18:18:28.272,39.14,8.44,2.57,0.15,0.63,0.76,-0.27,-0.5,-0.82,18.92,21.91,-6.37,0.36,0.32,0.85,-1.11,0.94,-0.09
1900-01-01 18:18:28.366,39.02,8.24,2.61,0.14,0.62,0.76,-0.08,-0.56,-0.56,18.93,21.7,-6.39,0.36,0.32,0.85,-1.24,0.83,-0.27
1900-01-01 18:18:28.413,38.65,8.36,2.68,0.14,0.61,0.75,0.01,-0.45,0.35,18.67,22.04,-6.44,0.37,0.31,0.85,-1.0,1.21,-0.4
1900-01-01 18:18:28.506,39.32,8.02,2.89,0.14,0.62,0.75,-1.25,-0.84,2.88,19.26,21.68,-6.51,0.36,0.32,0.85,-1.06,1.49,0.86
1900-01-01 18:18:28.554,39.46,9.41,3.48,0.16,0.63,0.74,0.25,1.62,4.09,19.25,21.93,-6.39,0.36,0.32,0.85,-1.82,0.92,0.24
1900-01-01 18:18:28.648,39.8,9.93,4.26,0.17,0.63,0.74,0.99,-3.99,5.19,19.31,21.76,-6.36,0.36,0.32,0.85,-1.44,0.66,-0.45
1900-01-01 18:18:28.742,38.36,10.47,5.21,0.18,0.61,0.75,1.1,-6.15,6.33,19.09,21.66,-6.44,0.36,0.32,0.85,-1.78,1.6,-0.55
1900-01-01 18:18:28.788,39.2,12.55,6.33,0.22,0.63,0.74,-2.61,-5.13,8.92,19.34,21.51,-6.53,0.36,0.32,0.84,-2.02,2.39,-1.07
1900-01-01 18:18:28.883,38.51,14.97,7.85,0.26,0.63,0.75,0.59,-7.66,10.48,19.13,21.9,-6.7,0.36,0.32,0.85,-3.74,0.67,-1.21
1900-01-01 18:18:28.930,36.74,15.11,9.6,0.26,0.6,0.76,1.42,-5.32,11.02,16.99,21.78,-6.89,0.36,0.28,0.86,-2.05,2.02,-0.08
1900-01-01 18:18:29.024,36.6,17.99,11.44,0.32,0.61,0.76,2.44,-1.1,10.31,15.72,22.37,-6.91,0.37,0.26,0.86,-2.05,0.85,0.31
1900-01-01 18:18:29.118,41.45,18.0,13.17,0.34,0.74,0.76,0.4,6.57,-0.51,18.96,22.11,-6.87,0.37,0.32,0.85,-7.45,-0.23,-2.64
1900-01-01 18:18:29.165,38.6,16.74,13.25,0.28,0.61,0.72,4.41,7.24,-11.05,18.55,21.45,-7.28,0.36,0.31,0.85,-5.31,-0.35,-2.09
1900-01-01 18:18:29.259,38.66,13.36,11.72,0.22,0.59,0.71,-3.59,3.96,0.46,14.27,21.37,-7.61,0.35,0.24,0.87,-3.49,0.45,0.13
1900-01-01 18:18:29.352,39.29,17.13,11.95,0.3,0.65,0.74,-4.85,1.67,2.08,18.34,22.67,-7.6,0.38,0.31,0.86,-4.16,0.03,0.33
1900-01-01 18:18:29.399,35.62,13.88,12.42,0.24,0.58,0.78,-4.77,7.03,0.63,13.08,22.88,-7.56,0.38,0.22,0.87,-4.24,2.31,-0.31
1900-01-01 18:18:29.493,37.44,14.58,12.68,0.25,0.61,0.76,-1.24,5.43,3.02,16.04,22.35,-7.62,0.37,0.27,0.86,-2.08,1.67,1.68
1900-01-01 18:18:29.539,37.58,14.36,13.29,0.24,0.6,0.74,2.82,0.58,1.72,15.79,22.35,-7.37,0.37,0.27,0.86,-0.22,2.34,1.09
1900-01-01 18:18:29.634,37.72,14.53,13.71,0.24,0.59,0.73,4.27,-1.42,2.6,15.72,21.91,-7.21,0.36,0.26,0.86,-0.57,1.66,1.33
1900-01-01 18:18:29.728,38.32,14.97,14.27,0.25,0.61,0.73,2.88,-4.13,7.75,15.51,21.84,-7.02,0.36,0.26,0.86,1.26,3.0,1.19
1900-01-01 18:18:29.774,38.14,17.03,15.6,0.29,0.62,0.73,4.19,-6.44,8.23,16.32,21.92,-6.85,0.36,0.27,0.86,2.27,4.52,0.38
1900-01-01 18:18:29.868,38.53,18.85,17.01,0.33,0.63,0.72,4.96,-5.39,9.17,17.65,20.86,-6.8,0.35,0.29,0.86,2.16,4.6,-0.11
1900-01-01 18:18:29.962,38.35,20.42,18.56,0.35,0.63,0.71,4.85,-5.27,11.21,17.84,21.06,-6.82,0.35,0.3,0.87,1.2,4.4,0.24
1900-01-01 18:18:30.009,38.54,21.58,20.43,0.37,0.63,0.7,9.0,-5.61,12.44,17.67,19.75,-6.8,0.33,0.29,0.86,0.79,6.34,1.61
1900-01-01 18:18:30.103,39.68,25.01,22.48,0.44,0.66,0.66,12.02,-1.89,5.31,19.75,20.64,-6.56,0.35,0.34,0.87,1.06,3.97,-0.36
1900-01-01 18:18:30.151,42.05,23.88,23.44,0.41,0.67,0.63,4.95,-2.56,4.01,18.84,18.35,-6.62,0.3,0.31,0.86,-2.24,2.14,-0.66
1900-01-01 18:18:30.244,42.68,23.86,24.21,0.42,0.7,0.64,-2.3,-2.81,-1.37,18.31,18.82,-6.73,0.31,0.3,0.86,-1.16,2.34,-0.28
1900-01-01 18:18:30.340,41.75,23.83,24.16,0.41,0.68,0.64,-5.92,1.4,-9.05,18.61,18.49,-6.78,0.31,0.31,0.87,-2.34,1.68,-1.5
1900-01-01 18:18:30.387,40.31,24.86,22.94,0.43,0.65,0.64,-8.14,-0.83,-10.93,18.26,20.02,-7.02,0.34,0.31,0.87,-4.13,-0.95,-0.08
1900-01-01 18:18:30.482,41.06,22.43,21.41,0.39,0.67,0.66,-7.98,0.4,-14.44,17.69,19.68,-7.04,0.33,0.3,0.87,-4.18,-2.81,-3.47
1900-01-01 18:18:30.530,40.01,20.76,19.36,0.36,0.65,0.68,-12.82,3.34,-19.48,17.12,19.88,-7.58,0.33,0.29,0.88,-8.51,-3.34,-2.24
1900-01-01 18:18:30.623,41.86,18.24,16.52,0.32,0.69,0.7,-13.5,4.72,-18.4,17.31,19.49,-7.94,0.33,0.29,0.88,-9.01,-2.51,-4.34
1900-01-01 18:18:30.715,37.99,14.71,13.84,0.25,0.6,0.73,-7.18,1.27,-23.16,16.62,19.52,-8.61,0.32,0.28,0.87,-1.05,-0.98,-5.24
1900-01-01 18:18:30.763,33.57,15.09,10.45,0.26,0.54,0.78,-5.22,-2.18,-13.53,15.72,21.17,-9.43,0.35,0.26,0.87,0.82,-0.32,-2.34
1900-01-01 18:18:30.856,35.65,12.96,8.53,0.22,0.58,0.78,-0.13,-2.59,0.37,16.62,20.12,-9.79,0.33,0.28,0.87,1.25,2.19,0.88
1900-01-01 18:18:30.951,37.21,15.13,8.74,0.26,0.61,0.75,3.45,-1.04,3.14,17.76,20.79,-9.67,0.35,0.3,0.86,3.77,2.59,2.14
1900-01-01 18:18:30.997,38.53,16.16,9.38,0.28,0.62,0.72,2.01,-1.82,7.4,16.86,21.08,-9.35,0.35,0.28,0.87,-1.31,1.59,2.65
1900-01-01 18:18:31.092,39.75,16.49,10.66,0.29,0.65,0.72,2.44,-3.54,6.2,17.28,20.54,-8.96,0.34,0.29,0.86,-0.4,2.52,1.84
1900-01-01 18:18:31.186,38.71,17.17,11.76,0.3,0.63,0.73,2.03,-0.66,3.24,16.85,21.21,-8.69,0.35,0.28,0.86,-0.26,2.31,1.32
1900-01-01 18:18:31.233,38.73,17.11,12.41,0.29,0.63,0.72,1.79,-0.1,1.46,17.43,20.71,-8.5,0.35,0.29,0.87,0.98,2.87,0.91
1900-01-01 18:18:31.327,41.83,17.12,12.79,0.3,0.68,0.7,1.92,-0.18,1.33,21.43,17.43,-8.37,0.29,0.35,0.85,-2.08,0.65,1.57
1900-01-01 18:18:31.375,39.97,17.56,13.15,0.31,0.65,0.71,0.81,2.08,-0.21,18.71,20.69,-8.14,0.34,0.31,0.85,1.27,2.18,1.75
1900-01-01 18:18:31.468,39.1,18.6,13.28,0.32,0.62,0.7,0.32,0.79,-2.44,18.83,20.52,-7.88,0.34,0.31,0.86,-0.89,1.02,0.5
1900-01-01 18:18:31.563,40.39,16.8,13.07,0.29,0.65,0.71,-0.92,-1.72,0.14,18.28,19.63,-7.81,0.33,0.3,0.86,-0.26,1.12,0.15
1900-01-01 18:18:31.610,40.03,17.31,13.25,0.3,0.66,0.72,-0.55,1.05,-3.84,18.01,20.88,-7.8,0.35,0.3,0.86,1.11,-0.34,2.11
1900-01-01 18:18:31.704,38.76,16.97,12.82,0.29,0.62,0.72,-2.35,0.11,-3.97,19.15,17.07,-7.48,0.3,0.33,0.91,-0.91,-8.76,7.43
1900-01-01 18:18:31.751,38.58,16.01,12.37,0.28,0.64,0.75,-10.66,1.44,-2.97,17.47,25.32,-6.36,0.41,0.29,0.81,-0.88,-15.37,9.24
1900-01-01 18:18:31.844,37.18,15.97,12.07,0.28,0.62,0.76,-9.22,2.47,-2.6,17.32,26.3,-4.95,0.44,0.29,0.84,2.84,-8.97,11.26
1900-01-01 18:18:31.939,36.31,12.7,11.84,0.21,0.57,0.74,-6.23,6.15,-0.89,18.96,26.74,-3.23,0.44,0.32,0.81,-0.15,-6.12,5.02
1900-01-01 18:18:31.986,36.16,14.97,11.86,0.25,0.57,0.74,-7.17,0.57,0.37,16.32,29.19,-2.47,0.48,0.27,0.81,-1.25,-4.89,3.45
1900-01-01 18:18:32.079,33.51,17.81,12.07,0.3,0.54,0.76,-1.44,-0.29,-2.82,16.4,32.53,-1.96,0.54,0.28,0.79,-1.14,-11.55,-2.92
1900-01-01 18:18:32.174,34.28,17.85,11.8,0.31,0.57,0.78,-2.15,-0.73,-5.24,17.93,37.63,-2.41,0.6,0.3,0.71,-4.61,-19.49,-6.65
1900-01-01 18:18:32.220,35.79,15.1,11.15,0.26,0.59,0.77,4.56,3.88,-3.87,20.0,38.67,-3.45,0.58,0.32,0.66,-8.62,7.78,-7.24
1900-01-01 18:18:32.314,35.41,13.75,10.72,0.24,0.58,0.78,3.76,1.4,-1.92,13.2,35.63,-4.56,0.52,0.2,0.7,-18.21,55.68,-17.66
1900-01-01 18:18:32.363,40.65,11.76,10.58,0.2,0.65,0.72,5.66,-0.97,-2.77,16.93,21.17,-7.28,0.36,0.29,0.88,2.69,-2.15,-1.47
1900-01-01 18:18:32.458,37.09,14.31,10.32,0.25,0.62,0.77,6.72,-2.05,-1.16,15.87,24.39,-7.51,0.41,0.27,0.86,1.92,-0.59,-1.86
1900-01-01 18:18:32.552,37.87,13.52,10.3,0.23,0.62,0.76,1.57,0.79,-0.94,15.91,24.15,-7.8,0.4,0.27,0.85,-0.49,2.44,0.37
1900-01-01 18:18:32.599,38.85,13.88,10.31,0.24,0.63,0.74,0.5,0.21,-0.93,16.82,23.8,-7.76,0.39,0.28,0.85,0.54,1.97,0.48
1900-01-01 18:18:32.694,38.99,14.38,10.33,0.25,0.63,0.74,1.4,-1.02,-0.91,17.61,24.03,-7.69,0.4,0.3,0.84,1.05,0.99,-0.08
1900-01-01 18:18:32.787,39.09,14.45,10.35,0.25,0.63,0.74,0.51,-0.87,-0.81,17.29,24.14,-7.71,0.4,0.29,0.84,-1.35,0.44,0.05
1900-01-01 18:18:32.835,39.36,14.06,10.39,0.24,0.64,0.74,0.03,-0.82,-0.65,17.59,23.95,-7.71,0.4,0.29,0.84,-0.7,1.24,0.21
1900-01-01 18:18:32.930,39.61,14.24,10.45,0.25,0.64,0.73,0.13,-0.74,-0.59,17.22,24.01,-7.69,0.4,0.29,0.84,-0.09,1.94,0.32
1900-01-01 18:18:32.976,39.74,14.32,10.51,0.25,0.64,0.73,0.67,-1.03,-0.96,17.86,23.82,-7.65,0.4,0.3,0.84,0.02,1.36,-0.12
1900-01-01 18:18:33.071,39.71,14.67,10.53,0.25,0.64,0.73,0.47,-1.16,-0.62,18.19,24.07,-7.68,0.4,0.31,0.84,-0.21,0.82,-0.29
1900-01-01 18:18:33.166,39.54,14.83,10.59,0.26,0.64,0.73,-0.15,-0.85,-0.84,18.19,24.22,-7.73,0.4,0.31,0.84,-1.53,0.66,-0.07
1900-01-01 18:18:33.213,39.55,14.59,10.62,0.25,0.64,0.73,-0.27,-0.56,-0.76,17.89,24.31,-7.75,0.4,0.3,0.84,-1.14,1.14,0.22
1900-01-01 18:18:33.307,39.8,14.48,10.66,0.25,0.64,0.73,-0.48,-0.05,-0.77,17.71,23.91,-7.72,0.4,0.3,0.84,-1.37,1.4,0.27
1900-01-01 18:18:33.352,39.84,14.68,10.7,0.25,0.64,0.72,-0.52,-0.41,-0.98,17.85,24.11,-7.69,0.4,0.3,0.84,-1.32,0.98,0.01
1900-01-01 18:18:33.446,39.99,14.68,10.71,0.25,0.64,0.72,-0.53,-0.6,-0.97,18.11,24.06,-7.7,0.4,0.3,0.84,-1.23,1.01,-0.18
1900-01-01 18:18:33.541,39.62,14.8,10.72,0.26,0.64,0.73,-0.5,-0.78,-1.01,17.85,24.27,-7.74,0.4,0.3,0.84,-1.07,1.27,-0.14
1900-01-01 18:18:33.588,39.8,14.63,10.73,0.25,0.64,0.73,-0.89,-0.47,-0.9,18.03,24.12,-7.77,0.4,0.3,0.84,-1.04,1.6,-0.04
1900-01-01 18:18:33.686,39.92,14.7,10.75,0.25,0.64,0.72,-0.94,-0.45,-0.53,18.01,23.99,-7.78,0.4,0.3,0.84,-0.95,1.63,0.15
1900-01-01 18:18:33.777,39.53,14.99,10.83,0.26,0.64,0.73,-0.5,-0.76,-0.44,18.02,24.37,-7.77,0.4,0.3,0.84,-0.93,1.15,0.0
1900-01-01 18:18:33.824,39.88,14.91,10.92,0.26,0.64,0.72,-0.49,-0.69,-0.7,18.07,24.05,-7.77,0.4,0.3,0.84,-1.09,1.15,-0.08
1900-01-01 18:18:33.921,39.44,14.96,10.97,0.26,0.64,0.73,-0.5,-0.46,-0.98,18.15,24.12,-7.8,0.4,0.3,0.84,-0.84,1.51,0.09
1900-01-01 18:18:33.967,39.67,14.96,10.98,0.26,0.64,0.72,-0.95,-0.11,-0.96,18.13,24.05,-7.79,0.4,0.3,0.84,-0.98,1.71,0.15
1900-01-01 18:18:34.061,39.5,14.92,10.99,0.26,0.64,0.73,-1.65,-0.65,-0.85,18.34,23.64,-7.77,0.39,0.31,0.84,-0.53,1.52,0.53
1900-01-01 18:18:34.154,38.78,15.46,11.01,0.27,0.63,0.74,-1.74,-0.57,-1.48,18.53,24.65,-7.7,0.41,0.31,0.83,0.31,0.05,-1.07
1900-01-01 18:18:34.202,39.09,14.77,10.95,0.25,0.63,0.73,-3.79,0.98,-1.41,18.54,23.68,-7.87,0.4,0.31,0.85,-1.23,2.25,0.9
1900-01-01 18:18:34.296,38.81,14.22,10.89,0.25,0.63,0.74,-3.47,-0.64,-2.08,17.01,22.89,-7.74,0.39,0.29,0.87,3.09,-0.79,-0.19
1900-01-01 18:18:34.343,38.71,12.86,10.73,0.22,0.62,0.75,-1.55,-2.57,-2.41,15.07,21.89,-7.78,0.39,0.27,0.94,21.04,-27.93,-1.85
1900-01-01 18:18:34.437,38.72,8.29,10.52,0.14,0.61,0.75,8.27,-7.1,2.47,22.75,22.7,-8.07,0.41,0.41,0.88,16.43,-21.13,-5.07
1900-01-01 18:18:34.531,40.19,13.6,11.05,0.25,0.7,0.79,-5.48,-17.29,6.37,25.42,28.11,-8.86,0.54,0.49,0.88,5.06,-50.45,3.79
1900-01-01 18:18:34.577,35.43,23.2,12.19,0.44,0.64,0.79,-13.05,-30.24,15.79,24.66,45.06,-8.29,0.78,0.46,0.62,1.42,-66.63,11.75
1900-01-01 18:18:34.675,27.64,33.46,14.78,0.59,0.5,0.74,-12.18,-29.89,14.52,21.88,59.72,-6.48,0.88,0.38,0.34,-1.28,-55.25,10.83
1900-01-01 18:18:34.766,26.86,38.03,17.18,0.61,0.45,0.64,-12.05,-22.24,12.92,23.53,64.63,-4.82,0.83,0.37,0.14,-3.06,-25.4,8.5
1900-01-01 18:18:34.814,25.12,41.15,19.33,0.65,0.42,0.62,-17.0,-1.15,7.29,18.89,70.06,-3.52,0.89,0.31,0.1,-18.99,5.89,11.61
1900-01-01 18:18:34.910,25.68,37.23,20.61,0.6,0.43,0.66,-11.47,5.5,4.15,22.14,57.61,-1.74,0.78,0.35,0.35,-19.91,42.13,2.08
1900-01-01 18:18:34.957,27.33,28.18,21.41,0.43,0.42,0.69,-15.04,9.76,3.15,14.75,43.15,-1.43,0.62,0.23,0.62,-20.15,48.53,1.15
1900-01-01 18:18:35.054,25.51,26.32,22.05,0.42,0.41,0.74,-11.85,7.11,1.53,11.61,43.83,-1.27,0.66,0.19,0.66,-20.4,17.25,-2.25
1900-01-01 18:18:35.146,22.5,28.36,22.44,0.47,0.38,0.78,-1.63,4.08,-1.8,13.27,41.37,-1.62,0.67,0.23,0.73,-7.66,-6.63,4.07
1900-01-01 18:18:35.193,19.56,30.1,22.32,0.52,0.35,0.83,-5.48,2.63,-1.36,9.46,49.37,-1.01,0.78,0.17,0.65,-8.27,-11.76,6.98
1900-01-01 18:18:35.287,19.31,28.78,22.27,0.49,0.34,0.83,-6.5,1.82,-4.1,7.35,52.15,0.05,0.79,0.13,0.6,-8.82,-4.99,6.4
1900-01-01 18:18:35.381,19.68,28.59,21.81,0.5,0.35,0.84,-7.52,1.91,-4.61,6.88,53.15,1.02,0.81,0.12,0.6,-3.52,-3.85,11.6
1900-01-01 18:18:35.429,20.51,27.89,21.26,0.48,0.36,0.84,-6.6,1.56,-4.57,8.09,51.25,2.78,0.78,0.14,0.61,4.82,3.74,17.56
1900-01-01 18:18:35.524,21.23,26.19,20.73,0.44,0.36,0.82,0.14,1.68,-1.06,7.21,52.05,5.44,0.78,0.12,0.6,1.74,2.04,0.99
1900-01-01 18:18:35.572,20.29,28.88,20.73,0.49,0.35,0.81,3.85,0.8,-4.15,7.48,53.4,5.58,0.79,0.13,0.57,8.69,-0.44,-0.77
1900-01-01 18:18:35.664,20.05,28.25,20.26,0.47,0.34,0.81,2.79,2.44,-4.98,8.3,52.56,5.45,0.78,0.14,0.58,7.21,1.21,-2.11
1900-01-01 18:18:35.759,20.63,26.15,19.66,0.46,0.37,0.86,0.82,1.14,-5.1,8.15,53.12,5.12,0.83,0.15,0.61,3.48,1.7,-0.79
1900-01-01 18:18:35.807,21.25,26.69,19.05,0.46,0.37,0.84,0.53,-0.32,-3.61,9.02,53.21,5.0,0.8,0.16,0.58,3.74,0.67,2.03
1900-01-01 18:18:35.901,21.41,25.91,18.66,0.45,0.37,0.84,-2.23,1.72,-0.63,8.93,52.67,5.3,0.8,0.16,0.59,-1.81,2.96,1.54
1900-01-01 18:18:35.994,21.1,26.57,18.72,0.46,0.37,0.83,-2.15,1.44,-0.56,8.32,52.81,5.52,0.81,0.15,0.59,-2.55,3.24,1.03
1900-01-01 18:18:36.042,21.73,25.6,18.79,0.44,0.38,0.84,-1.02,-0.56,-0.77,8.76,52.42,5.67,0.8,0.15,0.59,-3.05,1.79,0.39
1900-01-01 18:18:36.137,20.95,26.22,18.83,0.44,0.36,0.82,-0.5,-0.18,-0.38,8.74,52.39,5.72,0.78,0.15,0.59,-2.37,1.37,-0.51
1900-01-01 18:18:36.188,20.95,26.69,18.94,0.46,0.36,0.83,-2.92,0.37,0.4,8.89,52.28,5.63,0.79,0.15,0.59,-7.83,-0.37,-2.33
1900-01-01 18:18:36.281,19.83,25.18,19.16,0.42,0.34,0.83,-3.93,-0.33,1.8,7.69,46.2,5.27,0.71,0.13,0.67,-7.18,-2.54,-3.73
1900-01-01 18:18:36.328,21.92,21.52,19.59,0.38,0.38,0.88,-7.38,-5.66,11.06,9.47,49.11,4.69,0.79,0.17,0.66,-10.38,-25.08,-7.54
1900-01-01 18:18:36.421,18.41,25.53,21.45,0.42,0.31,0.82,-0.89,-7.06,18.59,11.64,51.98,3.53,0.75,0.19,0.55,6.99,-17.69,4.09
1900-01-01 18:18:36.515,17.72,29.17,24.44,0.47,0.3,0.8,2.5,1.11,23.92,12.37,56.62,4.14,0.79,0.2,0.48,16.42,-17.96,20.07
1900-01-01 18:18:36.561,11.34,32.0,28.26,0.51,0.19,0.79,2.1,6.34,16.41,-3.36,72.62,7.2,0.91,-0.06,0.28,16.7,-8.91,17.63
1900-01-01 18:18:36.655,8.69,34.72,30.93,0.59,0.16,0.84,3.91,7.9,2.69,-2.75,74.39,9.89,1.02,-0.05,0.28,5.91,5.6,6.92
1900-01-01 18:18:36.751,12.8,32.13,31.49,0.58,0.24,0.89,5.55,4.53,-7.21,3.9,67.99,10.93,1.0,0.07,0.4,-1.83,8.31,-4.63
1900-01-01 18:18:36.798,16.58,28.98,30.55,0.51,0.3,0.87,2.46,2.66,-6.85,6.77,63.79,10.21,0.93,0.12,0.44,-3.03,5.33,-4.11
1900-01-01 18:18:36.892,17.85,27.45,29.67,0.46,0.31,0.84,2.13,1.24,-6.79,5.21,63.56,9.58,0.91,0.09,0.44,-2.77,3.73,-4.79
1900-01-01 18:18:36.938,18.37,26.88,28.8,0.46,0.32,0.84,4.36,-0.92,-8.68,7.56,61.01,8.84,0.9,0.13,0.48,-2.46,0.08,-7.21
1900-01-01 18:18:37.031,18.4,27.38,27.63,0.47,0.33,0.86,2.89,-1.79,-6.63,7.74,61.62,7.74,0.91,0.14,0.47,-0.6,0.77,-6.15
1900-01-01 18:18:37.125,19.28,27.43,26.78,0.48,0.34,0.86,0.91,-2.36,-4.36,8.06,63.35,6.79,0.92,0.14,0.44,-1.24,1.19,-4.82
1900-01-01 18:18:37.173,19.93,27.1,26.28,0.47,0.35,0.84,0.0,-2.2,-4.24,8.42,62.5,6.05,0.9,0.15,0.45,-2.54,1.11,-4.4
1900-01-01 18:18:37.268,21.17,26.83,25.79,0.46,0.37,0.83,1.2,-1.48,-3.98,10.39,60.5,5.38,0.88,0.18,0.46,-1.94,-0.52,-2.65
1900-01-01 18:18:37.362,20.57,27.89,25.34,0.47,0.36,0.82,1.05,-1.51,-3.14,9.91,61.61,4.96,0.88,0.17,0.44,-1.31,1.4,-3.1
1900-01-01 18:18:37.408,21.33,27.31,25.02,0.47,0.37,0.83,-0.26,-1.24,-2.24,10.57,61.96,4.48,0.9,0.19,0.44,-1.69,1.2,-1.7
1900-01-01 18:18:37.502,20.96,27.61,24.84,0.48,0.37,0.84,-1.02,-0.49,-1.47,10.16,62.87,4.21,0.92,0.18,0.43,-1.11,0.6,-0.1
1900-01-01 18:18:37.549,19.37,29.58,24.77,0.52,0.35,0.84,-0.45,-1.41,-1.72,9.47,64.45,4.19,0.95,0.17,0.42,-0.38,1.25,-0.6
1900-01-01 18:18:37.643,20.51,29.47,24.67,0.52,0.37,0.84,-0.68,-3.66,-1.3,11.25,62.21,4.09,0.93,0.21,0.45,-0.93,-2.31,-0.98
1900-01-01 18:18:37.737,21.87,27.52,24.63,0.46,0.37,0.8,-1.31,-3.25,-0.01,11.31,60.9,3.93,0.85,0.19,0.43,0.27,-1.0,-0.3
