Time,Roll2,Pitch2,Yaw2,AccX2,AccY2,AccZ2,RotX2,RotY2,RotZ2,Roll1,Pitch1,Yaw1,AccX1,AccY1,AccZ1,RotX1,RotY1,RotZ1
1900-01-01 20:19:06.796,10.79,-0.38,8.26,-0.01,0.19,0.99,-0.66,-0.24,-1.48,17.81,12.62,7.72,0.21,0.29,0.89,-1.84,0.89,-1.21
1900-01-01 20:19:06.821,12.49,-0.14,8.2,0.0,0.22,0.98,0.78,1.74,-0.91,18.84,12.4,7.53,0.21,0.31,0.89,-1.55,1.68,0.19
1900-01-01 20:19:06.930,13.05,-0.88,8.22,-0.02,0.23,0.97,-0.81,0.12,-0.7,18.55,12.12,7.55,0.2,0.31,0.89,-1.49,1.19,0.0
1900-01-01 20:19:06.982,12.37,-0.7,8.27,-0.01,0.21,0.98,-1.98,-1.26,-0.74,18.42,12.16,7.54,0.2,0.3,0.89,-1.84,0.69,-0.1
1900-01-01 20:19:07.069,12.35,-0.43,8.32,-0.01,0.21,0.98,-1.08,-0.59,-1.03,18.49,12.3,7.52,0.21,0.31,0.89,-1.24,1.12,-0.15
1900-01-01 20:19:07.126,12.15,-0.61,8.32,-0.01,0.21,0.98,-0.91,-0.42,-0.92,18.45,12.16,7.48,0.2,0.31,0.89,-1.26,1.28,-0.03
1900-01-01 20:19:07.220,12.09,-0.66,8.34,-0.01,0.21,0.98,-0.76,-0.57,-0.98,18.35,12.27,7.47,0.2,0.3,0.89,-1.12,1.2,0.01
1900-01-01 20:19:07.269,12.12,-0.45,8.35,-0.01,0.21,0.98,-0.88,-0.47,-0.91,18.45,12.33,7.46,0.21,0.3,0.89,-1.27,1.27,0.04
1900-01-01 20:19:07.362,12.23,-0.29,8.37,-0.01,0.21,0.98,-0.95,-0.57,-0.96,18.66,12.32,7.46,0.21,0.31,0.89,-1.21,1.18,-0.11
1900-01-01 20:19:07.483,11.84,-0.36,8.38,-0.01,0.21,0.98,-0.39,-0.11,-0.92,18.43,12.31,7.44,0.21,0.3,0.89,-1.47,1.44,0.11
1900-01-01 20:19:07.504,12.16,-0.38,8.4,-0.01,0.21,0.98,-0.6,-0.02,-0.92,18.37,12.33,7.44,0.21,0.3,0.89,-1.47,1.45,0.14
1900-01-01 20:19:07.593,12.14,-0.5,8.42,-0.01,0.21,0.98,-0.48,-0.16,-0.94,18.28,12.22,7.46,0.2,0.3,0.89,-1.39,1.35,0.08
1900-01-01 20:19:07.700,12.1,-0.5,8.43,-0.01,0.21,0.98,0.27,-0.01,-1.15,18.15,12.28,7.46,0.2,0.3,0.89,-1.15,1.76,0.08
1900-01-01 20:19:07.740,12.33,-0.59,8.42,-0.01,0.21,0.98,0.02,-0.9,-1.15,18.3,12.2,7.46,0.2,0.3,0.9,-1.01,1.75,-0.11
1900-01-01 20:19:07.869,11.92,-0.87,8.4,-0.02,0.21,0.99,4.05,-2.4,-1.82,16.9,12.73,7.44,0.21,0.28,0.91,3.29,3.71,-0.69
1900-01-01 20:19:07.869,13.06,-2.67,8.28,-0.05,0.24,1.01,22.04,-6.04,-3.68,17.4,9.6,7.33,0.17,0.3,0.94,21.58,9.82,-6.2
1900-01-01 20:19:07.989,16.72,-2.92,7.88,-0.05,0.3,0.98,3.43,-10.99,-2.05,23.16,6.28,6.38,0.12,0.42,0.97,18.09,-1.35,2.81
1900-01-01 20:19:08.020,15.85,1.03,7.73,0.02,0.28,0.98,-7.49,-13.08,-4.23,21.85,9.79,6.8,0.17,0.37,0.91,-3.83,-15.51,2.45
1900-01-01 20:19:08.115,13.57,5.12,7.24,0.09,0.23,0.96,-4.63,-12.87,-9.79,22.46,17.39,7.16,0.26,0.33,0.76,-3.14,-13.98,-9.81
1900-01-01 20:19:08.208,16.47,5.27,5.9,0.09,0.27,0.91,-3.18,-7.27,-10.78,26.93,12.36,5.65,0.2,0.42,0.8,-6.99,-10.4,-8.62
1900-01-01 20:19:08.255,13.59,7.21,4.41,0.12,0.23,0.92,-6.24,-4.63,-11.5,21.75,20.13,4.32,0.3,0.32,0.74,-8.63,-10.4,-12.5
1900-01-01 20:19:08.373,19.97,12.09,2.8,0.2,0.33,0.89,20.34,1.27,-11.63,39.98,16.5,2.39,0.26,0.59,0.66,20.49,9.64,-19.31
1900-01-01 20:19:08.443,24.56,10.78,1.18,0.19,0.43,0.92,2.98,4.75,2.41,40.3,13.52,-0.57,0.24,0.67,0.75,4.02,9.97,8.5
1900-01-01 20:19:08.490,18.28,8.1,1.71,0.14,0.32,0.97,6.13,3.99,10.4,30.5,16.07,0.71,0.27,0.49,0.79,14.41,15.98,11.31
1900-01-01 20:19:08.569,17.66,4.79,3.45,0.09,0.32,0.99,0.09,5.09,9.62,27.92,11.88,2.42,0.21,0.47,0.86,-1.34,17.69,10.34
1900-01-01 20:19:08.666,17.21,0.67,5.06,0.01,0.31,0.99,-6.7,4.23,7.09,23.23,8.45,3.97,0.15,0.4,0.93,-19.73,2.15,4.31
1900-01-01 20:19:08.713,17.9,0.63,6.29,0.01,0.32,0.99,-0.15,0.87,1.97,25.91,9.37,4.62,0.16,0.43,0.87,-1.51,1.92,1.46
1900-01-01 20:19:08.809,18.12,4.32,6.75,0.07,0.31,0.94,-1.35,0.81,0.5,29.16,11.02,4.83,0.18,0.46,0.8,-2.09,5.74,1.09
1900-01-01 20:19:08.856,18.11,4.56,6.98,0.08,0.31,0.93,-2.48,2.55,1.82,27.3,11.47,4.98,0.19,0.43,0.81,-3.25,3.33,3.53
1900-01-01 20:19:08.955,18.17,4.7,7.42,0.08,0.31,0.94,-2.95,5.11,3.35,27.28,11.03,5.51,0.18,0.43,0.82,-11.69,7.27,3.86
1900-01-01 20:19:09.068,17.38,0.94,8.08,0.02,0.3,0.96,-3.08,4.85,2.46,22.92,7.89,6.09,0.13,0.38,0.88,-10.01,3.18,1.6
1900-01-01 20:19:09.104,16.32,0.88,8.61,0.02,0.28,0.96,-1.78,4.33,0.9,22.21,8.7,6.32,0.15,0.38,0.91,-4.5,-0.09,-0.73
1900-01-01 20:19:09.215,16.5,2.65,8.91,0.05,0.29,0.97,0.51,0.89,-0.69,24.13,10.12,6.2,0.17,0.4,0.87,-1.84,1.56,-0.08
1900-01-01 20:19:09.259,16.49,1.5,8.96,0.03,0.28,0.96,-0.98,2.17,0.02,23.1,9.73,6.18,0.16,0.38,0.87,-1.15,0.09,-0.24
1900-01-01 20:19:09.341,16.49,1.06,9.12,0.02,0.28,0.95,-0.41,0.87,0.34,22.63,9.81,6.14,0.16,0.37,0.86,-0.48,1.11,1.08
1900-01-01 20:19:09.482,17.03,2.35,9.33,0.04,0.3,0.97,-0.63,0.69,0.8,23.7,11.11,6.29,0.19,0.39,0.87,-0.2,-2.21,1.93
1900-01-01 20:19:09.482,17.57,1.51,9.61,0.03,0.3,0.95,-0.05,1.12,-0.57,24.66,10.21,6.57,0.17,0.39,0.84,1.56,-1.49,2.22
1900-01-01 20:19:09.631,16.87,0.54,9.68,0.01,0.29,0.96,-1.56,2.98,-1.35,24.24,11.65,6.9,0.19,0.4,0.86,-0.41,-0.66,2.73
1900-01-01 20:19:09.631,16.54,0.93,9.64,0.02,0.29,0.97,-0.63,2.25,-0.87,24.43,12.57,7.31,0.21,0.4,0.86,0.37,-0.09,4.08
1900-01-01 20:19:09.752,16.93,0.57,9.66,0.01,0.29,0.94,-1.18,2.34,-0.61,25.25,12.28,7.92,0.2,0.41,0.84,0.91,-2.4,4.72
1900-01-01 20:19:09.785,17.03,-0.32,9.73,-0.01,0.3,0.97,-0.02,3.46,-0.75,24.36,13.92,8.62,0.23,0.4,0.85,3.12,-1.03,7.53
1900-01-01 20:19:09.907,16.78,-0.87,9.77,-0.02,0.29,0.97,-1.63,2.11,-0.4,24.88,13.38,9.76,0.23,0.41,0.86,2.72,2.41,8.18
1900-01-01 20:19:10.034,16.75,-0.47,9.87,-0.01,0.29,0.95,-1.85,2.52,0.02,25.09,15.16,10.99,0.25,0.4,0.81,-0.07,2.05,4.99
1900-01-01 20:19:10.034,15.91,0.08,10.03,0.0,0.27,0.96,0.11,0.84,-1.12,25.87,15.66,11.73,0.26,0.42,0.83,6.72,0.73,4.7
1900-01-01 20:19:10.066,17.06,-0.6,10.02,-0.01,0.29,0.96,-2.98,0.84,-0.15,27.34,15.52,12.44,0.26,0.44,0.81,-1.54,0.37,0.16
1900-01-01 20:19:10.203,16.19,-1.19,10.16,-0.02,0.27,0.95,-7.56,0.13,1.23,25.02,14.86,12.45,0.25,0.41,0.83,-7.04,-1.05,-0.99
1900-01-01 20:19:10.380,15.3,-0.74,10.5,-0.01,0.27,0.98,-3.24,-0.56,-0.9,24.94,15.4,12.29,0.26,0.41,0.84,-2.87,0.82,-2.36
1900-01-01 20:19:10.380,14.61,-1.19,10.52,-0.02,0.25,0.97,0.22,-0.08,-1.34,26.4,14.41,11.92,0.24,0.43,0.83,-0.81,1.76,-1.14
1900-01-01 20:19:10.482,14.67,-1.55,10.48,-0.03,0.25,0.97,0.13,0.15,-0.99,24.49,14.81,11.74,0.25,0.4,0.84,-1.73,1.89,-0.08
1900-01-01 20:19:10.600,15.16,-0.98,10.49,-0.02,0.26,0.97,0.84,-0.29,-0.85,24.93,15.1,11.72,0.25,0.41,0.84,-1.05,1.31,0.17
1900-01-01 20:19:10.639,15.6,-0.9,10.51,-0.02,0.27,0.96,-1.66,-0.13,-0.96,25.96,15.03,11.74,0.25,0.42,0.82,-0.28,0.04,-1.05
1900-01-01 20:19:10.639,14.63,-1.54,10.53,-0.03,0.26,0.98,-2.73,-0.82,-1.09,24.08,14.46,11.57,0.24,0.39,0.83,-1.22,1.14,-0.47
1900-01-01 20:19:10.923,14.64,-1.45,10.52,-0.03,0.25,0.97,0.27,0.15,-1.21,24.29,15.63,11.49,0.26,0.4,0.85,-2.54,1.95,0.95
1900-01-01 20:19:10.923,15.21,-0.82,10.49,-0.01,0.26,0.97,-1.34,0.34,-0.53,26.01,15.24,11.63,0.26,0.43,0.84,-2.44,3.07,1.35
1900-01-01 20:19:10.923,14.89,-1.87,10.57,-0.03,0.26,0.97,-0.97,0.16,-1.02,24.3,16.42,11.82,0.27,0.39,0.82,-4.55,2.61,1.49
1900-01-01 20:19:10.923,15.32,-1.23,10.57,-0.02,0.26,0.97,-3.21,0.06,-0.66,24.54,14.42,12.04,0.24,0.4,0.84,-5.41,2.28,-0.54
1900-01-01 20:19:11.183,13.37,-1.12,10.63,-0.02,0.23,0.97,-2.26,0.24,-1.08,22.71,14.71,11.95,0.24,0.37,0.86,-3.53,4.09,-0.95
1900-01-01 20:19:11.183,14.49,-1.8,10.62,-0.03,0.25,0.96,-1.71,0.11,-0.66,22.93,13.77,11.8,0.23,0.37,0.85,-3.14,2.89,-0.54
1900-01-01 20:19:11.183,14.17,-1.5,10.68,-0.03,0.25,0.97,-1.43,0.25,-1.1,22.84,14.06,11.7,0.23,0.37,0.85,-4.27,3.22,-1.89
1900-01-01 20:19:11.393,13.53,-1.72,10.67,-0.03,0.23,0.97,-3.03,0.88,-1.05,21.65,13.55,11.41,0.23,0.36,0.87,-0.33,0.56,-0.43
1900-01-01 20:19:11.393,14.53,-2.0,10.67,-0.03,0.25,0.96,-3.86,-1.07,0.58,23.35,12.85,11.33,0.21,0.38,0.85,-4.38,0.01,-0.98
1900-01-01 20:19:11.461,12.02,-2.39,10.92,-0.04,0.21,0.99,-0.75,-0.83,-1.64,21.26,13.11,11.18,0.22,0.35,0.87,-1.81,2.22,-1.48
1900-01-01 20:19:11.576,13.53,-1.45,10.82,-0.03,0.24,0.98,-0.39,-0.03,-1.22,22.46,13.27,10.94,0.22,0.37,0.87,-4.53,2.06,0.4
1900-01-01 20:19:11.603,12.85,-1.27,10.8,-0.02,0.22,0.98,-1.21,0.73,-1.17,21.52,13.62,10.99,0.23,0.35,0.87,-3.02,1.82,0.24
1900-01-01 20:19:11.716,13.08,-1.52,10.78,-0.03,0.23,0.97,-1.63,0.81,-1.47,21.83,13.4,11.02,0.22,0.36,0.87,-4.44,4.28,-0.5
1900-01-01 20:19:11.716,12.91,-2.55,10.71,-0.04,0.22,0.98,-2.26,0.32,-1.16,20.28,12.3,10.94,0.2,0.33,0.87,-5.57,4.34,-0.92
1900-01-01 20:19:11.840,12.81,-1.73,10.69,-0.03,0.22,0.98,-2.15,0.6,-1.36,21.42,12.19,10.79,0.21,0.35,0.88,-1.24,1.87,-0.64
1900-01-01 20:19:11.840,12.2,-2.29,10.64,-0.04,0.21,0.98,-2.87,1.51,-0.42,19.62,11.7,10.68,0.19,0.32,0.88,-2.22,1.01,-0.69
1900-01-01 20:19:11.997,12.95,-3.11,10.74,-0.05,0.22,0.97,0.87,-1.27,-1.69,19.58,11.58,10.57,0.19,0.32,0.88,-2.33,0.13,-0.96
1900-01-01 20:19:11.997,12.25,-2.19,10.64,-0.04,0.21,0.98,0.88,-0.15,-1.72,20.54,12.42,10.41,0.21,0.34,0.88,-1.43,1.65,-0.38
1900-01-01 20:19:12.130,13.09,-2.34,10.54,-0.04,0.23,0.98,-0.87,0.47,-1.07,20.27,11.89,10.35,0.2,0.33,0.88,-2.09,2.1,0.09
1900-01-01 20:19:12.130,12.56,-2.53,10.53,-0.04,0.22,0.98,-1.11,0.26,-0.89,19.77,12.21,10.35,0.2,0.33,0.88,-1.82,1.11,0.27
1900-01-01 20:19:12.240,12.29,-2.59,10.55,-0.05,0.21,0.98,-1.01,-0.3,-0.73,20.21,12.24,10.39,0.21,0.33,0.88,-1.22,1.01,0.29
1900-01-01 20:19:12.414,12.09,-2.02,10.6,-0.04,0.21,0.98,-2.48,1.06,0.27,19.72,12.51,10.42,0.21,0.32,0.88,-0.37,0.5,1.4
1900-01-01 20:19:12.414,12.02,-3.69,10.8,-0.06,0.21,0.97,-1.44,-0.27,-0.6,19.13,11.49,10.63,0.19,0.31,0.88,-1.19,2.02,-0.51
1900-01-01 20:19:12.452,11.77,-2.99,10.87,-0.05,0.2,0.98,0.69,-1.4,-1.42,19.67,12.0,10.54,0.2,0.32,0.88,-2.05,1.49,-1.13
1900-01-01 20:19:12.531,12.1,-2.21,10.81,-0.04,0.21,0.98,-0.42,-0.07,-1.0,20.13,12.2,10.36,0.2,0.33,0.88,-1.8,2.03,0.12
1900-01-01 20:19:12.682,12.51,-2.61,10.81,-0.05,0.22,0.98,-0.79,0.08,-0.76,20.16,11.96,10.37,0.2,0.33,0.88,-1.53,1.76,0.24
1900-01-01 20:19:12.682,12.18,-2.66,10.86,-0.05,0.21,0.98,-1.05,-0.62,-0.62,19.84,11.78,10.4,0.2,0.33,0.89,-1.86,0.95,0.13
1900-01-01 20:19:12.819,12.11,-2.26,10.92,-0.04,0.21,0.98,-1.22,0.25,-0.46,20.07,12.45,10.41,0.21,0.33,0.88,-0.54,0.81,1.09
1900-01-01 20:19:12.819,12.33,-2.8,11.01,-0.05,0.21,0.97,-1.99,-1.01,-0.1,19.7,12.08,10.57,0.2,0.32,0.88,-0.79,0.68,0.03
1900-01-01 20:19:12.939,11.93,-2.68,11.15,-0.05,0.21,0.98,-1.3,-1.81,-0.85,19.6,12.11,10.56,0.2,0.32,0.88,-1.31,1.43,-0.5
1900-01-01 20:19:13.066,11.48,-2.21,11.18,-0.04,0.2,0.98,0.79,-1.26,-1.44,19.73,11.99,10.48,0.2,0.32,0.88,-2.22,1.74,-1.08
1900-01-01 20:19:13.066,12.23,-1.97,11.12,-0.03,0.21,0.98,-0.45,0.03,-1.12,20.27,11.9,10.3,0.2,0.33,0.88,-1.68,1.96,-0.13
1900-01-01 20:19:13.195,12.0,-2.08,11.11,-0.04,0.21,0.98,-0.87,-0.47,-0.82,19.69,11.95,10.28,0.2,0.32,0.88,-1.16,1.18,0.05
1900-01-01 20:19:13.195,12.2,-2.11,11.14,-0.04,0.21,0.98,-1.09,-0.63,-0.88,19.64,11.93,10.27,0.2,0.32,0.88,-1.7,1.06,0.07
1900-01-01 20:19:13.269,11.8,-1.98,11.17,-0.03,0.21,0.98,-1.02,-0.79,-0.96,19.73,12.11,10.28,0.2,0.32,0.88,-0.85,0.69,0.36
1900-01-01 20:19:13.447,11.84,-1.89,11.18,-0.03,0.21,0.98,-0.98,-0.98,-0.83,19.54,12.19,10.32,0.2,0.32,0.88,-0.33,0.38,0.49
1900-01-01 20:19:13.447,11.55,-1.87,11.21,-0.03,0.2,0.98,-0.63,-0.69,-0.9,19.72,12.35,10.39,0.2,0.32,0.88,-0.56,1.27,0.24
1900-01-01 20:19:13.500,12.01,-2.1,11.23,-0.04,0.21,0.98,-0.76,-0.63,-0.91,19.56,12.15,10.42,0.2,0.32,0.88,-0.59,1.08,0.15
1900-01-01 20:19:13.662,11.5,-2.06,11.25,-0.04,0.2,0.98,0.1,-1.27,-0.93,19.57,12.28,10.43,0.2,0.32,0.87,-2.9,1.31,-0.43
1900-01-01 20:19:13.662,11.71,-1.59,11.27,-0.03,0.2,0.98,-0.17,-0.15,-1.34,20.48,12.33,10.36,0.21,0.34,0.88,-0.87,1.66,-0.18
1900-01-01 20:19:13.782,11.95,-1.69,11.22,-0.03,0.21,0.98,-1.69,0.13,-0.59,19.81,12.39,10.32,0.21,0.33,0.88,-0.93,0.7,0.69
1900-01-01 20:19:13.816,11.88,-1.8,11.29,-0.03,0.21,0.98,-1.08,-0.62,-0.61,19.82,12.34,10.42,0.21,0.33,0.88,-0.98,0.69,0.19
1900-01-01 20:19:13.919,11.78,-1.66,11.36,-0.03,0.2,0.98,-0.96,-0.81,-0.64,19.94,12.36,10.44,0.21,0.33,0.88,-1.02,0.96,0.31
1900-01-01 20:19:13.958,11.58,-1.56,11.42,-0.03,0.2,0.98,-0.6,-0.67,-0.89,19.8,12.51,10.48,0.21,0.33,0.88,-1.18,1.53,-0.21
1900-01-01 20:19:14.045,11.58,-1.65,11.44,-0.03,0.2,0.98,0.73,-0.68,-1.44,19.58,12.22,10.44,0.2,0.32,0.88,-2.15,2.1,-0.77
1900-01-01 20:19:14.207,11.78,-1.28,11.38,-0.02,0.21,0.98,-0.91,0.21,-0.85,19.97,12.55,10.31,0.21,0.33,0.88,-1.73,1.88,0.05
1900-01-01 20:19:14.207,11.93,-1.47,11.41,-0.03,0.21,0.98,-1.06,0.0,-0.7,20.01,12.24,10.31,0.2,0.33,0.88,-0.92,1.07,0.39
1900-01-01 20:19:14.438,12.03,-1.69,11.46,-0.03,0.21,0.98,-0.98,-0.71,-0.61,19.91,12.38,10.36,0.21,0.33,0.88,-0.27,0.6,0.47
1900-01-01 20:19:14.438,11.87,-1.51,11.52,-0.03,0.21,0.98,-0.79,-1.44,-0.89,19.95,13.0,10.42,0.22,0.33,0.88,-0.87,1.23,-0.13
1900-01-01 20:19:14.469,11.49,-1.38,11.55,-0.02,0.2,0.98,-0.11,-1.03,-1.13,19.67,12.22,10.39,0.2,0.32,0.88,-1.93,2.47,-0.94
1900-01-01 20:19:14.617,11.41,-0.98,11.53,-0.02,0.2,0.98,-0.08,-0.08,-1.08,20.01,12.43,10.24,0.21,0.33,0.88,-2.22,2.44,-0.15
1900-01-01 20:19:14.617,12.25,-1.27,11.53,-0.02,0.21,0.98,-0.53,0.66,-0.85,20.2,11.94,10.21,0.2,0.33,0.88,-0.99,1.44,0.54
1900-01-01 20:19:14.662,12.3,-1.4,11.56,-0.02,0.21,0.98,-1.15,-0.43,-0.7,20.29,12.01,10.29,0.2,0.33,0.88,-0.72,0.24,0.58
1900-01-01 20:19:14.773,11.68,-1.36,11.61,-0.02,0.2,0.98,-0.85,-0.86,-0.86,19.83,12.25,10.37,0.2,0.33,0.88,-0.29,0.89,0.36
1900-01-01 20:19:14.900,11.81,-1.21,11.63,-0.02,0.21,0.98,-0.78,-0.64,-1.01,19.72,12.35,10.41,0.21,0.32,0.88,-0.41,1.2,-0.55
1900-01-01 20:19:14.900,11.81,-1.25,11.64,-0.02,0.21,0.98,0.34,-0.11,-1.37,20.74,12.08,10.32,0.2,0.34,0.88,-1.39,2.07,-0.66
1900-01-01 20:19:14.979,11.99,-1.23,11.59,-0.02,0.21,0.98,-0.42,-0.03,-0.97,20.18,12.13,10.21,0.2,0.33,0.88,-1.79,1.86,-0.07
1900-01-01 20:19:15.035,11.96,-1.17,11.6,-0.02,0.21,0.98,-0.63,-0.29,-0.79,20.09,12.18,10.19,0.2,0.33,0.88,-1.37,1.25,0.06
1900-01-01 20:19:15.171,12.08,-1.33,11.64,-0.02,0.21,0.98,-0.67,-0.34,-0.76,20.16,12.13,10.19,0.2,0.33,0.88,-1.21,1.08,0.37
1900-01-01 20:19:15.171,11.95,-0.92,11.68,-0.02,0.21,0.98,-0.83,-0.6,-0.66,20.31,12.25,10.24,0.2,0.33,0.88,-0.34,0.51,0.89
1900-01-01 20:19:15.314,12.1,-1.28,11.74,-0.02,0.21,0.98,-0.88,-0.73,-0.69,20.02,12.29,10.37,0.2,0.33,0.88,-0.55,0.74,0.36
1900-01-01 20:19:15.352,11.92,-1.2,11.79,-0.02,0.21,0.98,-0.48,-0.72,-0.99,20.15,12.43,10.42,0.21,0.33,0.88,-1.0,1.53,-0.27
1900-01-01 20:19:15.472,11.8,-1.23,11.8,-0.02,0.21,0.98,0.58,-0.33,-1.14,20.31,12.13,10.37,0.2,0.33,0.88,-1.92,2.6,-0.68
1900-01-01 20:19:15.602,12.23,-1.02,11.78,-0.02,0.21,0.98,-0.35,0.35,-0.8,20.39,11.99,10.25,0.2,0.34,0.88,-1.66,2.19,0.05
1900-01-01 20:19:15.602,12.29,-1.17,11.82,-0.02,0.21,0.98,-0.51,0.23,-0.79,20.34,11.94,10.25,0.2,0.34,0.88,-1.41,1.58,0.13
1900-01-01 20:19:15.637,12.15,-1.38,11.86,-0.02,0.21,0.98,-0.64,-0.34,-0.94,19.97,12.06,10.26,0.2,0.33,0.88,-1.26,1.38,-0.2
1900-01-01 20:19:15.729,12.01,-1.16,11.87,-0.02,0.21,0.98,-0.9,-0.44,-0.89,20.27,12.11,10.23,0.2,0.33,0.88,-0.87,0.65,0.56
1900-01-01 20:19:15.865,12.29,-1.03,11.89,-0.02,0.21,0.98,-0.68,0.16,-0.78,20.19,12.24,10.3,0.2,0.33,0.88,-0.24,0.77,0.71
1900-01-01 20:19:15.865,12.15,-1.73,11.93,-0.03,0.21,0.97,-0.75,-0.46,-0.84,19.82,12.21,10.4,0.2,0.32,0.88,-1.31,1.19,0.08
1900-01-01 20:19:16.030,11.9,-1.3,11.96,-0.02,0.21,0.98,0.75,-1.2,-1.34,19.84,12.15,10.41,0.2,0.33,0.88,-2.21,2.01,-1.29
1900-01-01 20:19:16.030,12.36,-1.01,11.92,-0.02,0.21,0.98,-0.5,-0.11,-1.08,20.69,12.07,10.2,0.2,0.34,0.88,-1.38,1.76,-0.21
1900-01-01 20:19:16.169,12.25,-1.2,11.91,-0.02,0.21,0.98,-1.27,-0.23,-0.8,20.35,12.15,10.16,0.2,0.34,0.88,-0.98,0.88,0.4
1900-01-01 20:19:16.169,12.27,-0.94,11.95,-0.02,0.21,0.98,-1.43,-1.35,-0.68,20.1,12.4,10.21,0.21,0.33,0.88,-0.35,-0.21,0.37
1900-01-01 20:19:16.283,11.98,-1.02,12.0,-0.02,0.21,0.98,-1.23,-1.55,-0.69,19.96,12.41,10.26,0.21,0.33,0.88,-1.98,1.15,0.18
1900-01-01 20:19:16.464,11.71,-0.85,12.06,-0.01,0.2,0.98,0.29,-1.21,-1.26,19.86,12.44,10.28,0.21,0.33,0.88,-2.31,1.88,-0.79
1900-01-01 20:19:16.464,12.52,-0.35,12.02,-0.01,0.22,0.98,-0.66,0.27,-0.76,20.52,12.38,10.15,0.21,0.34,0.88,-1.16,1.42,0.46
1900-01-01 20:19:16.539,12.35,-0.92,12.07,-0.02,0.21,0.98,-1.21,-0.17,-0.76,19.96,12.29,10.21,0.2,0.33,0.88,-0.68,0.69,0.29
1900-01-01 20:19:16.672,12.16,-0.8,12.11,-0.01,0.21,0.98,-0.9,-1.21,-0.86,19.95,12.45,10.25,0.21,0.33,0.88,-1.18,0.93,-0.35
1900-01-01 20:19:16.697,11.66,-0.56,12.14,-0.01,0.2,0.98,0.11,-1.08,-1.45,19.96,12.52,10.19,0.21,0.33,0.88,-0.97,1.32,-0.92
1900-01-01 20:19:16.820,12.24,-0.46,12.07,-0.01,0.21,0.98,-0.53,0.37,-0.99,20.54,12.27,10.04,0.2,0.34,0.88,-1.33,1.47,0.17
1900-01-01 20:19:16.820,12.18,-0.77,12.08,-0.01,0.21,0.98,-0.82,0.27,-0.89,20.37,12.42,10.06,0.21,0.34,0.88,-1.5,1.38,0.33
1900-01-01 20:19:16.932,12.57,-0.78,12.11,-0.01,0.22,0.98,-1.34,-0.66,-0.63,20.05,12.32,10.1,0.2,0.33,0.88,-0.95,0.47,0.56
1900-01-01 20:19:16.932,12.25,-0.66,12.17,-0.01,0.21,0.98,-0.62,-1.07,-0.73,20.2,12.43,10.17,0.21,0.33,0.87,-0.97,1.62,-0.52
1900-01-01 20:19:17.062,12.05,-0.77,12.21,-0.01,0.21,0.98,0.08,-0.33,-1.24,20.24,12.33,10.09,0.21,0.33,0.88,-1.6,1.89,-0.37
1900-01-01 20:19:17.088,12.27,-0.36,12.18,-0.01,0.21,0.98,-0.53,0.16,-0.9,20.43,12.41,10.02,0.21,0.34,0.88,-1.46,1.44,0.24
1900-01-01 20:19:17.191,12.21,-0.71,12.21,-0.01,0.21,0.98,-0.8,-0.32,-0.76,20.04,12.27,10.05,0.2,0.33,0.88,-1.34,1.3,0.13
1900-01-01 20:19:17.262,12.15,-0.45,12.25,-0.01,0.21,0.98,-0.79,-0.64,-0.7,20.25,12.36,10.06,0.21,0.33,0.88,-0.99,1.11,0.31
1900-01-01 20:19:17.323,11.58,-0.43,12.3,-0.01,0.2,0.99,-0.47,-0.17,-0.35,20.07,12.84,10.1,0.21,0.33,0.88,-0.58,1.4,0.73
1900-01-01 20:19:17.465,11.77,-0.98,12.4,-0.02,0.2,0.98,0.98,1.05,0.3,19.76,12.17,10.2,0.2,0.32,0.88,0.16,2.92,0.94
1900-01-01 20:19:17.465,12.96,-0.92,12.61,-0.02,0.22,0.97,2.37,-1.14,0.79,20.25,12.2,10.33,0.2,0.33,0.87,-1.34,2.6,0.33
1900-01-01 20:19:17.581,13.36,-0.29,12.89,-0.01,0.23,0.98,0.81,-0.07,0.63,21.08,12.05,10.37,0.2,0.35,0.88,-0.76,2.63,0.92
1900-01-01 20:19:17.635,13.72,-0.31,13.14,-0.01,0.24,0.98,-0.56,0.4,0.16,20.77,11.74,10.51,0.2,0.34,0.87,-2.02,1.51,0.32
1900-01-01 20:19:17.713,12.89,-0.49,13.32,-0.01,0.23,0.98,-0.56,1.58,-0.49,20.08,12.24,10.55,0.2,0.33,0.88,-2.13,1.69,0.15
1900-01-01 20:19:17.840,14.04,-1.08,13.41,-0.02,0.24,0.97,-0.88,0.32,-1.04,20.54,11.58,10.56,0.19,0.34,0.88,-3.01,1.25,-0.36
1900-01-01 20:19:17.840,12.79,-0.9,13.41,-0.02,0.22,0.98,-1.66,-0.63,-1.08,19.59,11.87,10.5,0.2,0.32,0.89,-3.27,0.98,-0.5
1900-01-01 20:19:17.970,12.56,-0.68,13.4,-0.01,0.22,0.98,-2.05,0.55,-0.8,19.22,11.94,10.41,0.2,0.32,0.88,-4.49,0.79,-0.2
1900-01-01 20:19:18.011,12.15,-1.36,13.44,-0.02,0.21,0.97,-0.11,0.89,-1.13,18.9,12.12,10.37,0.2,0.31,0.88,-0.52,1.4,-1.02
1900-01-01 20:19:18.089,13.35,-1.22,13.42,-0.02,0.23,0.97,-0.56,-1.06,-0.06,19.57,11.83,10.21,0.2,0.32,0.88,-0.76,1.37,-0.11
1900-01-01 20:19:18.244,12.69,-0.56,13.57,-0.01,0.22,0.98,-0.22,-2.5,0.01,20.01,12.45,10.18,0.21,0.33,0.87,-1.71,1.08,-0.76
1900-01-01 20:19:18.244,12.1,-0.54,13.73,-0.01,0.21,0.99,0.59,1.76,-0.02,19.43,11.7,10.06,0.19,0.32,0.88,1.04,3.9,0.64
1900-01-01 20:19:18.465,14.06,-1.36,13.89,-0.02,0.24,0.97,0.85,1.68,-0.53,19.78,11.02,10.15,0.18,0.33,0.89,0.18,2.39,0.68
1900-01-01 20:19:18.465,14.25,-1.09,13.96,-0.02,0.25,0.97,-1.94,-1.47,-1.0,20.55,11.04,10.24,0.18,0.34,0.88,-4.42,0.58,-0.63
1900-01-01 20:19:18.485,12.91,-0.73,13.97,-0.01,0.22,0.98,-0.36,-0.12,-0.69,19.53,12.02,10.14,0.2,0.32,0.88,0.69,-0.02,1.12
1900-01-01 20:19:18.613,12.94,-1.42,14.02,-0.02,0.22,0.97,0.1,-0.04,-0.89,19.11,11.58,10.3,0.19,0.31,0.89,1.08,1.4,0.07
1900-01-01 20:19:18.613,13.27,-0.96,14.05,-0.02,0.23,0.98,-0.1,-1.13,-1.66,19.96,11.6,10.3,0.19,0.33,0.89,-3.74,1.59,-1.27
1900-01-01 20:19:18.716,12.33,-0.63,13.95,-0.01,0.21,0.98,-1.4,1.27,-0.42,19.83,12.36,10.1,0.21,0.33,0.88,-2.81,1.99,0.6
1900-01-01 20:19:18.763,13.64,-1.47,14.05,-0.03,0.24,0.97,0.4,0.92,-0.86,20.03,11.42,10.18,0.19,0.33,0.89,0.84,1.17,1.01
1900-01-01 20:19:18.874,13.7,-1.2,14.07,-0.02,0.24,0.98,-2.66,-2.27,-1.32,19.58,11.54,10.33,0.19,0.32,0.89,-4.92,0.55,-0.75
1900-01-01 20:19:18.902,12.03,-1.1,14.03,-0.02,0.21,0.98,-1.42,-0.91,-0.65,18.93,12.11,10.2,0.2,0.31,0.88,-2.72,1.77,-0.51
1900-01-01 20:19:18.999,12.83,-0.96,14.09,-0.02,0.22,0.97,0.93,0.91,-0.56,18.93,11.72,10.12,0.2,0.31,0.89,2.07,1.53,1.44
1900-01-01 20:19:19.126,13.13,-1.25,14.16,-0.02,0.23,0.97,-1.1,-1.82,-0.97,19.29,11.9,10.33,0.2,0.32,0.88,-0.32,0.37,-0.33
1900-01-01 20:19:19.126,13.18,-1.03,14.17,-0.02,0.23,0.98,-0.68,-1.69,-1.11,19.38,11.72,10.27,0.19,0.32,0.88,-2.95,1.92,-1.07
1900-01-01 20:19:19.253,12.67,-0.77,14.16,-0.01,0.22,0.97,0.16,-0.69,-0.98,19.33,11.88,10.1,0.2,0.32,0.88,-1.12,2.26,-0.08
1900-01-01 20:19:19.291,13.23,-0.53,14.17,-0.01,0.23,0.98,-0.29,-0.73,-0.76,19.67,11.83,10.08,0.2,0.32,0.89,-0.75,1.66,0.01
1900-01-01 20:19:19.476,13.29,-0.26,14.21,0.0,0.23,0.98,-1.09,-0.47,-0.72,19.47,11.68,10.07,0.19,0.32,0.89,-1.16,0.8,0.86
1900-01-01 20:19:19.476,13.26,-0.29,14.26,-0.01,0.23,0.98,-1.31,-1.07,-1.0,19.75,12.04,10.19,0.2,0.33,0.89,-0.1,0.2,0.47
1900-01-01 20:19:19.511,12.98,-0.58,14.27,-0.01,0.22,0.97,-2.0,-2.15,-0.76,18.99,11.94,10.25,0.2,0.31,0.88,-0.95,0.24,-0.04
1900-01-01 20:19:19.638,12.81,0.1,14.31,0.0,0.22,0.98,-0.83,-3.4,-1.27,19.38,12.02,10.24,0.2,0.32,0.88,-1.95,1.32,-1.11
1900-01-01 20:19:19.684,12.86,0.65,14.27,0.01,0.23,0.99,-1.81,-1.39,-0.74,20.05,11.89,10.06,0.2,0.33,0.89,-0.01,1.11,1.08
1900-01-01 20:19:19.767,12.73,0.78,14.32,0.01,0.22,0.98,-1.06,-0.84,-0.7,19.53,12.19,10.22,0.2,0.32,0.88,-0.95,1.72,0.23
1900-01-01 20:19:19.890,13.1,0.66,14.37,0.01,0.23,0.98,-0.34,-0.91,-1.34,19.51,12.24,10.24,0.2,0.32,0.88,-2.24,2.03,-1.04
1900-01-01 20:19:20.005,12.86,0.79,14.32,0.01,0.23,0.99,-1.41,1.05,-1.56,20.21,12.39,10.08,0.21,0.33,0.88,-1.57,1.2,0.98
1900-01-01 20:19:20.005,13.07,-0.14,14.24,0.0,0.23,0.97,-1.56,-0.43,-2.3,19.22,11.46,10.22,0.19,0.31,0.88,-1.56,1.26,-0.7
1900-01-01 20:19:20.056,11.54,0.53,14.05,0.01,0.2,0.98,-0.59,-1.24,-1.92,19.51,12.08,10.1,0.2,0.32,0.89,-1.35,1.26,-1.09
1900-01-01 20:19:20.137,12.23,0.9,13.92,0.02,0.21,0.98,-1.79,-0.47,-0.93,19.53,12.3,9.93,0.21,0.32,0.89,0.28,0.38,0.89
1900-01-01 20:19:20.265,12.93,0.25,13.93,0.0,0.22,0.98,-1.4,-2.15,-1.46,19.7,11.72,10.05,0.19,0.32,0.88,-1.36,1.02,-0.81
1900-01-01 20:19:20.298,11.34,1.02,13.87,0.02,0.2,0.99,-0.69,-1.96,-1.88,19.56,12.19,9.92,0.2,0.32,0.89,-2.18,1.4,-1.1
1900-01-01 20:19:20.504,11.94,1.4,13.74,0.02,0.21,0.99,-1.21,0.21,-1.12,19.89,12.16,9.75,0.2,0.33,0.88,-0.7,1.09,0.8
1900-01-01 20:19:20.535,12.23,0.61,13.73,0.01,0.21,0.98,-1.02,-0.53,-0.82,19.44,11.93,9.86,0.2,0.32,0.88,-1.08,1.14,-0.02
1900-01-01 20:19:20.535,11.88,1.07,13.76,0.02,0.21,0.98,0.45,-0.94,-0.88,19.98,12.07,9.85,0.2,0.33,0.88,-1.28,1.61,-0.22
1900-01-01 20:19:20.661,12.09,1.3,13.79,0.02,0.21,0.98,-1.43,0.25,-0.79,19.78,12.32,9.81,0.21,0.33,0.88,-0.74,1.15,0.8
1900-01-01 20:19:20.661,12.73,0.69,13.83,0.01,0.22,0.98,-0.31,-1.29,-1.18,19.69,11.77,9.92,0.2,0.32,0.88,-1.7,1.35,-0.61
1900-01-01 20:19:20.791,11.95,1.19,13.81,0.02,0.21,0.99,-0.08,-0.22,-1.16,20.48,12.06,9.82,0.2,0.34,0.88,-0.94,1.4,0.07
1900-01-01 20:19:20.836,12.37,1.12,13.79,0.02,0.21,0.98,-1.75,0.23,-0.37,19.62,12.14,9.82,0.2,0.32,0.88,-2.16,0.92,0.5
1900-01-01 20:19:20.939,11.94,1.0,13.89,0.02,0.21,0.98,1.44,-0.48,-1.21,19.26,12.16,9.89,0.2,0.32,0.88,-2.18,1.92,-1.0
1900-01-01 20:19:21.076,12.6,1.54,13.86,0.03,0.22,0.98,-0.77,1.04,-0.79,20.27,12.07,9.73,0.2,0.33,0.88,-0.76,1.23,0.93
1900-01-01 20:19:21.076,12.29,0.49,13.9,0.01,0.21,0.98,-0.84,0.36,-0.73,19.27,11.84,9.86,0.2,0.32,0.88,-1.36,1.5,0.05
1900-01-01 20:19:21.172,12.23,0.88,13.95,0.02,0.21,0.98,-0.31,-0.02,-1.27,19.98,12.09,9.86,0.2,0.33,0.88,-0.36,1.45,-0.27
1900-01-01 20:19:21.210,12.09,0.99,13.91,0.02,0.21,0.98,-1.06,0.09,-0.78,19.77,11.9,9.81,0.2,0.33,0.89,-0.92,1.06,0.26
1900-01-01 20:19:21.322,12.13,0.61,13.96,0.01,0.21,0.98,-0.54,-0.18,-0.84,19.59,12.11,9.84,0.2,0.32,0.88,-1.54,1.39,-0.08
1900-01-01 20:19:21.505,11.69,0.77,13.99,0.01,0.2,0.98,0.94,-0.23,-1.26,19.27,12.2,9.82,0.2,0.32,0.88,-1.83,1.79,-0.53
1900-01-01 20:19:21.505,12.57,0.89,13.95,0.02,0.22,0.98,-0.82,0.84,-0.95,19.9,11.91,9.73,0.2,0.33,0.88,-1.21,1.55,0.47
1900-01-01 20:19:21.530,12.35,0.53,13.97,0.01,0.21,0.98,-1.57,-0.24,-0.51,19.3,11.84,9.79,0.2,0.32,0.88,-1.34,0.88,0.36
1900-01-01 20:19:21.570,12.31,0.65,14.05,0.01,0.21,0.98,-0.94,-0.92,-0.69,19.9,11.79,9.84,0.2,0.33,0.88,-1.13,1.03,0.17
1900-01-01 20:19:21.692,12.34,0.69,14.1,0.01,0.21,0.98,-0.24,-1.09,-1.08,19.67,12.08,9.86,0.2,0.32,0.88,-0.85,1.6,-0.33
1900-01-01 20:19:21.721,11.77,0.75,14.09,0.01,0.21,0.99,0.41,-0.37,-1.2,19.2,12.02,9.8,0.2,0.32,0.88,-1.11,2.25,-0.99
1900-01-01 20:19:21.819,12.74,0.97,14.07,0.02,0.22,0.98,-0.34,0.83,-0.85,20.0,11.84,9.64,0.2,0.33,0.88,-1.65,1.99,0.13
1900-01-01 20:19:21.934,12.8,0.67,14.1,0.01,0.22,0.98,-0.63,0.31,-0.98,19.71,11.82,9.65,0.2,0.32,0.88,-1.28,1.21,0.3
1900-01-01 20:19:21.979,12.65,0.61,14.11,0.01,0.22,0.98,-1.17,-0.98,-0.98,20.06,11.58,9.69,0.19,0.33,0.88,-1.01,0.43,0.17
1900-01-01 20:19:22.039,12.17,0.79,14.12,0.01,0.21,0.98,-1.41,-1.24,-0.88,19.76,12.01,9.7,0.2,0.32,0.88,-1.3,0.39,0.17
1900-01-01 20:19:22.132,12.08,0.79,14.14,0.01,0.21,0.98,-0.73,-0.54,-0.98,19.57,11.96,9.72,0.2,0.32,0.88,-1.33,1.05,-0.06
1900-01-01 20:19:22.199,12.51,0.68,14.15,0.01,0.22,0.98,-0.73,-0.77,-1.03,19.69,11.92,9.7,0.2,0.32,0.88,-1.44,0.92,-0.24
1900-01-01 20:19:22.320,11.84,0.92,14.15,0.02,0.21,0.98,-0.52,-1.13,-1.08,19.11,12.16,9.66,0.2,0.31,0.88,-2.41,1.72,-0.98
1900-01-01 20:19:22.511,12.24,1.18,14.14,0.02,0.21,0.99,0.1,0.05,-1.24,19.85,11.79,9.5,0.2,0.33,0.88,-1.34,2.18,-0.21
1900-01-01 20:19:22.511,12.58,1.08,14.11,0.02,0.22,0.98,-0.66,0.37,-1.02,19.93,11.79,9.46,0.2,0.33,0.89,-0.82,0.94,0.8
1900-01-01 20:19:22.533,12.53,0.77,14.12,0.01,0.22,0.98,-1.37,-1.14,-0.84,19.36,11.84,9.57,0.2,0.32,0.88,-0.99,0.4,0.15
1900-01-01 20:19:22.572,12.33,0.9,14.15,0.02,0.21,0.98,-0.66,-1.92,-1.11,19.46,12.02,9.59,0.2,0.32,0.88,-0.73,1.09,-0.6
1900-01-01 20:19:22.687,11.92,1.65,14.14,0.03,0.21,0.98,-0.6,-0.92,-0.92,19.59,12.32,9.48,0.2,0.32,0.88,-1.05,1.23,0.13
1900-01-01 20:19:22.726,12.12,1.41,14.16,0.02,0.21,0.99,-0.55,0.62,-0.82,19.93,12.05,9.5,0.2,0.33,0.88,-1.04,1.49,0.49
1900-01-01 20:19:22.826,12.54,1.11,14.19,0.02,0.22,0.98,-0.73,0.01,-0.89,19.65,12.02,9.56,0.2,0.32,0.88,-1.36,1.42,0.0
1900-01-01 20:19:22.937,12.59,1.28,14.21,0.02,0.22,0.98,1.18,-1.75,-1.21,19.59,12.1,9.55,0.2,0.32,0.88,-2.12,1.46,-1.06
1900-01-01 20:19:22.937,12.56,1.37,14.19,0.02,0.22,0.98,-0.83,0.35,-1.14,19.96,12.01,9.38,0.2,0.33,0.88,-1.61,1.83,0.01
1900-01-01 20:19:23.072,12.58,1.31,14.17,0.02,0.22,0.98,-1.43,0.05,-0.78,19.78,11.89,9.38,0.2,0.33,0.89,-1.14,1.08,0.18
1900-01-01 20:19:23.107,12.24,1.2,14.21,0.02,0.21,0.98,-0.91,-0.56,-0.93,19.6,11.9,9.4,0.2,0.32,0.88,-1.4,1.23,-0.14
1900-01-01 20:19:23.192,12.37,1.36,14.23,0.02,0.22,0.98,-0.67,-0.32,-0.77,19.83,11.85,9.37,0.2,0.33,0.89,-1.0,1.11,0.41
1900-01-01 20:19:23.317,12.38,1.31,14.27,0.02,0.22,0.98,-0.93,-0.38,-0.88,19.57,11.92,9.42,0.2,0.32,0.88,-1.02,0.93,0.27
1900-01-01 20:19:23.317,12.18,1.19,14.3,0.02,0.21,0.98,-0.79,-0.56,-1.02,19.31,11.92,9.45,0.2,0.32,0.88,-0.91,1.43,-0.16
1900-01-01 20:19:23.517,11.41,1.33,14.3,0.02,0.2,0.98,1.97,-0.82,-1.68,19.07,12.08,9.42,0.2,0.31,0.88,-1.52,1.58,-1.07
1900-01-01 20:19:23.517,12.88,1.68,14.2,0.03,0.22,0.98,-0.83,0.45,-0.97,19.87,12.05,9.25,0.2,0.33,0.88,-1.18,1.73,-0.21
1900-01-01 20:19:23.565,12.77,1.44,14.21,0.03,0.22,0.98,-1.46,0.53,-1.25,19.95,11.76,9.21,0.2,0.33,0.88,-1.56,1.37,-0.04
1900-01-01 20:19:23.683,12.55,0.88,14.18,0.02,0.22,0.98,-1.1,0.61,-1.18,19.65,11.55,9.19,0.19,0.32,0.89,-1.48,1.38,0.02
1900-01-01 20:19:23.803,12.35,1.07,14.16,0.02,0.22,0.98,-0.99,-0.05,-0.73,19.49,11.88,9.19,0.2,0.32,0.88,-1.16,1.06,0.28
1900-01-01 20:19:23.803,12.36,1.03,14.21,0.02,0.22,0.98,-1.14,-0.35,-0.6,19.49,11.89,9.22,0.2,0.32,0.88,-1.18,1.04,0.35
1900-01-01 20:19:23.851,12.38,1.03,14.27,0.02,0.22,0.98,-0.88,-0.6,-0.73,19.51,12.09,9.27,0.2,0.32,0.88,-0.98,1.08,0.22
1900-01-01 20:19:23.948,12.19,1.34,14.32,0.02,0.21,0.98,-0.47,-0.99,-0.62,19.74,12.0,9.29,0.2,0.33,0.88,-0.69,1.33,0.09
1900-01-01 20:19:24.067,12.33,1.18,14.39,0.02,0.21,0.98,-0.62,-0.74,-0.65,19.57,11.89,9.3,0.2,0.32,0.88,-0.79,1.52,-0.01
1900-01-01 20:19:24.104,12.19,1.36,14.45,0.02,0.21,0.98,-0.1,-0.96,-1.02,19.56,11.9,9.29,0.2,0.32,0.88,-1.87,1.88,-0.22
1900-01-01 20:19:24.206,12.36,1.51,14.45,0.03,0.22,0.98,-0.08,0.57,-1.02,19.96,11.82,9.25,0.2,0.33,0.88,-1.5,2.03,0.02
1900-01-01 20:19:24.326,12.61,1.28,14.45,0.02,0.22,0.98,-0.58,0.04,-0.66,19.87,11.79,9.24,0.2,0.33,0.88,-0.99,1.11,0.57
1900-01-01 20:19:24.326,12.58,1.25,14.51,0.02,0.22,0.98,-1.02,-0.38,-0.49,19.68,11.93,9.32,0.2,0.32,0.88,-0.88,0.76,0.53
1900-01-01 20:19:24.539,12.59,1.29,14.6,0.02,0.22,0.98,-0.66,-0.39,-0.73,19.68,11.86,9.39,0.2,0.32,0.88,-1.2,1.31,0.18
1900-01-01 20:19:24.571,12.91,1.28,14.64,0.02,0.22,0.98,-0.35,-1.05,-1.13,20.09,11.76,9.41,0.2,0.33,0.88,-1.06,1.55,-0.33
1900-01-01 20:19:24.571,12.08,1.44,14.63,0.03,0.21,0.98,-0.31,-0.31,-0.94,19.98,11.89,9.35,0.2,0.33,0.89,-1.19,1.73,0.0
1900-01-01 20:19:24.675,12.78,1.32,14.65,0.02,0.22,0.98,-0.79,0.24,-0.77,19.75,11.81,9.34,0.2,0.32,0.88,-1.11,1.32,0.29
1900-01-01 20:19:24.705,12.45,1.4,14.69,0.02,0.22,0.98,-0.45,-0.87,-0.92,19.5,11.9,9.38,0.2,0.32,0.88,-1.4,1.43,-0.23
1900-01-01 20:19:24.799,12.44,1.53,14.7,0.03,0.22,0.98,-0.44,-0.16,-0.9,19.71,11.9,9.33,0.2,0.32,0.88,-0.88,1.32,0.21
1900-01-01 20:19:24.912,13.32,1.33,14.73,0.02,0.23,0.98,-0.32,-0.7,-1.27,20.06,11.63,9.36,0.19,0.33,0.88,-0.98,1.26,-0.08
1900-01-01 20:19:24.912,12.69,1.56,14.69,0.03,0.22,0.98,-0.86,-0.77,-1.02,19.84,11.81,9.34,0.2,0.33,0.88,-1.36,1.05,-0.07
1900-01-01 20:19:25.032,12.84,1.47,14.69,0.03,0.22,0.98,-0.34,-0.85,-1.08,19.93,11.76,9.32,0.2,0.33,0.88,-1.37,1.2,-0.27
1900-01-01 20:19:25.155,12.82,1.75,14.69,0.03,0.22,0.98,-0.5,-0.23,-0.96,20.09,11.92,9.27,0.2,0.33,0.88,-1.08,1.27,0.12
1900-01-01 20:19:25.155,12.7,1.45,14.7,0.03,0.22,0.98,-0.85,0.07,-0.85,19.88,11.79,9.28,0.2,0.33,0.88,-1.07,1.19,0.29
1900-01-01 20:19:25.275,12.63,1.49,14.73,0.03,0.22,0.98,-1.4,-0.22,-0.87,19.91,11.96,9.31,0.2,0.33,0.88,-1.28,1.1,0.01
1900-01-01 20:19:25.305,12.22,1.59,14.75,0.03,0.21,0.98,-0.79,-0.91,-1.03,19.76,12.0,9.31,0.2,0.32,0.88,-1.31,1.07,-0.11
1900-01-01 20:19:25.391,12.49,1.62,14.76,0.03,0.22,0.98,-1.04,-0.21,-0.85,20.0,11.99,9.28,0.2,0.33,0.88,-1.18,1.13,0.18
1900-01-01 20:19:25.566,12.6,1.46,14.79,0.03,0.22,0.99,-0.5,-1.05,-1.47,19.66,11.9,9.3,0.2,0.32,0.88,-1.34,1.57,-0.53
1900-01-01 20:19:25.566,11.7,1.54,14.72,0.03,0.2,0.98,0.64,-0.11,-1.44,19.68,12.04,9.21,0.2,0.32,0.88,-1.79,2.36,-0.37
1900-01-01 20:19:25.646,12.73,1.68,14.66,0.03,0.22,0.98,-0.57,0.22,-0.81,19.77,11.75,9.14,0.2,0.33,0.88,-1.4,1.85,0.05
1900-01-01 20:19:25.767,13.02,1.53,14.69,0.03,0.23,0.98,-1.03,-0.74,-0.79,19.87,11.61,9.14,0.19,0.33,0.88,-1.31,1.1,-0.05
1900-01-01 20:19:25.879,12.29,1.58,14.73,0.03,0.21,0.98,-1.13,-0.6,-0.84,19.8,11.9,9.13,0.2,0.33,0.89,-1.02,0.95,0.18
1900-01-01 20:19:25.907,12.46,1.75,14.76,0.03,0.22,0.98,-1.44,-0.27,-0.65,19.84,11.93,9.14,0.2,0.33,0.88,-0.93,0.88,0.38
1900-01-01 20:19:25.907,12.6,1.65,14.82,0.03,0.22,0.98,-0.99,-0.23,-0.75,19.92,11.81,9.19,0.2,0.33,0.89,-1.05,1.35,0.42
1900-01-01 20:19:26.027,12.29,1.61,14.87,0.03,0.21,0.98,-0.84,-0.06,-0.88,19.73,12.0,9.25,0.2,0.32,0.88,-1.31,1.26,0.14
1900-01-01 20:19:26.128,13.1,1.63,14.89,0.03,0.23,0.98,0.13,-1.57,-1.42,19.71,11.87,9.26,0.2,0.32,0.88,-1.05,1.53,-0.75
1900-01-01 20:19:26.128,12.43,1.86,14.84,0.03,0.22,0.98,0.35,-0.59,-1.18,20.12,11.74,9.14,0.2,0.33,0.88,-1.72,2.11,-0.47
1900-01-01 20:19:26.247,12.65,1.89,14.82,0.03,0.22,0.98,-0.5,0.6,-0.92,19.74,11.78,9.06,0.2,0.32,0.88,-1.74,1.82,0.01
1900-01-01 20:19:26.364,12.59,1.64,14.83,0.03,0.22,0.98,-0.64,0.18,-0.85,19.61,11.76,9.05,0.2,0.32,0.88,-1.74,1.54,0.0
1900-01-01 20:19:26.364,12.6,1.72,14.86,0.03,0.22,0.98,-0.77,-0.38,-0.99,19.8,11.63,9.04,0.19,0.33,0.88,-1.34,1.21,0.07
1900-01-01 20:19:26.552,12.5,1.68,14.87,0.03,0.22,0.98,-0.73,-0.25,-0.9,19.79,11.71,9.05,0.2,0.33,0.88,-0.95,0.92,0.36
1900-01-01 20:19:26.552,12.61,1.77,14.89,0.03,0.22,0.98,-1.06,-0.71,-0.75,19.6,11.74,9.09,0.19,0.32,0.88,-0.89,0.67,0.18
1900-01-01 20:19:26.607,12.32,1.66,14.94,0.03,0.22,0.98,-0.69,-0.53,-0.89,19.89,11.92,9.11,0.2,0.33,0.88,-1.06,1.16,0.08
1900-01-01 20:19:26.721,12.38,1.82,14.96,0.03,0.22,0.98,-0.71,-0.34,-0.81,19.94,11.95,9.12,0.2,0.33,0.88,-0.82,1.08,0.49
1900-01-01 20:19:26.751,12.4,1.75,14.99,0.03,0.22,0.98,-0.73,-0.45,-0.81,19.95,11.92,9.18,0.2,0.33,0.88,-0.99,1.07,0.32
1900-01-01 20:19:26.821,12.28,1.8,15.03,0.03,0.21,0.98,-0.63,-0.29,-0.88,19.74,11.95,9.22,0.2,0.33,0.88,-1.03,1.24,0.21
1900-01-01 20:19:26.961,12.42,1.74,15.05,0.03,0.22,0.98,-0.81,-0.46,-0.88,19.66,11.99,9.25,0.2,0.32,0.88,-1.35,1.34,0.0
1900-01-01 20:19:26.961,12.38,1.98,15.08,0.03,0.22,0.99,-0.1,-0.8,-1.22,19.44,12.12,9.24,0.2,0.32,0.88,-1.88,1.95,-0.87
1900-01-01 20:19:27.080,12.8,1.84,15.05,0.03,0.22,0.98,-0.32,-0.05,-1.08,20.26,11.74,9.1,0.2,0.33,0.88,-1.94,1.69,-0.14
1900-01-01 20:19:27.196,12.41,1.88,15.05,0.03,0.22,0.98,-0.81,0.07,-0.92,19.72,11.75,9.07,0.2,0.32,0.88,-1.45,1.51,-0.06
1900-01-01 20:19:27.196,12.55,1.81,15.06,0.03,0.22,0.98,-0.79,-0.37,-0.89,19.82,11.69,9.05,0.19,0.33,0.88,-1.44,1.38,0.01
1900-01-01 20:19:27.314,12.44,1.77,15.09,0.03,0.22,0.98,-0.74,-0.23,-0.96,19.6,11.82,9.04,0.2,0.32,0.88,-1.29,1.34,-0.03
1900-01-01 20:19:27.355,12.42,1.8,15.1,0.03,0.22,0.98,-0.79,-0.63,-0.87,19.71,11.72,9.03,0.2,0.32,0.88,-1.44,1.22,0.0
1900-01-01 20:19:27.428,12.31,1.84,15.12,0.03,0.21,0.98,-0.56,-0.31,-0.79,19.81,11.74,9.02,0.2,0.33,0.88,-1.62,1.61,0.5
1900-01-01 20:19:27.554,12.32,1.83,15.16,0.03,0.21,0.98,-0.58,-0.5,-0.69,19.57,11.7,9.09,0.2,0.32,0.89,-1.73,1.61,0.4
1900-01-01 20:19:27.587,12.29,1.91,15.21,0.03,0.21,0.98,-0.62,-0.32,-0.73,19.46,11.65,9.14,0.19,0.32,0.89,-1.43,1.44,0.17
1900-01-01 20:19:27.664,12.61,1.85,15.26,0.03,0.22,0.98,-0.46,0.09,-0.96,19.43,11.61,9.16,0.19,0.32,0.88,-1.44,1.44,-0.04
1900-01-01 20:19:27.788,12.31,1.88,15.27,0.03,0.21,0.98,-0.6,0.09,-0.98,19.24,11.71,9.14,0.2,0.32,0.89,-1.49,1.51,0.07
1900-01-01 20:19:27.823,12.47,1.88,15.28,0.03,0.22,0.98,-0.5,0.01,-0.96,19.39,11.73,9.15,0.2,0.32,0.88,-1.34,1.31,0.23
1900-01-01 20:19:27.914,12.62,1.95,15.3,0.03,0.22,0.98,-0.71,0.2,-0.69,19.56,11.95,9.17,0.2,0.32,0.88,-0.43,0.35,0.46
1900-01-01 20:19:28.026,12.41,1.39,15.35,0.02,0.22,0.98,-0.6,0.07,-0.9,19.19,11.72,9.23,0.19,0.31,0.88,-0.9,1.31,0.05
1900-01-01 20:19:28.026,12.62,1.76,15.37,0.03,0.22,0.98,-0.27,0.15,-0.95,19.9,11.8,9.23,0.2,0.33,0.88,-0.71,1.42,0.3
1900-01-01 20:19:28.140,12.32,1.45,15.39,0.03,0.21,0.98,-0.56,-0.33,-0.75,19.23,11.77,9.27,0.2,0.32,0.88,-1.02,1.71,-0.14
1900-01-01 20:19:28.258,12.22,1.42,15.43,0.02,0.21,0.98,-0.15,-0.83,-1.11,19.15,11.81,9.24,0.2,0.31,0.88,-1.81,1.89,-0.8
1900-01-01 20:19:28.258,12.9,1.85,15.42,0.03,0.22,0.98,-0.66,-0.19,-0.96,19.79,11.69,9.11,0.2,0.33,0.89,-1.69,1.66,-0.16
1900-01-01 20:19:28.375,12.63,1.6,15.43,0.03,0.22,0.98,-0.99,-0.56,-0.87,19.65,11.53,9.08,0.19,0.32,0.88,-1.42,1.2,-0.03
1900-01-01 20:19:28.428,12.68,1.75,15.46,0.03,0.22,0.98,-0.99,-0.76,-0.95,19.57,11.7,9.06,0.2,0.32,0.89,-1.34,0.96,0.06
1900-01-01 20:19:28.490,12.25,1.75,15.47,0.03,0.21,0.98,-0.92,-0.47,-0.95,19.47,11.65,9.06,0.19,0.32,0.88,-1.15,1.05,0.24
1900-01-01 20:19:28.610,12.53,1.78,15.49,0.03,0.22,0.98,-0.95,-0.33,-0.95,19.71,11.76,9.09,0.2,0.32,0.88,-1.1,0.88,0.21
1900-01-01 20:19:28.663,12.34,1.82,15.5,0.03,0.22,0.98,-0.79,-0.14,-0.94,19.35,11.85,9.11,0.2,0.32,0.89,-0.86,1.05,0.18
1900-01-01 20:19:28.739,12.55,1.73,15.52,0.03,0.22,0.98,-0.88,-0.42,-0.98,19.45,11.84,9.13,0.2,0.32,0.88,-1.19,1.12,-0.21
1900-01-01 20:19:28.866,12.11,1.73,15.52,0.03,0.21,0.98,-0.55,-0.82,-1.15,19.29,11.78,9.09,0.2,0.32,0.88,-1.47,1.61,-0.66
1900-01-01 20:19:28.866,12.22,2.08,15.51,0.04,0.21,0.98,-0.63,-0.6,-0.98,19.6,11.87,8.98,0.2,0.32,0.88,-1.67,1.75,-0.22
1900-01-01 20:19:28.963,12.67,1.96,15.51,0.03,0.22,0.98,-0.54,-0.07,-0.92,19.66,11.53,8.94,0.19,0.32,0.89,-1.28,1.56,0.05
1900-01-01 20:19:29.080,12.45,1.91,15.53,0.03,0.22,0.98,-0.79,-0.66,-0.89,19.5,11.64,8.94,0.19,0.32,0.88,-1.4,1.23,0.02
1900-01-01 20:19:29.109,12.39,1.97,15.56,0.03,0.22,0.98,-0.69,-0.52,-0.88,19.38,11.68,8.94,0.19,0.32,0.89,-1.31,1.38,0.05
1900-01-01 20:19:29.195,12.43,2.11,15.58,0.04,0.22,0.98,-0.76,-0.56,-0.77,19.48,11.65,8.93,0.19,0.32,0.88,-1.33,1.18,0.23
1900-01-01 20:19:29.310,12.28,2.04,15.62,0.04,0.21,0.98,-0.53,-0.16,-0.87,19.57,11.78,8.96,0.2,0.32,0.88,-1.02,1.08,0.34
1900-01-01 20:19:29.425,12.52,1.94,15.65,0.03,0.22,0.98,-0.93,-0.56,-0.82,19.79,11.77,9.0,0.2,0.33,0.88,-0.8,0.86,0.19
1900-01-01 20:19:29.425,12.28,2.18,15.68,0.04,0.21,0.98,-1.05,-0.22,-0.8,19.44,11.94,9.02,0.2,0.32,0.88,-0.69,1.19,0.19
1900-01-01 20:19:29.592,12.38,1.98,15.72,0.03,0.22,0.98,-0.47,-0.05,-1.08,19.53,11.72,9.05,0.19,0.32,0.88,-1.05,1.55,-0.27
1900-01-01 20:19:29.592,12.0,1.91,15.71,0.03,0.21,0.98,-0.05,-0.13,-1.24,19.38,11.73,9.0,0.2,0.32,0.88,-2.18,2.02,-0.5
1900-01-01 20:19:29.655,12.52,2.07,15.68,0.04,0.22,0.98,-0.47,0.14,-1.02,19.58,11.72,8.91,0.2,0.32,0.88,-1.6,1.68,-0.09
1900-01-01 20:19:29.770,12.6,1.84,15.68,0.03,0.22,0.98,-0.79,-0.28,-0.98,19.5,11.66,8.89,0.19,0.32,0.89,-1.53,1.42,-0.06
1900-01-01 20:19:29.876,12.41,2.01,15.69,0.04,0.22,0.98,-0.94,-0.73,-1.02,19.51,11.58,8.87,0.19,0.32,0.88,-1.52,1.13,-0.08
1900-01-01 20:19:29.876,12.34,1.97,15.7,0.03,0.21,0.98,-0.85,-0.53,-1.03,19.46,11.62,8.85,0.19,0.32,0.89,-1.45,1.38,-0.08
1900-01-01 20:19:30.004,12.04,2.04,15.7,0.04,0.21,0.98,-0.71,-0.44,-0.87,19.44,11.7,8.83,0.19,0.32,0.88,-1.27,1.34,0.05
1900-01-01 20:19:30.004,12.44,2.09,15.72,0.04,0.22,0.98,-0.56,-0.37,-0.93,19.32,11.69,8.83,0.19,0.32,0.89,-1.33,1.35,0.05
1900-01-01 20:19:30.110,12.29,2.07,15.74,0.04,0.21,0.98,-0.76,-0.29,-0.92,19.32,11.7,8.83,0.19,0.32,0.89,-1.26,1.23,0.09
1900-01-01 20:19:30.238,12.22,2.04,15.76,0.04,0.21,0.98,-0.8,-0.37,-0.91,19.18,11.75,8.83,0.2,0.32,0.88,-1.2,1.21,0.15
1900-01-01 20:19:30.238,12.32,2.12,15.78,0.04,0.21,0.98,-0.68,-0.11,-0.95,19.48,11.73,8.85,0.2,0.32,0.88,-1.24,1.04,0.32
1900-01-01 20:19:30.351,12.31,2.03,15.79,0.04,0.21,0.98,-0.63,-0.41,-0.89,19.74,11.83,8.89,0.2,0.33,0.89,-0.9,0.93,0.21
1900-01-01 20:19:30.397,12.01,2.24,15.82,0.04,0.21,0.98,-0.93,-0.53,-0.65,19.13,12.0,8.91,0.2,0.31,0.88,-0.53,0.82,0.24
1900-01-01 20:19:30.492,12.12,2.18,15.88,0.04,0.21,0.99,-0.58,-0.2,-0.77,19.5,11.87,8.94,0.2,0.32,0.88,-1.2,1.57,0.18
1900-01-01 20:19:30.538,12.28,2.05,15.92,0.04,0.21,0.98,-0.28,-0.04,-1.02,19.17,11.9,8.96,0.2,0.31,0.88,-1.82,1.83,-0.45
1900-01-01 20:19:30.730,12.63,2.02,15.92,0.04,0.22,0.98,-0.34,-0.24,-1.18,19.63,11.52,8.88,0.19,0.32,0.89,-1.87,1.85,-0.36
1900-01-01 20:19:30.730,12.16,2.15,15.9,0.04,0.21,0.99,-0.45,-0.01,-1.05,19.57,11.75,8.82,0.2,0.32,0.89,-1.32,1.52,-0.04
1900-01-01 20:19:30.845,12.37,2.07,15.9,0.04,0.22,0.98,-0.47,0.16,-0.96,19.39,11.6,8.8,0.19,0.32,0.89,-0.91,1.11,0.43
1900-01-01 20:19:30.845,12.34,1.95,15.91,0.03,0.22,0.98,-0.87,-0.34,-0.82,19.35,11.8,8.86,0.2,0.32,0.89,-0.23,0.69,0.34
1900-01-01 20:19:30.969,12.37,1.73,15.94,0.03,0.22,0.98,-0.86,-0.4,-0.85,19.23,11.78,8.9,0.2,0.32,0.88,-1.16,1.41,-0.04
1900-01-01 20:19:31.007,12.1,1.97,15.97,0.03,0.21,0.98,-0.08,-0.82,-1.04,19.31,11.6,8.89,0.19,0.32,0.89,-1.18,1.76,-0.18
1900-01-01 20:19:31.085,12.5,2.3,15.97,0.04,0.22,0.99,-0.31,0.59,-0.78,19.76,11.78,8.85,0.2,0.33,0.88,-0.89,1.36,0.69
1900-01-01 20:19:31.214,12.66,1.71,16.01,0.03,0.22,0.98,-0.32,-0.25,-0.89,19.59,11.5,8.95,0.19,0.32,0.88,-1.22,1.53,-0.08
1900-01-01 20:19:31.249,12.52,2.02,16.04,0.04,0.22,0.98,0.01,-0.5,-0.88,19.57,11.87,8.93,0.2,0.32,0.89,-1.2,1.33,0.05
1900-01-01 20:19:31.341,12.59,2.06,16.06,0.04,0.22,0.98,-0.76,0.14,-0.69,19.43,11.82,8.93,0.2,0.32,0.88,-0.8,1.0,0.47
1900-01-01 20:19:31.453,13.13,1.95,16.11,0.03,0.23,0.99,-0.61,-0.39,-1.1,19.63,11.68,8.99,0.19,0.32,0.88,-1.1,1.63,-0.24
1900-01-01 20:19:31.453,12.23,1.96,16.1,0.03,0.21,0.98,-0.21,0.14,-0.98,19.66,11.69,8.94,0.2,0.32,0.89,-1.36,1.41,0.0
1900-01-01 20:19:31.578,12.73,1.81,16.11,0.03,0.22,0.98,-0.93,0.44,-0.89,19.59,11.66,8.94,0.19,0.32,0.88,-0.99,1.04,0.2
1900-01-01 20:19:31.609,12.3,1.68,16.14,0.03,0.21,0.98,-0.87,-0.94,-1.06,19.29,11.73,8.96,0.19,0.32,0.88,-1.97,1.15,-0.47
1900-01-01 20:19:31.690,12.84,1.86,16.13,0.03,0.22,0.98,-0.36,0.08,-1.22,20.19,11.72,8.88,0.2,0.33,0.88,-1.28,1.18,0.15
1900-01-01 20:19:31.807,12.68,1.63,16.11,0.03,0.22,0.98,-1.55,-0.12,-0.78,19.47,11.59,8.89,0.19,0.32,0.88,-0.96,0.83,0.26
1900-01-01 20:19:31.836,12.77,1.81,16.15,0.03,0.22,0.99,-0.53,-1.21,-1.18,19.42,11.63,8.92,0.19,0.32,0.88,-1.2,1.37,-0.63
1900-01-01 20:19:31.919,12.33,1.84,16.13,0.03,0.21,0.98,0.14,-0.21,-1.12,19.88,11.62,8.82,0.19,0.33,0.88,-1.01,1.69,0.1
1900-01-01 20:19:32.040,12.74,2.04,16.11,0.04,0.22,0.98,-0.91,0.47,-0.69,19.97,11.59,8.82,0.19,0.33,0.88,-0.68,1.08,0.72
1900-01-01 20:19:32.070,13.15,1.69,16.17,0.03,0.23,0.98,-0.95,-1.27,-1.26,19.62,11.56,8.92,0.19,0.32,0.88,-1.21,1.16,-0.54
1900-01-01 20:19:32.154,11.96,2.03,16.13,0.04,0.21,0.98,-0.37,-0.92,-1.26,19.4,11.94,8.83,0.2,0.32,0.89,-1.7,1.27,-0.45
1900-01-01 20:19:32.275,12.4,2.28,16.1,0.04,0.22,0.98,-1.42,0.41,-0.85,19.92,11.95,8.76,0.2,0.33,0.88,-0.9,1.04,0.5
1900-01-01 20:19:32.303,12.58,1.76,16.13,0.03,0.22,0.98,-0.78,-0.25,-0.78,19.44,11.8,8.82,0.2,0.32,0.88,-1.04,1.33,0.01
1900-01-01 20:19:32.366,12.47,2.04,16.17,0.04,0.22,0.98,0.63,-1.03,-1.19,19.67,11.82,8.82,0.2,0.32,0.88,-1.56,1.27,-0.31
1900-01-01 20:19:32.439,12.7,2.13,16.15,0.04,0.22,0.98,-0.71,0.58,-0.95,19.77,11.9,8.76,0.2,0.33,0.89,-1.05,1.37,0.34
1900-01-01 20:19:32.532,12.65,1.7,16.16,0.03,0.22,0.98,-1.04,-0.17,-0.51,19.59,11.86,8.8,0.2,0.32,0.88,-0.72,1.24,0.27
1900-01-01 20:19:32.628,12.89,1.97,16.24,0.03,0.23,0.98,0.74,-2.02,-0.77,19.74,11.82,8.84,0.2,0.32,0.88,-0.54,1.55,0.05
1900-01-01 20:19:32.673,12.94,2.38,16.28,0.04,0.23,0.98,0.24,0.31,-1.02,20.25,11.84,8.84,0.2,0.33,0.88,-1.21,1.79,0.37
1900-01-01 20:19:32.765,13.17,1.86,16.29,0.03,0.23,0.97,-1.43,0.73,-1.12,20.0,11.58,8.88,0.19,0.33,0.88,-1.56,0.94,-0.02
1900-01-01 20:19:32.861,12.57,2.01,16.27,0.04,0.22,0.99,-0.78,-1.06,-1.47,19.4,11.9,8.87,0.2,0.32,0.88,-1.91,1.11,-0.58
1900-01-01 20:19:32.967,12.22,2.15,16.21,0.04,0.21,0.98,-0.07,0.66,-1.07,19.67,11.91,8.77,0.2,0.32,0.88,-1.68,1.63,0.3
1900-01-01 20:19:33.000,12.94,1.9,16.2,0.03,0.22,0.98,-1.24,1.34,-0.72,19.77,11.85,8.81,0.2,0.32,0.88,-1.29,1.3,0.27
1900-01-01 20:19:33.090,12.83,1.45,16.25,0.03,0.22,0.98,-0.92,-0.11,-0.9,19.42,11.55,8.84,0.19,0.32,0.88,-1.36,1.35,-0.08
1900-01-01 20:19:33.193,12.28,1.7,16.27,0.03,0.21,0.98,-0.06,-1.0,-0.98,19.63,11.86,8.82,0.2,0.32,0.88,-1.88,1.31,-0.18
1900-01-01 20:19:33.232,12.33,1.91,16.28,0.03,0.21,0.98,-1.31,0.08,-0.45,19.48,12.09,8.79,0.2,0.32,0.89,-1.2,1.44,0.77
1900-01-01 20:19:33.307,13.14,1.65,16.37,0.03,0.23,0.98,-0.44,-1.23,-0.73,19.39,11.71,8.9,0.19,0.32,0.88,-1.17,1.25,-0.04
1900-01-01 20:19:33.373,12.49,1.93,16.42,0.03,0.22,0.98,0.16,-0.49,-0.72,19.65,11.93,8.88,0.2,0.32,0.89,-1.03,1.34,0.19
1900-01-01 20:19:33.427,12.74,1.81,16.47,0.03,0.22,0.97,-1.34,0.28,-0.46,19.48,11.87,8.9,0.2,0.32,0.88,-0.85,1.38,0.52
1900-01-01 20:19:33.633,12.71,1.74,16.56,0.03,0.22,0.98,-0.52,-1.41,-0.85,19.41,11.75,8.97,0.2,0.32,0.88,-1.21,1.05,-0.37
1900-01-01 20:19:33.633,12.26,2.17,16.59,0.04,0.21,0.98,-0.37,0.08,-0.97,19.78,11.94,8.91,0.2,0.33,0.88,-1.31,1.54,0.15
1900-01-01 20:19:33.655,12.72,1.98,16.6,0.03,0.22,0.98,-1.12,0.66,-0.6,19.68,11.88,8.92,0.2,0.32,0.88,-1.09,1.3,0.37
1900-01-01 20:19:33.761,13.04,1.76,16.67,0.03,0.23,0.98,-0.47,-0.2,-0.98,19.5,11.69,8.97,0.19,0.32,0.88,-1.16,1.67,-0.02
1900-01-01 20:19:33.874,12.33,1.73,16.68,0.03,0.21,0.98,0.46,0.05,-1.0,19.53,11.68,8.96,0.19,0.32,0.88,-1.64,1.6,0.02
1900-01-01 20:19:33.985,12.81,1.96,16.68,0.03,0.22,0.98,-0.73,0.67,-0.59,19.65,11.9,8.95,0.2,0.32,0.88,-0.79,1.47,0.58
1900-01-01 20:19:33.985,13.2,1.5,16.75,0.03,0.23,0.98,-0.73,-0.28,-0.69,19.59,11.47,9.03,0.19,0.32,0.89,-0.99,1.34,0.11
1900-01-01 20:19:34.097,13.01,1.85,16.8,0.03,0.23,0.98,0.11,-1.09,-1.05,19.61,11.77,9.04,0.2,0.32,0.88,-1.4,1.2,-0.25
1900-01-01 20:19:34.207,12.78,2.02,16.8,0.04,0.22,0.98,-0.46,0.11,-0.8,19.69,11.8,8.99,0.2,0.32,0.88,-0.98,1.41,0.37
1900-01-01 20:19:34.207,13.15,1.62,16.84,0.03,0.23,0.98,-0.99,0.3,-0.65,19.67,11.67,9.04,0.19,0.32,0.88,-0.98,1.3,0.15
1900-01-01 20:19:34.327,13.32,1.68,16.9,0.03,0.23,0.98,0.16,-0.89,-1.16,19.76,11.58,9.05,0.19,0.32,0.88,-1.44,1.29,-0.27
1900-01-01 20:19:34.353,12.7,1.84,16.88,0.03,0.22,0.98,-0.34,-0.08,-0.87,19.71,11.89,9.0,0.2,0.32,0.88,-1.23,1.44,0.12
1900-01-01 20:19:34.435,13.04,1.69,16.91,0.03,0.23,0.98,-1.64,0.13,-0.63,19.64,11.86,9.01,0.2,0.32,0.88,-0.95,1.14,0.22
1900-01-01 20:19:34.636,13.28,1.68,16.97,0.03,0.23,0.98,-0.37,-0.82,-1.12,19.87,11.58,9.04,0.19,0.33,0.88,-1.5,1.28,-0.23
1900-01-01 20:19:34.654,12.87,1.75,16.96,0.03,0.22,0.98,-0.79,-0.53,-1.03,19.71,11.91,8.99,0.2,0.32,0.88,-1.88,1.34,-0.15
1900-01-01 20:19:34.694,12.79,1.85,16.96,0.03,0.22,0.98,-1.29,0.08,-0.66,19.66,11.91,8.96,0.2,0.32,0.88,-0.89,1.17,0.35
1900-01-01 20:19:34.724,13.18,1.65,17.02,0.03,0.23,0.98,-0.84,-0.67,-0.66,19.73,11.64,9.01,0.19,0.32,0.88,-0.99,1.4,0.12
1900-01-01 20:19:34.819,12.84,1.72,17.08,0.03,0.22,0.97,-0.2,-1.09,-1.03,19.65,11.83,9.02,0.2,0.32,0.88,-1.47,1.15,-0.24
1900-01-01 20:19:34.898,13.01,2.2,17.08,0.04,0.23,0.98,-1.14,-0.55,-0.89,19.72,11.85,8.97,0.2,0.33,0.89,-1.11,0.98,0.11
1900-01-01 20:19:35.020,12.83,1.87,17.1,0.03,0.22,0.98,-1.48,-0.26,-0.88,19.72,11.92,8.98,0.2,0.32,0.88,-0.91,1.04,0.11
1900-01-01 20:19:35.106,12.77,1.89,17.12,0.03,0.22,0.99,-1.05,-0.4,-0.96,19.47,11.85,8.99,0.2,0.32,0.88,-1.17,1.4,-0.15
1900-01-01 20:19:35.106,12.23,2.01,17.14,0.04,0.21,0.98,0.18,-0.35,-1.24,19.52,11.88,8.96,0.2,0.32,0.88,-1.87,1.63,-0.29
1900-01-01 20:19:35.228,13.07,2.16,17.11,0.04,0.23,0.98,-0.98,0.31,-0.89,19.95,11.87,8.91,0.2,0.33,0.88,-1.38,1.48,0.07
1900-01-01 20:19:35.258,12.89,1.85,17.13,0.03,0.22,0.98,-1.18,-0.12,-1.11,19.6,11.83,8.91,0.2,0.32,0.88,-1.6,1.15,-0.21
1900-01-01 20:19:35.340,12.72,1.95,17.12,0.03,0.22,0.98,-1.04,-0.69,-0.98,19.54,11.75,8.87,0.2,0.32,0.88,-1.36,1.21,-0.1
1900-01-01 20:19:35.454,12.55,1.96,17.13,0.03,0.22,0.98,-1.04,-0.85,-0.73,19.57,11.83,8.84,0.2,0.32,0.88,-1.34,1.2,0.15
1900-01-01 20:19:35.519,12.71,2.05,17.18,0.04,0.22,0.98,-0.83,-1.26,-0.63,19.59,11.84,8.86,0.2,0.32,0.88,-1.2,1.31,0.08
1900-01-01 20:19:35.568,12.68,2.3,17.24,0.04,0.22,0.98,-0.56,-1.47,-0.54,19.75,11.87,8.86,0.2,0.32,0.88,-1.1,1.22,0.16
1900-01-01 20:19:35.677,12.7,2.54,17.31,0.04,0.22,0.98,-0.88,-1.24,-0.51,19.77,11.79,8.88,0.2,0.32,0.88,-0.99,1.17,0.31
1900-01-01 20:19:35.708,12.8,2.58,17.39,0.05,0.22,0.98,-1.15,-0.72,-0.87,19.69,11.71,8.92,0.2,0.32,0.88,-1.2,1.5,0.13
1900-01-01 20:19:35.785,12.43,2.58,17.42,0.05,0.22,0.99,-0.73,-0.5,-1.21,19.46,12.02,8.93,0.2,0.32,0.88,-1.47,1.34,-0.15
1900-01-01 20:19:35.890,12.3,2.62,17.39,0.05,0.21,0.98,-0.08,-0.04,-1.32,19.5,12.01,8.9,0.2,0.32,0.88,-1.53,1.57,-0.18
1900-01-01 20:19:35.942,12.74,2.59,17.35,0.05,0.22,0.97,-0.84,0.19,-0.89,19.61,11.96,8.86,0.2,0.32,0.88,-0.86,1.01,0.31
1900-01-01 20:19:36.012,12.76,2.44,17.37,0.04,0.22,0.98,0.02,-1.56,-1.42,19.39,11.87,8.9,0.2,0.32,0.88,-1.44,1.19,-0.56
1900-01-01 20:19:36.121,12.28,2.82,17.32,0.05,0.21,0.98,-0.31,-0.09,-0.97,20.0,12.06,8.81,0.2,0.33,0.89,-0.97,1.36,0.32
1900-01-01 20:19:36.178,12.82,2.57,17.33,0.04,0.22,0.98,-2.07,0.63,-0.47,19.31,12.03,8.85,0.2,0.32,0.88,-0.99,1.28,0.5
1900-01-01 20:19:36.272,13.12,2.62,17.41,0.05,0.23,0.98,-0.47,-1.24,-1.03,19.66,11.88,8.91,0.2,0.32,0.88,-1.33,1.3,-0.53
1900-01-01 20:19:36.318,12.25,2.86,17.42,0.05,0.21,0.99,-0.4,-0.44,-0.92,19.59,12.15,8.82,0.2,0.32,0.88,-1.17,1.27,0.07
1900-01-01 20:19:36.411,12.63,2.63,17.43,0.05,0.22,0.98,-0.85,0.69,-0.88,19.57,12.09,8.83,0.2,0.32,0.88,-1.02,1.35,0.47
1900-01-01 20:19:36.503,12.92,2.43,17.46,0.04,0.23,0.98,-0.21,-0.79,-1.14,19.59,11.82,8.89,0.2,0.32,0.88,-1.65,1.36,-0.4
1900-01-01 20:19:36.561,12.31,2.79,17.45,0.05,0.21,0.98,-0.31,0.12,-1.02,19.92,11.98,8.82,0.2,0.33,0.89,-1.41,1.39,0.07
1900-01-01 20:19:36.679,13.18,2.6,17.45,0.05,0.23,0.98,-1.55,-0.1,-0.72,19.5,11.79,8.82,0.2,0.32,0.88,-1.01,0.99,0.1
1900-01-01 20:19:36.706,12.84,2.37,17.5,0.04,0.23,0.99,-0.24,-0.92,-1.35,19.25,11.99,8.83,0.2,0.32,0.88,-1.94,1.29,-0.69
1900-01-01 20:19:36.786,12.41,2.84,17.45,0.05,0.22,0.98,-0.57,0.61,-1.07,19.52,12.15,8.72,0.2,0.32,0.88,-1.5,1.51,0.27
1900-01-01 20:19:36.887,12.59,2.29,17.45,0.04,0.22,0.98,-1.37,0.6,-0.53,19.31,12.02,8.75,0.2,0.32,0.88,-0.89,1.35,0.43
1900-01-01 20:19:36.924,12.93,2.33,17.52,0.04,0.23,0.98,0.27,-0.76,-1.23,19.31,11.83,8.8,0.2,0.32,0.88,-1.46,1.56,-0.31
1900-01-01 20:19:37.009,12.69,2.52,17.5,0.04,0.22,0.98,-0.05,0.07,-1.06,19.89,12.06,8.75,0.2,0.33,0.88,-1.24,1.44,0.19
1900-01-01 20:19:37.119,12.95,2.33,17.49,0.04,0.22,0.98,-1.31,0.04,-0.69,19.36,12.0,8.77,0.2,0.32,0.88,-0.98,1.13,0.4
1900-01-01 20:19:37.158,12.68,2.24,17.55,0.04,0.22,0.98,-0.87,-0.65,-0.85,19.35,11.99,8.82,0.2,0.32,0.89,-1.2,1.31,0.01
1900-01-01 20:19:37.252,12.63,2.47,17.58,0.04,0.22,0.98,-0.55,-0.82,-0.79,19.49,12.03,8.81,0.2,0.32,0.88,-1.39,1.2,0.15
1900-01-01 20:19:37.346,12.34,2.49,17.61,0.04,0.21,0.98,-0.08,-0.08,-0.75,19.68,11.92,8.83,0.2,0.32,0.88,-0.76,1.69,0.18
1900-01-01 20:19:37.392,12.85,2.49,17.66,0.04,0.22,0.98,-0.52,0.4,-0.71,19.68,11.95,8.85,0.2,0.32,0.88,-1.02,1.61,0.28
1900-01-01 20:19:37.486,13.02,2.18,17.71,0.04,0.23,0.98,-0.98,0.13,-0.89,19.49,11.81,8.88,0.2,0.32,0.88,-1.4,1.45,0.02
1900-01-01 20:19:37.559,12.54,2.42,17.73,0.04,0.22,0.98,-0.37,-0.89,-0.95,19.46,11.99,8.88,0.2,0.32,0.88,-1.49,1.4,-0.4
1900-01-01 20:19:37.691,13.11,2.55,17.75,0.04,0.23,0.98,-0.32,0.07,-1.15,19.89,11.86,8.81,0.2,0.33,0.88,-1.3,1.62,0.02
1900-01-01 20:19:37.691,13.06,2.23,17.73,0.04,0.23,0.98,-1.21,-0.16,-1.02,19.45,11.68,8.8,0.2,0.32,0.89,-1.51,1.22,-0.15
1900-01-01 20:19:37.778,12.65,2.35,17.74,0.04,0.22,0.98,-1.11,-0.84,-1.02,19.44,11.79,8.77,0.2,0.32,0.89,-1.48,0.98,-0.18
1900-01-01 20:19:37.888,12.69,2.59,17.74,0.05,0.22,0.98,-0.9,-0.4,-0.85,19.51,11.81,8.73,0.2,0.32,0.88,-1.29,1.25,0.12
1900-01-01 20:19:37.920,12.7,2.43,17.77,0.04,0.22,0.98,-1.0,-0.28,-0.84,19.53,11.76,8.74,0.2,0.32,0.88,-1.14,1.18,0.19
1900-01-01 20:19:38.004,12.77,2.49,17.8,0.04,0.22,0.98,-1.28,-0.29,-0.79,19.63,11.86,8.76,0.2,0.32,0.88,-1.18,1.06,0.25
1900-01-01 20:19:38.099,12.69,2.47,17.84,0.04,0.22,0.98,-1.05,-0.77,-0.8,19.48,11.83,8.79,0.2,0.32,0.88,-1.0,1.13,-0.02
1900-01-01 20:19:38.145,12.31,2.72,17.87,0.05,0.21,0.98,0.53,-1.24,-1.34,19.39,12.06,8.78,0.2,0.32,0.88,-1.65,1.37,-0.5
1900-01-01 20:19:38.239,12.87,2.74,17.83,0.05,0.22,0.98,-0.51,0.2,-1.01,19.55,12.03,8.7,0.2,0.32,0.88,-1.37,1.48,0.14
1900-01-01 20:19:38.323,12.69,2.46,17.83,0.04,0.22,0.98,-1.02,-0.08,-0.75,19.45,11.93,8.71,0.2,0.32,0.89,-0.95,1.03,0.33
1900-01-01 20:19:38.430,12.59,2.63,17.88,0.05,0.22,0.98,-1.73,-0.59,-0.65,19.36,11.83,8.75,0.2,0.32,0.88,-1.2,0.96,-0.02
1900-01-01 20:19:38.473,12.61,2.74,17.94,0.05,0.22,0.99,-0.67,-1.09,-0.83,19.5,11.9,8.74,0.2,0.32,0.88,-1.14,1.65,-0.42
1900-01-01 20:19:38.554,12.39,2.88,17.97,0.05,0.22,0.98,-0.18,0.11,-1.17,20.0,11.85,8.67,0.2,0.33,0.88,-1.16,1.39,0.14
1900-01-01 20:19:38.668,12.46,2.59,17.95,0.05,0.22,0.98,-0.8,0.17,-1.01,19.36,11.81,8.68,0.2,0.32,0.88,-1.03,1.05,0.24
1900-01-01 20:19:38.755,12.7,2.62,17.96,0.05,0.22,0.99,-0.6,-1.23,-0.98,19.37,11.87,8.71,0.2,0.32,0.88,-1.17,1.45,-0.37
1900-01-01 20:19:38.755,12.24,2.86,17.96,0.05,0.21,0.98,-0.16,-0.26,-1.04,19.71,12.07,8.64,0.2,0.32,0.88,-1.34,1.36,0.08
1900-01-01 20:19:38.851,12.57,2.68,17.97,0.05,0.22,0.98,-0.73,0.2,-0.96,19.58,11.86,8.65,0.2,0.32,0.88,-1.19,1.3,0.32
1900-01-01 20:19:38.973,12.11,2.62,17.98,0.05,0.21,0.98,-0.81,-1.47,-0.53,19.51,12.04,8.69,0.2,0.32,0.88,-1.22,1.31,-0.41
1900-01-01 20:19:39.081,12.53,3.16,18.05,0.06,0.22,0.98,-0.34,-0.17,-0.85,19.9,12.05,8.62,0.2,0.33,0.88,-0.98,1.25,0.49
1900-01-01 20:19:39.081,12.72,2.83,18.08,0.05,0.22,0.98,-1.12,-0.18,-0.84,19.37,11.8,8.68,0.2,0.32,0.88,-1.21,1.11,0.08
1900-01-01 20:19:39.187,12.22,2.75,18.11,0.05,0.21,0.98,0.12,-0.41,-1.08,19.36,12.03,8.68,0.2,0.32,0.88,-1.83,1.53,-0.36
1900-01-01 20:19:39.224,12.76,2.94,18.11,0.05,0.22,0.98,-0.47,0.35,-0.95,19.93,11.9,8.62,0.2,0.33,0.88,-1.12,1.39,0.37
1900-01-01 20:19:39.298,12.73,2.62,18.12,0.05,0.22,0.98,-1.48,0.03,-0.69,19.57,11.83,8.67,0.2,0.32,0.88,-1.21,1.26,0.19
1900-01-01 20:19:39.421,12.69,2.65,18.18,0.05,0.22,0.98,-1.0,-0.5,-0.88,19.44,11.9,8.69,0.2,0.32,0.88,-1.39,1.34,-0.23
1900-01-01 20:19:39.499,12.08,2.83,18.2,0.05,0.21,0.98,-0.47,0.01,-0.82,19.37,12.1,8.65,0.2,0.32,0.88,-1.44,1.6,-0.09
1900-01-01 20:19:39.544,12.55,2.79,18.23,0.05,0.22,0.98,-0.1,0.67,-0.83,19.58,11.98,8.62,0.2,0.32,0.88,-1.31,1.53,0.64
1900-01-01 20:19:39.722,12.68,2.64,18.27,0.05,0.22,0.98,-0.81,-0.18,-0.85,19.55,11.91,8.71,0.2,0.32,0.88,-1.18,1.25,0.24
1900-01-01 20:19:39.722,12.51,2.57,18.3,0.05,0.22,0.98,-0.71,-0.72,-0.68,19.53,11.91,8.74,0.2,0.32,0.88,-1.07,1.51,-0.24
1900-01-01 20:19:39.753,12.16,2.53,18.35,0.04,0.21,0.98,-0.44,-0.4,-0.73,19.54,11.81,8.7,0.2,0.32,0.89,-1.21,1.5,0.0
1900-01-01 20:19:39.822,12.65,2.7,18.4,0.05,0.22,0.98,-0.35,0.02,-0.92,19.55,11.84,8.69,0.2,0.32,0.88,-1.16,1.16,0.5
1900-01-01 20:19:39.930,12.88,2.47,18.42,0.04,0.22,0.98,-1.05,-0.95,-0.79,19.53,11.72,8.76,0.19,0.32,0.88,-1.51,1.19,-0.15
1900-01-01 20:19:39.966,12.26,2.81,18.45,0.05,0.21,0.98,-0.94,-0.63,-0.7,19.61,11.65,8.73,0.19,0.32,0.88,-1.31,1.63,-0.24
1900-01-01 20:19:40.066,12.57,2.87,18.51,0.05,0.22,0.98,-0.09,0.37,-0.94,19.8,11.91,8.68,0.2,0.33,0.88,-1.03,1.59,0.42
1900-01-01 20:19:40.128,12.62,2.47,18.52,0.04,0.22,0.98,-0.67,-0.61,-0.95,19.5,11.79,8.73,0.2,0.32,0.88,-1.0,1.18,-0.01
1900-01-01 20:19:40.268,12.45,2.74,18.53,0.05,0.22,0.99,-0.79,-0.63,-0.74,19.46,11.76,8.72,0.2,0.32,0.88,-1.24,1.45,-0.26
1900-01-01 20:19:40.359,12.34,2.9,18.58,0.05,0.22,0.98,-0.27,0.22,-1.05,19.6,11.97,8.68,0.2,0.32,0.88,-1.33,1.64,0.15
1900-01-01 20:19:40.359,12.72,2.66,18.58,0.05,0.22,0.98,-0.53,-0.07,-0.89,19.5,11.7,8.69,0.2,0.32,0.89,-1.3,1.26,0.21
1900-01-01 20:19:40.469,12.78,2.78,18.6,0.05,0.22,0.98,-0.39,-0.05,-0.92,19.63,11.78,8.71,0.2,0.32,0.88,-1.32,1.37,0.08
1900-01-01 20:19:40.499,12.63,2.61,18.62,0.05,0.22,0.98,-0.44,0.25,-1.02,19.6,11.67,8.72,0.19,0.32,0.88,-1.38,1.6,0.05
1900-01-01 20:19:40.577,12.92,2.53,18.62,0.04,0.22,0.98,-0.39,-0.17,-1.16,19.7,11.52,8.72,0.19,0.32,0.88,-1.44,1.4,-0.12
1900-01-01 20:19:40.669,12.56,2.67,18.61,0.05,0.22,0.98,-0.21,0.12,-1.11,19.59,11.59,8.69,0.19,0.32,0.89,-1.43,1.78,-0.02
1900-01-01 20:19:40.764,12.75,2.46,18.59,0.04,0.22,0.98,-0.49,0.0,-1.0,19.47,11.6,8.68,0.19,0.32,0.88,-1.16,1.35,0.01
1900-01-01 20:19:40.811,12.87,2.55,18.6,0.04,0.22,0.98,-0.58,-0.45,-0.79,19.53,11.5,8.67,0.19,0.32,0.89,-1.19,1.16,-0.02
1900-01-01 20:19:40.905,11.85,2.37,18.64,0.04,0.21,0.98,3.18,0.72,-0.12,19.06,11.65,8.66,0.19,0.31,0.89,2.3,-0.09,0.75
1900-01-01 20:19:41.041,13.39,1.13,18.78,0.02,0.23,0.98,-0.85,-0.01,-1.11,19.95,12.72,8.76,0.21,0.32,0.87,1.17,-1.19,1.05
1900-01-01 20:19:41.041,13.5,3.09,18.77,0.05,0.24,0.98,-1.32,-0.6,-1.51,20.85,12.37,8.92,0.21,0.34,0.88,-0.85,-0.44,0.1
1900-01-01 20:19:41.106,12.95,2.2,18.7,0.04,0.23,0.98,-0.8,-0.76,-1.18,20.5,12.6,8.92,0.21,0.34,0.88,0.34,-0.95,0.28
1900-01-01 20:19:41.185,13.07,2.59,18.68,0.05,0.23,0.98,-0.45,-0.07,-1.16,20.74,13.09,8.96,0.22,0.34,0.87,0.23,-0.69,1.02
1900-01-01 20:19:41.278,13.33,2.43,18.66,0.04,0.23,0.98,0.07,-0.03,-1.4,21.12,13.68,9.1,0.23,0.35,0.86,0.32,-0.03,0.86
1900-01-01 20:19:41.371,13.09,2.23,18.6,0.04,0.23,0.98,-0.89,-0.4,-1.19,20.98,13.67,9.23,0.23,0.34,0.87,0.56,-0.29,0.95
1900-01-01 20:19:41.420,13.35,2.48,18.58,0.04,0.23,0.98,-0.6,-0.71,-1.21,21.56,14.15,9.36,0.24,0.35,0.86,-0.03,-0.03,0.38
1900-01-01 20:19:41.513,13.25,2.59,18.56,0.05,0.23,0.98,-1.32,-0.68,-0.89,21.68,14.31,9.41,0.24,0.35,0.86,-0.46,-0.05,0.05
1900-01-01 20:19:41.595,13.28,2.62,18.58,0.05,0.23,0.98,-0.79,-0.08,-1.15,21.76,14.26,9.41,0.24,0.36,0.86,-1.1,0.79,0.16
1900-01-01 20:19:41.652,13.24,2.63,18.56,0.05,0.23,0.98,-1.62,0.02,-0.85,21.66,14.55,9.43,0.24,0.35,0.86,-1.66,1.29,0.47
1900-01-01 20:19:41.734,13.0,2.36,18.59,0.04,0.23,0.98,-2.96,-0.81,-0.77,21.08,14.0,9.49,0.23,0.35,0.87,-1.82,1.6,-0.18
1900-01-01 20:19:41.804,12.05,2.38,18.63,0.04,0.21,0.98,1.0,-1.14,-1.04,20.84,14.33,9.45,0.24,0.34,0.86,-1.9,1.18,-0.71
1900-01-01 20:19:41.885,12.96,2.9,18.63,0.05,0.23,0.98,0.08,-0.15,-1.15,21.49,14.23,9.34,0.24,0.36,0.87,-1.5,1.82,-0.49
1900-01-01 20:19:41.979,12.96,2.56,18.62,0.04,0.23,0.98,-0.98,-0.1,-0.77,21.0,14.02,9.26,0.23,0.34,0.87,-1.15,1.37,0.11
1900-01-01 20:19:42.025,13.09,2.66,18.66,0.05,0.23,0.98,-1.15,-0.31,-1.0,21.53,14.25,9.26,0.24,0.35,0.86,-1.67,1.48,-0.04
1900-01-01 20:19:42.120,13.01,2.63,18.66,0.05,0.23,0.98,-0.66,-0.03,-1.0,21.36,14.08,9.25,0.23,0.35,0.86,-1.59,1.31,0.12
1900-01-01 20:19:42.234,13.17,2.7,18.67,0.05,0.23,0.98,-0.53,-0.2,-1.15,21.7,14.06,9.26,0.23,0.36,0.86,-1.69,1.33,0.15
1900-01-01 20:19:42.259,12.79,2.44,18.65,0.04,0.22,0.98,-0.6,-0.13,-1.08,20.98,14.24,9.27,0.24,0.35,0.87,-1.52,1.29,0.09
1900-01-01 20:19:42.353,13.06,2.9,18.65,0.05,0.23,0.98,-1.57,-1.5,-1.25,21.23,14.71,9.28,0.24,0.35,0.86,-1.66,1.65,-0.85
1900-01-01 20:19:42.415,13.0,2.23,18.61,0.04,0.23,0.98,-1.63,-1.09,-1.34,21.01,13.55,9.14,0.22,0.34,0.86,-3.31,2.59,-1.52
1900-01-01 20:19:42.497,12.54,2.93,18.57,0.05,0.22,0.98,-1.56,-0.48,-1.38,20.71,13.71,8.9,0.23,0.34,0.87,-2.88,2.52,-2.03
1900-01-01 20:19:42.594,11.98,2.94,18.52,0.05,0.21,0.99,-1.69,0.61,-1.63,18.91,13.59,8.58,0.23,0.31,0.89,-3.37,3.15,-3.85
1900-01-01 20:19:42.633,8.72,2.12,18.43,0.04,0.16,1.02,5.05,-2.22,-0.47,17.1,12.97,7.99,0.22,0.29,0.91,3.76,6.7,-1.6
1900-01-01 20:19:42.725,16.68,-2.09,18.51,-0.04,0.3,1.0,18.17,-0.35,-5.6,23.07,6.77,7.74,0.13,0.43,0.99,18.69,4.87,1.57
1900-01-01 20:19:42.777,12.88,-3.38,17.82,-0.06,0.24,1.05,-21.68,-14.55,-1.88,16.48,6.53,7.97,0.13,0.32,1.07,-24.9,-18.97,2.6
1900-01-01 20:19:42.866,10.47,1.39,17.69,0.03,0.19,1.02,-23.98,-17.83,-12.83,10.49,13.33,8.36,0.23,0.18,0.96,-30.53,-31.93,-10.76
1900-01-01 20:19:42.959,6.55,4.99,15.86,0.08,0.11,0.95,-17.18,-18.12,-23.47,8.12,18.75,6.68,0.3,0.13,0.86,-28.1,-34.94,-26.93
1900-01-01 20:19:43.019,6.28,8.85,12.4,0.15,0.1,0.93,-12.66,-16.82,-31.91,10.84,23.35,2.52,0.35,0.17,0.8,-19.02,-31.13,-33.49
1900-01-01 20:19:43.105,7.63,12.17,7.63,0.2,0.12,0.91,-8.66,-17.29,-35.29,14.2,25.04,-2.67,0.38,0.22,0.78,-18.39,-31.88,-39.91
1900-01-01 20:19:43.196,10.05,17.35,2.33,0.29,0.17,0.91,-4.26,-16.4,-34.31,19.57,32.52,-8.85,0.48,0.3,0.7,-14.82,-34.57,-44.05
1900-01-01 20:19:43.242,8.85,19.11,-2.83,0.33,0.16,0.95,2.07,-13.05,-27.62,23.62,33.15,-15.68,0.55,0.4,0.73,-6.02,-29.66,-44.04
1900-01-01 20:19:43.336,9.79,22.06,-6.94,0.4,0.18,0.97,0.39,-9.52,-20.54,24.41,39.9,-22.49,0.64,0.41,0.65,-5.21,-22.03,-32.23
1900-01-01 20:19:43.429,10.17,19.89,-9.95,0.36,0.19,0.98,6.07,-8.11,-15.72,26.01,38.29,-27.47,0.62,0.44,0.65,2.56,-2.14,-32.4
1900-01-01 20:19:43.474,15.02,19.51,-12.21,0.33,0.26,0.9,7.8,-4.91,-9.96,32.12,30.82,-32.47,0.48,0.5,0.63,-2.73,10.11,-23.52
1900-01-01 20:19:43.566,16.38,18.8,-13.58,0.32,0.28,0.89,4.9,0.96,-4.92,32.91,23.59,-36.1,0.39,0.53,0.72,-2.19,12.6,-10.36
1900-01-01 20:19:43.662,11.64,17.44,-14.18,0.31,0.21,0.96,0.11,3.23,-2.06,24.34,30.98,-37.7,0.53,0.42,0.77,3.99,-3.24,3.18
1900-01-01 20:19:43.708,17.22,12.82,-14.34,0.23,0.31,0.97,2.82,-2.05,-1.46,26.44,26.57,-37.23,0.45,0.45,0.78,2.47,-1.83,6.77
1900-01-01 20:19:43.802,12.76,16.12,-14.4,0.28,0.22,0.95,-2.21,-1.8,-1.63,24.1,32.35,-36.2,0.52,0.4,0.72,1.9,-4.73,2.25
1900-01-01 20:19:43.895,14.38,17.95,-14.5,0.32,0.25,0.94,-1.26,-1.52,-4.39,28.77,32.07,-35.86,0.52,0.47,0.68,2.77,-5.72,4.18
1900-01-01 20:19:43.943,16.76,16.82,-15.01,0.3,0.3,0.94,-0.63,-0.85,-3.45,28.35,32.11,-35.23,0.53,0.47,0.7,3.83,-6.44,6.71
1900-01-01 20:19:44.036,13.82,16.72,-15.38,0.29,0.24,0.95,-0.87,-1.82,-1.66,26.79,36.74,-34.2,0.58,0.44,0.65,4.15,-3.4,1.83
1900-01-01 20:19:44.132,14.6,18.33,-15.48,0.31,0.25,0.92,1.77,-1.54,-1.92,29.77,34.32,-33.93,0.55,0.49,0.64,2.4,-3.5,0.83
1900-01-01 20:19:44.175,13.63,17.06,-15.61,0.29,0.23,0.92,2.09,0.08,-2.21,27.21,37.3,-33.81,0.57,0.43,0.61,5.36,2.35,-0.43
1900-01-01 20:19:44.268,16.53,15.84,-15.79,0.27,0.29,0.92,3.34,1.11,-1.95,32.25,34.07,-33.89,0.55,0.52,0.62,8.5,1.05,-1.54
1900-01-01 20:19:44.315,15.01,16.74,-15.93,0.29,0.26,0.93,-0.09,1.24,-1.31,29.06,35.82,-34.13,0.58,0.48,0.64,-2.6,6.4,-0.13
1900-01-01 20:19:44.437,15.07,16.9,-15.97,0.3,0.26,0.94,0.1,0.15,-2.24,30.26,35.2,-34.16,0.57,0.5,0.64,-1.02,3.55,-0.57
1900-01-01 20:19:44.466,15.11,17.4,-16.16,0.31,0.27,0.94,-0.56,0.32,-2.06,30.7,35.3,-34.25,0.57,0.5,0.63,-1.69,2.61,-0.22
1900-01-01 20:19:44.548,16.06,16.69,-16.32,0.3,0.28,0.94,-1.64,-0.96,-1.85,28.7,35.05,-34.3,0.56,0.47,0.65,-2.53,2.28,-2.35
1900-01-01 20:19:44.642,15.89,16.17,-16.44,0.28,0.28,0.92,2.09,-1.37,-2.27,31.56,34.4,-34.67,0.55,0.51,0.63,1.36,-0.42,-3.93
1900-01-01 20:19:44.736,14.16,16.79,-16.63,0.3,0.25,0.95,-2.42,-1.53,-3.05,29.88,34.7,-35.28,0.57,0.5,0.66,-2.18,2.08,-2.86
1900-01-01 20:19:44.783,15.53,17.66,-16.95,0.31,0.28,0.94,0.31,-3.47,-4.43,33.09,33.61,-35.73,0.55,0.54,0.62,1.24,-0.76,-3.85
1900-01-01 20:19:44.876,16.93,17.42,-17.47,0.31,0.3,0.93,0.34,-0.6,-2.18,33.47,32.16,-36.33,0.53,0.55,0.64,-0.34,0.73,-1.03
1900-01-01 20:19:44.970,15.64,16.26,-17.64,0.29,0.28,0.95,-1.27,-0.6,-0.69,32.74,33.97,-36.49,0.56,0.54,0.63,-7.18,4.95,3.27
1900-01-01 20:19:45.015,15.92,17.77,-17.59,0.3,0.27,0.9,2.53,-0.65,-1.6,30.46,33.49,-36.0,0.52,0.47,0.62,-0.15,2.98,-2.12
1900-01-01 20:19:45.109,17.61,16.61,-17.68,0.29,0.3,0.91,-1.82,2.42,-3.0,34.07,32.64,-36.33,0.53,0.55,0.61,-1.51,0.7,0.22
1900-01-01 20:19:45.205,16.52,15.85,-17.98,0.29,0.3,0.97,-3.36,0.56,0.15,29.97,33.12,-36.31,0.56,0.52,0.69,-11.36,6.47,6.52
1900-01-01 20:19:45.250,14.97,19.45,-17.8,0.32,0.25,0.88,3.11,-0.44,-2.24,31.29,34.13,-35.32,0.53,0.49,0.61,5.16,-2.63,-5.71
1900-01-01 20:19:45.345,16.44,16.09,-17.98,0.28,0.28,0.92,-2.8,2.23,-1.65,28.87,35.51,-36.2,0.56,0.46,0.63,-1.31,1.74,-0.27
1900-01-01 20:19:45.390,16.05,16.6,-18.08,0.28,0.28,0.91,2.31,-0.38,-2.22,30.74,33.08,-36.25,0.53,0.49,0.64,3.8,-0.96,-0.3
1900-01-01 20:19:45.484,17.34,17.06,-18.26,0.3,0.31,0.94,-0.31,0.49,-1.66,33.15,33.8,-36.31,0.56,0.55,0.63,-1.17,0.6,1.31
1900-01-01 20:19:45.579,17.05,15.46,-18.36,0.28,0.31,0.96,-1.22,-1.09,-0.62,30.83,33.28,-36.12,0.55,0.52,0.67,-3.52,2.32,-0.27
1900-01-01 20:19:45.625,16.5,15.93,-18.29,0.27,0.28,0.92,1.22,-0.08,-0.91,32.23,33.27,-36.17,0.53,0.51,0.62,-0.12,0.82,0.26
1900-01-01 20:19:45.721,18.17,14.95,-18.28,0.26,0.32,0.92,-0.07,0.49,0.62,32.13,31.79,-36.13,0.51,0.52,0.65,-0.44,5.38,1.98
1900-01-01 20:19:45.836,18.42,14.31,-18.02,0.25,0.33,0.94,-1.82,-1.71,1.91,31.47,32.3,-35.84,0.54,0.53,0.67,-4.68,1.01,2.38
1900-01-01 20:19:45.864,16.43,16.08,-17.57,0.28,0.29,0.93,4.44,-3.18,1.26,32.26,32.08,-35.48,0.53,0.53,0.65,3.11,2.74,0.2
1900-01-01 20:19:45.953,16.43,18.46,-17.22,0.32,0.28,0.91,0.01,-1.48,2.08,31.72,34.62,-35.46,0.55,0.51,0.61,-2.47,1.72,2.39
1900-01-01 20:19:46.017,15.16,21.49,-16.74,0.37,0.26,0.9,0.82,-0.37,0.27,30.55,37.42,-35.1,0.59,0.49,0.59,-0.37,1.99,0.36
1900-01-01 20:19:46.103,17.84,18.88,-16.54,0.33,0.31,0.9,-2.16,0.85,-1.56,31.62,34.32,-35.06,0.56,0.52,0.63,0.75,-1.09,1.05
1900-01-01 20:19:46.195,16.24,19.76,-16.62,0.34,0.28,0.91,-1.53,-0.85,-4.44,31.64,36.09,-34.91,0.57,0.51,0.6,-0.7,2.41,-3.77
1900-01-01 20:19:46.232,17.89,18.51,-17.15,0.32,0.31,0.91,0.37,1.49,-4.91,33.26,31.66,-35.49,0.52,0.54,0.65,-2.77,2.71,-0.44
1900-01-01 20:19:46.325,19.25,12.96,-17.74,0.23,0.34,0.96,-3.17,1.17,-1.1,30.24,30.76,-35.57,0.51,0.51,0.7,-7.24,1.95,5.21
1900-01-01 20:19:46.418,18.63,14.9,-17.75,0.25,0.31,0.89,1.61,-0.66,-1.82,30.23,31.78,-34.78,0.49,0.47,0.64,1.42,-0.97,-2.21
1900-01-01 20:19:46.466,18.78,15.63,-17.87,0.28,0.33,0.93,-2.54,1.22,-1.62,31.59,33.65,-35.13,0.55,0.52,0.64,-2.14,0.44,-1.3
1900-01-01 20:19:46.561,15.66,16.98,-17.96,0.3,0.27,0.93,-0.81,-0.1,-1.08,30.25,34.43,-35.34,0.56,0.5,0.65,-0.31,3.51,-0.63
1900-01-01 20:19:46.654,17.48,16.88,-17.97,0.29,0.3,0.92,0.6,0.12,-1.18,32.82,32.61,-35.44,0.53,0.53,0.63,0.02,1.83,0.8
1900-01-01 20:19:46.700,18.78,14.9,-17.99,0.26,0.33,0.93,1.37,-0.69,0.24,33.09,30.0,-35.33,0.51,0.55,0.68,3.1,1.3,8.43
1900-01-01 20:19:46.795,17.01,16.38,-17.8,0.29,0.3,0.94,-1.27,0.73,3.41,28.99,36.67,-34.05,0.6,0.49,0.64,-2.79,3.34,6.94
1900-01-01 20:19:46.888,16.27,16.94,-17.12,0.3,0.29,0.95,-0.89,-2.4,1.36,27.61,36.76,-33.0,0.59,0.45,0.64,-5.76,3.46,9.02
1900-01-01 20:19:46.936,18.1,20.43,-16.75,0.36,0.32,0.91,0.63,0.25,-1.51,31.91,36.51,-31.63,0.59,0.53,0.61,3.31,-2.78,5.85
1900-01-01 20:19:47.016,19.12,17.32,-16.82,0.31,0.34,0.93,-1.4,0.45,2.81,31.09,35.08,-30.74,0.58,0.52,0.64,0.62,0.34,3.85
1900-01-01 20:19:47.106,17.15,15.15,-16.24,0.26,0.29,0.9,-1.11,-1.55,3.58,26.88,36.05,-30.16,0.56,0.43,0.64,0.81,0.64,2.93
1900-01-01 20:19:47.154,16.99,16.82,-15.53,0.28,0.28,0.89,-0.73,-0.85,1.68,29.56,35.62,-29.72,0.55,0.47,0.61,2.5,1.04,2.34
1900-01-01 20:19:47.246,17.39,17.2,-15.12,0.31,0.31,0.94,1.21,-0.98,2.9,29.78,37.39,-29.37,0.61,0.5,0.63,3.78,0.92,0.61
1900-01-01 20:19:47.340,16.01,18.8,-14.51,0.33,0.28,0.92,0.76,-0.67,2.4,29.57,38.17,-29.29,0.61,0.48,0.6,2.24,0.51,0.97
1900-01-01 20:19:47.387,15.51,17.18,-13.99,0.3,0.27,0.92,-1.27,0.15,0.94,28.98,37.53,-29.15,0.59,0.47,0.61,1.24,1.49,2.76
1900-01-01 20:19:47.480,17.44,16.92,-13.69,0.29,0.3,0.91,-2.21,-0.19,-0.05,29.86,37.35,-28.74,0.59,0.49,0.6,-0.37,1.6,2.84
1900-01-01 20:19:47.601,15.92,18.54,-13.54,0.32,0.28,0.91,0.95,-0.21,-0.86,29.47,37.12,-28.31,0.59,0.48,0.62,5.02,1.85,0.04
1900-01-01 20:19:47.631,16.11,18.21,-13.51,0.32,0.28,0.92,0.21,-0.25,-0.77,29.82,38.19,-28.31,0.6,0.49,0.6,3.14,0.73,0.41
1900-01-01 20:19:47.714,16.95,17.61,-13.47,0.31,0.3,0.92,-0.86,2.17,-0.92,31.46,38.29,-28.26,0.6,0.51,0.57,0.73,-0.55,2.15
1900-01-01 20:19:47.766,17.29,16.89,-13.45,0.29,0.3,0.92,-0.65,2.02,-0.67,31.22,37.68,-27.94,0.6,0.51,0.59,-1.24,1.9,1.56
1900-01-01 20:19:47.891,16.28,16.64,-13.4,0.29,0.28,0.92,-0.03,1.99,-0.82,29.84,38.93,-27.71,0.61,0.48,0.58,-2.24,3.04,0.54
1900-01-01 20:19:47.923,16.1,16.24,-13.36,0.28,0.28,0.92,-1.66,3.0,-1.47,30.01,38.62,-27.63,0.6,0.48,0.58,-3.5,4.88,0.78
1900-01-01 20:19:47.994,16.19,16.36,-13.43,0.29,0.29,0.95,-3.03,3.65,-1.53,29.55,38.24,-27.52,0.62,0.5,0.61,-6.58,6.48,1.49
1900-01-01 20:19:48.090,16.19,15.9,-13.5,0.28,0.28,0.93,-1.37,3.32,-1.79,28.77,37.33,-27.3,0.6,0.48,0.63,-5.04,4.5,0.16
1900-01-01 20:19:48.183,15.38,15.55,-13.62,0.27,0.27,0.94,-3.89,2.08,-2.55,26.85,38.43,-27.28,0.61,0.44,0.62,-8.51,5.98,-0.77
1900-01-01 20:19:48.230,17.13,13.98,-13.85,0.24,0.3,0.93,-1.2,2.53,-3.63,29.52,35.29,-27.41,0.56,0.48,0.63,-5.86,5.21,-0.53
1900-01-01 20:19:48.324,15.16,14.41,-14.25,0.26,0.27,0.96,-3.28,2.24,-3.92,26.91,36.84,-27.5,0.6,0.45,0.66,-5.79,3.81,-1.84
1900-01-01 20:19:48.373,15.58,13.7,-14.69,0.24,0.28,0.96,-0.32,0.68,-3.66,27.47,34.97,-27.79,0.57,0.46,0.68,-4.66,3.02,-5.39
1900-01-01 20:19:48.463,15.45,14.16,-15.1,0.25,0.27,0.95,0.09,-0.31,-3.84,26.94,35.45,-28.63,0.57,0.45,0.67,-4.18,1.27,-5.73
1900-01-01 20:19:48.556,16.83,13.63,-15.53,0.24,0.29,0.94,-0.63,-0.47,-3.78,29.26,33.29,-29.51,0.54,0.48,0.67,-4.21,1.16,-3.95
1900-01-01 20:19:48.604,15.56,13.46,-15.95,0.24,0.27,0.95,0.16,-0.05,-3.28,27.59,33.94,-30.13,0.55,0.45,0.67,-2.61,2.34,-4.05
1900-01-01 20:19:48.705,16.27,13.35,-16.3,0.23,0.28,0.94,-0.15,-0.04,-3.8,28.42,32.88,-30.76,0.53,0.46,0.68,-3.02,1.81,-3.48
1900-01-01 20:19:48.793,16.23,13.15,-16.72,0.23,0.29,0.95,-0.3,-0.44,-3.54,27.78,33.34,-31.3,0.54,0.46,0.69,-2.37,1.39,-2.86
1900-01-01 20:19:48.838,16.5,13.22,-17.11,0.23,0.29,0.95,-0.18,-0.6,-3.27,29.17,32.39,-31.75,0.53,0.48,0.68,-2.21,1.51,-3.26
1900-01-01 20:19:48.931,16.12,13.3,-17.45,0.23,0.28,0.94,-0.2,-0.79,-2.76,28.05,32.77,-32.26,0.53,0.46,0.68,-2.15,1.46,-3.12
1900-01-01 20:19:49.025,16.54,12.9,-17.72,0.23,0.29,0.95,-0.87,-1.27,-2.74,27.87,32.44,-32.75,0.53,0.46,0.69,-3.05,1.09,-3.04
1900-01-01 20:19:49.071,17.41,13.35,-17.98,0.23,0.3,0.94,0.06,-1.79,-2.58,29.41,31.39,-33.23,0.51,0.48,0.68,-1.63,0.33,-2.36
1900-01-01 20:19:49.166,16.91,13.38,-18.22,0.23,0.29,0.94,-0.39,-1.81,-2.44,29.03,31.87,-33.6,0.52,0.47,0.68,-1.56,0.56,-2.08
1900-01-01 20:19:49.304,17.3,13.46,-18.44,0.24,0.3,0.94,-0.33,-1.76,-2.11,29.8,31.21,-33.93,0.51,0.49,0.68,-1.27,0.86,-1.39
1900-01-01 20:19:49.304,18.05,14.01,-18.6,0.24,0.31,0.91,-0.37,-0.17,-2.04,30.23,31.49,-34.15,0.49,0.48,0.65,-1.68,0.62,-1.31
1900-01-01 20:19:49.401,16.94,13.38,-18.76,0.24,0.3,0.95,-1.34,0.68,-1.5,28.18,32.01,-34.36,0.53,0.47,0.7,-1.85,1.01,-0.71
1900-01-01 20:19:49.447,16.96,13.84,-18.83,0.25,0.3,0.95,0.06,-1.47,-1.5,29.36,31.71,-34.48,0.52,0.48,0.69,-0.61,1.47,-1.23
1900-01-01 20:19:49.567,17.28,13.98,-18.9,0.25,0.3,0.94,-0.57,-0.55,-0.84,29.97,31.75,-34.67,0.52,0.49,0.67,-1.78,1.36,-0.21
1900-01-01 20:19:49.635,17.0,13.34,-18.87,0.23,0.29,0.93,-0.48,-0.34,-0.73,28.92,31.46,-34.71,0.51,0.47,0.68,-1.43,1.6,0.04
1900-01-01 20:19:49.681,17.76,13.95,-18.83,0.24,0.31,0.93,-0.5,-0.45,-0.89,30.13,31.21,-34.72,0.51,0.49,0.68,-1.13,1.27,0.08
1900-01-01 20:19:49.795,16.63,13.83,-18.8,0.24,0.29,0.93,1.79,-1.61,-2.12,29.74,31.17,-34.71,0.5,0.48,0.68,2.84,0.88,-2.31
1900-01-01 20:19:49.836,16.94,13.67,-18.97,0.24,0.3,0.94,-0.85,-0.33,-0.46,29.86,31.74,-35.08,0.52,0.5,0.69,1.13,0.91,1.01
1900-01-01 20:19:49.926,18.01,14.51,-18.88,0.25,0.31,0.93,0.08,-1.12,-0.86,31.4,30.67,-34.93,0.5,0.51,0.67,0.56,-0.79,-0.5
1900-01-01 20:19:50.009,17.17,13.91,-18.86,0.24,0.3,0.94,-0.74,-0.54,-0.6,30.3,32.59,-35.02,0.53,0.5,0.67,1.11,-0.88,0.28
1900-01-01 20:19:50.100,17.17,13.32,-18.79,0.24,0.3,0.95,-0.37,-1.89,-0.98,30.01,32.35,-34.98,0.53,0.49,0.67,1.31,-0.46,-0.79
1900-01-01 20:19:50.147,18.03,14.48,-18.78,0.25,0.32,0.93,-0.44,-1.35,0.16,32.04,31.71,-35.11,0.52,0.52,0.65,-0.3,1.3,1.17
1900-01-01 20:19:50.239,16.97,13.79,-18.6,0.24,0.29,0.93,0.34,-1.68,-1.51,30.58,31.91,-34.94,0.53,0.51,0.68,2.79,-3.28,-2.72
1900-01-01 20:19:50.374,19.53,15.24,-18.67,0.26,0.34,0.91,10.12,-2.78,1.15,36.5,30.27,-35.37,0.48,0.57,0.6,9.76,3.02,-4.73
1900-01-01 20:19:50.374,21.75,15.11,-18.34,0.27,0.38,0.92,-3.24,-1.34,4.89,34.57,30.37,-36.1,0.51,0.57,0.66,-4.53,-5.65,10.15
1900-01-01 20:19:50.460,18.07,14.01,-17.43,0.24,0.31,0.92,4.88,-3.97,5.45,30.81,33.22,-34.54,0.53,0.49,0.63,8.52,-5.47,1.93
1900-01-01 20:19:50.605,17.4,17.46,-16.44,0.3,0.3,0.89,-7.46,-2.39,5.23,29.97,40.39,-34.26,0.6,0.46,0.53,-6.09,-0.63,3.98
1900-01-01 20:19:50.605,14.73,21.44,-15.47,0.37,0.26,0.92,0.87,-0.7,0.24,29.4,40.85,-33.66,0.65,0.49,0.57,3.34,3.3,-8.11
1900-01-01 20:19:50.705,14.3,21.72,-15.28,0.39,0.26,0.94,-1.93,0.25,-1.66,30.93,43.42,-34.9,0.68,0.51,0.51,-7.18,12.06,-5.29
1900-01-01 20:19:50.753,15.88,18.26,-15.37,0.32,0.28,0.93,0.43,5.15,-8.53,34.2,31.78,-35.73,0.53,0.57,0.64,-4.28,8.21,-2.77
1900-01-01 20:19:50.893,21.66,10.01,-16.52,0.17,0.37,0.92,-4.92,4.29,-4.13,34.61,22.98,-36.16,0.39,0.57,0.72,-6.92,1.19,0.69
1900-01-01 20:19:50.940,19.32,9.49,-17.0,0.16,0.33,0.92,-7.92,0.11,0.27,28.42,28.89,-36.06,0.45,0.45,0.69,-11.4,3.44,-1.5
1900-01-01 20:19:50.985,17.29,11.97,-16.8,0.2,0.29,0.92,3.01,0.34,-1.51,31.48,28.03,-36.3,0.46,0.51,0.69,3.35,2.57,-2.53
1900-01-01 20:19:51.078,17.12,14.57,-16.87,0.25,0.3,0.93,-1.52,0.39,0.66,31.06,30.37,-36.7,0.5,0.51,0.68,2.28,-1.26,1.82
1900-01-01 20:19:51.176,15.93,18.0,-16.61,0.32,0.28,0.93,-0.1,-1.18,-0.44,30.7,35.3,-36.43,0.56,0.5,0.62,-2.89,0.6,-0.58
1900-01-01 20:19:51.217,17.28,16.99,-16.52,0.3,0.3,0.93,0.34,-0.77,-1.41,33.13,32.52,-36.53,0.54,0.55,0.64,-2.5,0.51,0.23
1900-01-01 20:19:51.313,17.09,15.44,-16.58,0.27,0.3,0.94,1.21,-1.14,-0.85,32.26,31.96,-36.5,0.52,0.52,0.65,-0.67,0.86,0.44
1900-01-01 20:19:51.406,17.41,14.59,-16.55,0.26,0.3,0.93,0.01,-0.57,-0.89,30.94,31.8,-36.44,0.52,0.5,0.66,-2.38,-0.08,0.79
1900-01-01 20:19:51.452,17.49,14.88,-16.53,0.26,0.3,0.93,-3.43,-0.64,-1.07,31.05,32.33,-36.33,0.52,0.5,0.65,-2.56,0.14,-0.05
1900-01-01 20:19:51.545,17.41,15.21,-16.53,0.27,0.3,0.93,-1.3,0.11,-1.04,31.78,31.97,-36.34,0.52,0.51,0.65,0.1,2.05,-0.25
1900-01-01 20:19:51.664,16.93,15.28,-16.53,0.27,0.3,0.93,-2.39,0.49,-0.82,31.75,32.26,-36.39,0.52,0.51,0.65,-1.93,3.02,1.18
1900-01-01 20:19:51.695,16.36,15.28,-16.5,0.27,0.29,0.95,-2.84,0.75,-0.77,30.04,32.84,-36.22,0.54,0.5,0.67,-4.18,2.68,1.02
1900-01-01 20:19:51.805,15.75,14.57,-16.46,0.26,0.28,0.96,-1.34,-1.24,-2.19,30.09,32.03,-36.07,0.53,0.5,0.69,-1.45,3.22,-1.81
1900-01-01 20:19:51.833,17.52,14.54,-16.64,0.26,0.31,0.93,1.98,-2.42,-2.02,31.64,30.81,-36.36,0.49,0.51,0.65,-1.06,2.98,-3.02
1900-01-01 20:19:51.918,17.98,13.95,-16.79,0.24,0.31,0.92,2.15,-1.8,-0.73,32.55,28.18,-36.83,0.46,0.53,0.68,0.13,0.55,-1.77
1900-01-01 20:19:52.012,18.24,14.79,-16.75,0.26,0.32,0.93,-1.44,-1.72,0.47,31.99,31.15,-37.11,0.5,0.51,0.65,-3.53,2.48,0.13
1900-01-01 20:19:52.057,17.33,17.36,-16.52,0.3,0.3,0.92,-1.56,-0.35,0.06,32.51,31.86,-37.1,0.52,0.53,0.65,-5.47,2.24,0.63
1900-01-01 20:19:52.153,16.34,17.38,-16.35,0.3,0.28,0.92,-0.17,-0.37,-0.53,31.83,31.69,-37.01,0.52,0.52,0.66,-2.31,1.08,-0.16
1900-01-01 20:19:52.246,17.12,17.67,-16.27,0.31,0.3,0.91,-0.47,-0.53,-0.28,31.9,31.56,-37.04,0.51,0.51,0.65,-1.38,1.47,0.53
1900-01-01 20:19:52.293,15.96,15.71,-16.16,0.27,0.28,0.93,-1.46,0.6,-1.19,29.76,31.85,-36.97,0.52,0.49,0.68,0.05,-0.07,-0.92
1900-01-01 20:19:52.386,16.11,15.61,-16.18,0.27,0.28,0.94,-0.98,-0.48,-2.47,31.25,32.03,-37.12,0.52,0.51,0.66,-2.93,2.14,-0.87
1900-01-01 20:19:52.480,16.36,17.26,-16.4,0.3,0.29,0.93,-1.66,0.71,-3.26,32.63,30.77,-37.26,0.51,0.53,0.66,-1.89,1.66,-0.42
1900-01-01 20:19:52.526,17.5,14.68,-16.75,0.26,0.3,0.93,-1.2,0.94,-1.6,31.62,28.97,-37.34,0.47,0.51,0.68,-1.06,1.34,0.88
1900-01-01 20:19:52.619,16.98,14.28,-16.83,0.25,0.29,0.93,-3.79,-0.43,-1.05,29.99,30.7,-37.21,0.49,0.48,0.67,-4.58,0.39,1.08
1900-01-01 20:19:52.716,15.94,13.96,-16.83,0.24,0.28,0.93,-1.56,-1.15,-2.35,29.91,30.26,-37.05,0.49,0.49,0.69,1.06,-0.34,-0.22
1900-01-01 20:19:52.761,16.14,15.41,-17.04,0.27,0.28,0.93,-0.27,-1.43,-2.86,32.13,29.7,-37.09,0.48,0.52,0.67,1.86,-0.65,6.85
1900-01-01 20:19:52.853,16.24,15.51,-17.32,0.27,0.29,0.94,-1.27,-0.34,-1.98,29.73,32.62,-36.05,0.53,0.49,0.67,-1.44,-0.59,3.68
1900-01-01 20:19:52.900,17.24,16.06,-17.46,0.28,0.3,0.91,-1.23,-0.59,-1.05,31.65,31.81,-35.49,0.51,0.51,0.64,-3.56,2.53,3.21
1900-01-01 20:19:53.005,15.81,15.96,-17.47,0.27,0.27,0.92,-0.63,0.08,-0.51,30.58,33.46,-35.01,0.52,0.48,0.62,-1.16,6.4,1.65
1900-01-01 20:19:53.113,15.61,16.5,-17.39,0.29,0.27,0.93,1.68,2.79,-0.4,29.68,32.34,-34.76,0.54,0.5,0.69,3.86,-0.33,-0.34
1900-01-01 20:19:53.143,16.93,13.42,-17.29,0.25,0.31,1.0,-0.92,-1.18,0.65,28.51,32.44,-34.82,0.56,0.5,0.73,-5.31,-4.41,6.37
1900-01-01 20:19:53.207,15.77,15.04,-17.03,0.26,0.27,0.93,1.04,-1.14,0.32,30.78,32.45,-33.85,0.52,0.5,0.65,-0.64,0.36,0.63
1900-01-01 20:19:53.318,15.49,14.78,-16.82,0.25,0.27,0.92,-4.63,0.73,-0.63,27.07,33.74,-33.76,0.54,0.44,0.68,0.05,-1.88,1.41
1900-01-01 20:19:53.364,16.65,16.43,-16.76,0.28,0.29,0.92,-1.15,0.47,-0.82,30.5,34.25,-33.56,0.54,0.49,0.63,-2.08,2.47,-1.75
1900-01-01 20:19:53.458,16.14,15.53,-16.73,0.27,0.28,0.94,-0.89,0.45,0.2,29.83,34.22,-33.83,0.56,0.49,0.66,-2.95,2.77,-0.81
1900-01-01 20:19:53.553,14.82,15.36,-16.54,0.27,0.26,0.94,0.74,-0.06,0.12,29.46,34.0,-33.97,0.55,0.49,0.66,-0.61,0.97,-0.53
1900-01-01 20:19:53.598,15.39,14.94,-16.36,0.26,0.27,0.94,0.99,0.17,-0.07,29.11,33.46,-34.06,0.55,0.48,0.67,1.73,1.58,-0.06
1900-01-01 20:19:53.691,14.85,13.97,-16.21,0.25,0.27,0.97,0.24,-0.08,-0.55,29.19,33.51,-34.07,0.56,0.49,0.68,1.23,1.63,0.9
1900-01-01 20:19:53.798,17.46,15.06,-16.14,0.27,0.31,0.95,0.76,-0.8,-0.34,30.09,33.31,-33.95,0.54,0.49,0.66,-0.37,3.87,-0.76
1900-01-01 20:19:53.832,17.98,16.05,-16.03,0.27,0.3,0.89,0.63,0.88,-0.54,33.29,31.23,-34.07,0.49,0.52,0.62,-1.58,1.12,0.17
1900-01-01 20:19:53.925,15.77,14.57,-15.96,0.26,0.28,0.94,-2.85,0.99,-0.57,30.0,33.69,-34.05,0.56,0.5,0.67,-1.89,1.03,0.25
1900-01-01 20:19:53.973,16.32,15.44,-15.89,0.27,0.29,0.94,1.44,-1.68,0.05,31.6,32.45,-34.02,0.53,0.52,0.65,2.18,1.94,-0.78
1900-01-01 20:19:54.064,15.79,15.08,-15.72,0.26,0.27,0.93,-0.44,0.41,0.73,31.15,32.81,-34.15,0.53,0.5,0.64,0.45,0.27,1.03
1900-01-01 20:19:54.158,15.43,14.76,-15.45,0.26,0.27,0.94,-0.87,1.5,1.39,30.25,33.42,-34.0,0.54,0.5,0.66,-1.31,1.99,3.48
1900-01-01 20:19:54.205,16.19,14.47,-15.08,0.26,0.29,0.96,-1.04,1.09,2.22,29.09,35.33,-33.48,0.59,0.49,0.66,-2.87,2.37,5.76
1900-01-01 20:19:54.298,14.24,16.85,-14.58,0.28,0.24,0.89,1.84,-3.04,-2.11,27.89,31.65,-32.61,0.49,0.44,0.66,2.66,4.92,-1.94
1900-01-01 20:19:54.399,17.23,15.33,-14.75,0.26,0.29,0.91,-1.48,0.85,-1.87,30.72,32.64,-32.91,0.51,0.49,0.64,-0.01,-0.05,-0.03
1900-01-01 20:19:54.441,15.85,14.79,-14.88,0.26,0.28,0.94,-2.39,0.18,-1.82,29.81,33.95,-32.92,0.56,0.5,0.66,-0.54,2.19,-0.78
1900-01-01 20:19:54.532,16.3,15.35,-15.0,0.27,0.29,0.95,-0.21,-1.28,-1.34,30.1,33.69,-33.05,0.55,0.49,0.65,-0.91,1.09,-0.66
1900-01-01 20:19:54.580,15.14,14.47,-15.04,0.25,0.27,0.95,-1.3,-0.11,-1.79,29.16,33.79,-33.16,0.55,0.48,0.66,-1.11,1.96,1.06
1900-01-01 20:19:54.682,15.75,14.89,-15.16,0.26,0.28,0.95,-0.94,-0.31,-2.85,30.61,33.3,-33.01,0.54,0.5,0.65,-2.88,2.65,2.54
1900-01-01 20:19:54.766,17.91,14.93,-15.44,0.27,0.32,0.95,-2.04,0.15,-1.68,32.23,31.99,-32.63,0.54,0.54,0.67,-6.0,2.56,2.69
1900-01-01 20:19:54.814,15.67,16.48,-15.54,0.28,0.27,0.92,0.08,-3.09,-1.15,29.37,33.57,-32.22,0.52,0.46,0.63,-1.85,1.77,-3.18
1900-01-01 20:19:54.905,17.08,15.39,-15.56,0.26,0.29,0.9,-0.61,1.11,-1.45,29.97,32.55,-32.72,0.51,0.47,0.64,-0.56,0.4,-1.85
1900-01-01 20:19:54.973,14.96,14.33,-15.62,0.25,0.26,0.95,-1.03,0.83,-1.63,29.37,33.05,-33.01,0.55,0.49,0.68,-1.02,1.4,-0.05
1900-01-01 20:19:55.048,15.61,14.27,-15.71,0.26,0.28,0.97,2.01,-1.02,-2.34,29.79,31.9,-33.03,0.53,0.5,0.69,2.21,0.64,-2.13
1900-01-01 20:19:55.139,16.38,15.49,-15.91,0.27,0.28,0.92,-0.84,-0.34,-2.08,27.24,30.4,-33.36,0.49,0.45,0.71,0.52,-9.33,-4.73
1900-01-01 20:19:55.233,16.05,14.08,-16.07,0.26,0.29,0.98,8.53,-3.46,-3.83,32.02,35.29,-34.1,0.58,0.53,0.62,10.08,-6.53,-13.58
1900-01-01 20:19:55.280,20.64,16.23,-16.51,0.3,0.37,0.95,0.55,-5.55,1.37,37.66,32.81,-36.2,0.54,0.61,0.58,-7.75,2.6,7.85
1900-01-01 20:19:55.372,17.75,15.92,-16.14,0.27,0.3,0.9,8.07,-0.01,-0.26,31.43,35.24,-35.01,0.55,0.49,0.59,7.16,0.6,-5.45
1900-01-01 20:19:55.466,19.15,15.59,-16.02,0.26,0.32,0.89,5.44,-1.47,-1.66,34.44,35.78,-35.85,0.53,0.51,0.52,8.76,5.85,-7.79
1900-01-01 20:19:55.513,22.39,16.0,-16.11,0.28,0.38,0.89,-1.96,1.05,-0.36,38.98,30.8,-37.06,0.51,0.62,0.58,0.2,0.81,3.21
1900-01-01 20:19:55.606,21.11,16.96,-16.01,0.3,0.37,0.91,-7.62,0.94,1.28,37.54,33.24,-36.57,0.54,0.6,0.56,-9.92,7.33,10.24
1900-01-01 20:19:55.653,18.96,16.44,-15.66,0.29,0.34,0.93,-7.91,1.69,3.06,33.4,33.12,-35.01,0.55,0.55,0.63,-12.57,8.82,9.54
1900-01-01 20:19:55.733,16.06,14.47,-15.03,0.26,0.28,0.95,-6.98,2.86,2.52,30.58,32.79,-33.56,0.55,0.52,0.68,-11.08,0.76,8.84
1900-01-01 20:19:55.839,15.11,15.39,-14.48,0.27,0.26,0.94,-7.85,1.58,2.22,27.29,36.2,-32.21,0.58,0.45,0.65,-8.21,-1.53,8.19
1900-01-01 20:19:55.887,15.13,15.28,-13.98,0.27,0.27,0.95,-0.4,0.0,1.18,28.06,35.03,-30.97,0.57,0.47,0.66,0.27,2.24,2.87
1900-01-01 20:19:55.981,15.83,16.17,-13.65,0.28,0.27,0.92,-3.99,1.0,1.65,28.89,35.08,-30.54,0.55,0.47,0.64,-5.6,1.5,3.95
1900-01-01 20:19:56.073,13.68,14.81,-13.24,0.26,0.24,0.95,-5.09,1.42,1.66,24.88,36.71,-29.94,0.59,0.41,0.67,-3.39,2.37,3.63
1900-01-01 20:19:56.120,13.88,15.82,-12.82,0.28,0.24,0.94,-1.0,0.24,1.24,27.06,36.2,-29.4,0.58,0.44,0.65,-1.3,2.31,1.8
1900-01-01 20:19:56.213,12.93,16.06,-12.47,0.28,0.23,0.95,-3.76,1.98,1.73,25.51,37.09,-29.13,0.6,0.43,0.66,-3.0,1.44,4.65
1900-01-01 20:19:56.307,12.34,12.91,-12.05,0.24,0.23,1.01,-1.86,0.14,2.47,23.63,36.18,-28.43,0.62,0.42,0.73,-3.92,7.2,3.53
1900-01-01 20:19:56.353,13.16,16.15,-11.52,0.27,0.22,0.89,3.88,-1.95,0.57,27.02,35.23,-27.9,0.53,0.41,0.62,1.43,2.24,-1.89
1900-01-01 20:19:56.447,12.39,15.19,-11.27,0.26,0.21,0.92,-3.63,1.91,0.4,24.22,36.81,-28.19,0.58,0.39,0.66,-0.81,1.03,2.24
1900-01-01 20:19:56.542,12.39,14.4,-11.05,0.25,0.22,0.96,0.09,-0.2,-1.06,23.9,35.69,-27.86,0.58,0.4,0.69,1.84,2.08,0.23
1900-01-01 20:19:56.588,13.85,14.08,-11.05,0.26,0.25,0.99,2.7,-2.89,-4.06,28.43,35.26,-27.83,0.59,0.49,0.68,4.5,-6.37,-2.05
1900-01-01 20:19:56.681,16.46,17.16,-11.52,0.3,0.28,0.92,3.16,-2.59,-1.42,31.43,34.96,-28.16,0.55,0.5,0.61,-0.31,-0.5,-2.61
1900-01-01 20:19:56.727,12.81,16.08,-11.58,0.28,0.23,0.95,-1.27,1.11,0.15,25.71,37.28,-28.57,0.6,0.43,0.66,-0.95,5.23,0.72
1900-01-01 20:19:56.823,12.67,14.58,-11.4,0.26,0.22,0.96,-2.52,-0.62,-1.79,25.7,37.48,-28.46,0.6,0.42,0.65,-1.38,-1.65,-0.21
1900-01-01 20:19:56.915,13.9,16.21,-11.52,0.28,0.24,0.94,-2.39,0.61,-1.3,28.15,36.51,-28.51,0.57,0.46,0.63,-2.13,0.39,-1.61
1900-01-01 20:19:56.961,11.22,15.32,-11.56,0.27,0.2,0.95,-3.63,1.05,-2.31,25.64,38.21,-28.76,0.6,0.42,0.64,-3.19,2.41,-7.28
1900-01-01 20:19:57.056,13.93,14.21,-11.75,0.26,0.25,0.98,0.62,-0.1,-3.05,31.29,33.59,-29.89,0.58,0.54,0.68,-3.9,1.06,-1.34
1900-01-01 20:19:57.108,13.63,15.05,-12.06,0.27,0.25,0.97,-0.4,-3.07,-0.27,25.9,36.05,-30.1,0.59,0.43,0.68,-7.18,4.34,-1.1
1900-01-01 20:19:57.207,12.77,15.53,-11.95,0.26,0.22,0.91,2.75,0.05,-2.89,28.05,35.41,-30.28,0.53,0.43,0.61,1.97,2.05,-4.44
1900-01-01 20:19:57.287,13.58,14.92,-12.23,0.26,0.23,0.93,-3.15,3.18,-3.11,27.6,34.67,-30.97,0.55,0.45,0.66,-1.44,3.46,0.37
1900-01-01 20:19:57.342,14.25,15.67,-12.55,0.27,0.25,0.95,-0.32,0.53,-3.2,29.02,34.27,-30.92,0.56,0.48,0.66,-0.47,0.76,-1.6
1900-01-01 20:19:57.452,13.56,15.7,-12.88,0.27,0.24,0.95,0.08,-0.82,-2.75,29.04,34.6,-31.18,0.57,0.48,0.66,0.34,-0.44,-2.68
1900-01-01 20:19:57.523,14.33,14.86,-13.14,0.27,0.26,0.97,0.08,-0.63,-0.82,29.62,34.93,-31.6,0.58,0.5,0.66,-7.21,0.73,1.01
1900-01-01 20:19:57.639,14.54,13.87,-13.11,0.25,0.26,0.98,-1.73,-2.69,0.11,24.79,34.43,-31.45,0.56,0.41,0.7,-5.68,3.2,0.14
1900-01-01 20:19:57.675,13.29,15.44,-12.93,0.26,0.22,0.91,1.33,-0.11,-2.07,28.65,33.94,-31.44,0.52,0.45,0.63,3.79,0.73,-4.35
1900-01-01 20:19:57.767,13.0,14.88,-13.09,0.26,0.22,0.94,-1.78,1.12,-1.38,28.05,33.72,-32.11,0.54,0.46,0.67,-0.87,3.34,0.21
1900-01-01 20:19:57.804,13.36,15.16,-13.15,0.27,0.24,0.96,-0.47,-0.11,-1.63,28.11,34.53,-32.09,0.56,0.47,0.67,-0.98,2.6,-0.16
1900-01-01 20:19:57.898,13.34,14.25,-13.24,0.26,0.24,0.98,-1.79,-0.68,-0.78,26.7,33.76,-32.12,0.56,0.46,0.71,-3.95,1.92,2.07
1900-01-01 20:19:58.003,14.76,14.87,-13.2,0.26,0.26,0.96,-0.1,-0.79,-1.12,30.69,32.96,-31.81,0.54,0.5,0.66,-3.6,2.06,0.79
1900-01-01 20:19:58.036,13.59,15.41,-13.21,0.27,0.23,0.93,-1.93,-1.66,-1.85,25.59,33.92,-31.7,0.53,0.41,0.68,-0.19,0.34,-2.84
1900-01-01 20:19:58.129,14.45,15.8,-13.34,0.27,0.25,0.92,0.05,0.4,-1.46,29.89,33.94,-32.14,0.53,0.47,0.63,0.02,2.64,-1.6
1900-01-01 20:19:58.223,12.78,14.62,-13.4,0.26,0.23,0.97,-1.34,-0.09,-1.12,27.79,32.41,-32.4,0.55,0.48,0.72,1.42,4.12,1.09
1900-01-01 20:19:58.268,13.68,15.87,-13.42,0.28,0.24,0.95,0.34,-3.02,-1.67,29.32,33.07,-32.24,0.52,0.47,0.65,0.06,0.72,-4.18
1900-01-01 20:19:58.360,14.19,15.7,-13.52,0.28,0.25,0.95,-1.15,-0.1,-0.51,29.28,33.25,-32.89,0.54,0.48,0.66,-7.41,3.15,-3.05
1900-01-01 20:19:58.453,12.58,15.54,-13.44,0.26,0.22,0.93,-1.1,0.51,-0.53,28.47,29.5,-33.36,0.49,0.47,0.72,-3.98,6.26,1.28
1900-01-01 20:19:58.500,11.07,12.76,-13.36,0.23,0.2,0.98,-4.93,0.15,-1.63,27.41,32.46,-33.18,0.54,0.46,0.71,-3.38,-7.83,5.38
1900-01-01 20:19:58.593,12.94,15.75,-13.45,0.28,0.23,0.95,2.23,-1.24,0.12,28.96,33.13,-32.36,0.53,0.47,0.66,1.17,3.21,-0.72
1900-01-01 20:19:58.725,12.27,15.12,-13.27,0.26,0.21,0.95,-1.39,0.8,-0.08,27.19,33.09,-32.48,0.53,0.44,0.68,-3.5,1.03,0.21
1900-01-01 20:19:58.725,12.73,15.07,-13.13,0.27,0.23,0.97,-3.32,-0.23,0.13,24.14,34.39,-32.45,0.57,0.41,0.73,-9.08,-1.6,-1.88
1900-01-01 20:19:58.917,13.52,16.06,-12.95,0.28,0.23,0.94,4.89,-3.59,-3.02,28.06,31.55,-32.75,0.5,0.45,0.68,1.36,1.95,-4.28
1900-01-01 20:19:58.917,13.5,15.53,-13.25,0.26,0.23,0.92,-0.08,1.33,-2.56,25.94,34.3,-33.41,0.51,0.4,0.63,2.66,7.64,-2.21
1900-01-01 20:19:58.957,13.61,15.48,-13.49,0.26,0.23,0.93,-0.07,4.08,-2.98,29.47,29.51,-33.76,0.5,0.5,0.72,0.34,7.28,-0.21
1900-01-01 20:19:59.027,13.76,15.54,-13.78,0.28,0.25,0.96,-1.26,-0.05,-1.88,27.47,31.88,-33.8,0.53,0.46,0.71,-0.31,1.45,-1.31
1900-01-01 20:19:59.134,13.84,15.46,-13.91,0.27,0.25,0.96,-0.51,-0.34,-0.68,27.98,31.47,-34.01,0.52,0.47,0.71,0.19,-0.2,-1.11
1900-01-01 20:19:59.201,13.08,14.93,-13.86,0.26,0.23,0.94,-0.71,0.76,-1.48,28.15,32.16,-34.19,0.5,0.45,0.67,-3.83,1.56,-3.34
1900-01-01 20:19:59.317,14.44,14.21,-13.93,0.25,0.25,0.94,-0.08,1.11,-1.99,29.72,28.26,-34.71,0.46,0.48,0.71,-1.63,1.71,-4.37
1900-01-01 20:19:59.347,14.51,13.61,-14.08,0.25,0.26,0.98,0.92,-0.56,-0.44,27.53,30.62,-35.39,0.51,0.47,0.73,0.63,-0.47,-2.32
1900-01-01 20:19:59.436,14.23,13.47,-13.99,0.24,0.26,0.98,1.59,-1.55,-0.12,28.59,29.99,-35.76,0.5,0.48,0.72,1.66,-0.77,-0.49
1900-01-01 20:19:59.534,13.93,14.34,-13.85,0.25,0.24,0.95,-0.89,-0.7,0.16,28.2,30.7,-35.84,0.5,0.46,0.7,-3.21,-1.11,-2.72
1900-01-01 20:19:59.575,14.1,14.16,-13.66,0.25,0.25,0.95,-1.52,-0.16,-1.31,30.06,30.33,-36.27,0.49,0.49,0.68,-2.01,-0.11,-0.27
1900-01-01 20:19:59.669,14.62,14.68,-13.71,0.26,0.26,0.95,-0.48,-0.43,-0.87,30.3,30.5,-36.32,0.5,0.5,0.69,-3.29,1.18,0.83
1900-01-01 20:19:59.716,14.39,14.65,-13.68,0.26,0.26,0.96,0.4,-2.43,-0.12,27.11,31.15,-36.2,0.52,0.46,0.72,-0.07,3.7,2.58
1900-01-01 20:19:59.821,15.38,16.18,-13.54,0.27,0.26,0.91,4.31,-2.6,-1.87,31.06,29.91,-35.81,0.47,0.48,0.65,5.77,1.28,-3.68
1900-01-01 20:19:59.939,15.97,16.49,-13.67,0.28,0.27,0.89,-1.13,1.91,-0.55,32.4,30.16,-36.38,0.47,0.5,0.64,0.01,-1.76,0.87
1900-01-01 20:19:59.967,14.23,14.43,-13.6,0.26,0.26,0.97,-1.76,2.23,1.22,28.85,32.29,-36.26,0.55,0.49,0.71,1.76,-0.4,8.32
1900-01-01 20:20:00.043,14.69,14.83,-13.25,0.27,0.26,0.97,2.28,-0.35,0.49,29.6,31.79,-34.99,0.53,0.5,0.69,3.75,1.21,2.61
1900-01-01 20:20:00.162,14.4,14.01,-13.02,0.25,0.26,0.97,-1.77,0.86,1.89,29.62,32.87,-34.6,0.54,0.49,0.68,-3.18,3.98,7.97
1900-01-01 20:20:00.188,14.47,14.84,-12.57,0.25,0.25,0.92,-1.79,-0.19,-0.06,25.57,32.66,-33.39,0.51,0.41,0.68,-2.24,0.72,-0.34
1900-01-01 20:20:00.279,14.58,14.52,-12.42,0.24,0.24,0.91,-2.92,1.65,-1.65,28.07,33.11,-33.45,0.51,0.44,0.65,-2.95,-0.33,-0.52
1900-01-01 20:20:00.403,14.4,14.2,-12.52,0.25,0.25,0.96,-0.37,0.83,-3.4,28.36,33.1,-33.54,0.55,0.48,0.69,0.04,-0.02,-1.45
1900-01-01 20:20:00.434,15.07,13.6,-12.88,0.25,0.27,0.98,-0.6,-1.07,-2.9,29.8,32.17,-33.77,0.54,0.51,0.7,2.66,-0.02,-1.76
1900-01-01 20:20:00.512,15.33,13.9,-13.17,0.25,0.27,0.96,-0.8,-1.57,-1.25,29.5,32.15,-34.05,0.52,0.49,0.68,-4.45,0.28,-2.38
1900-01-01 20:20:00.567,14.41,14.05,-13.2,0.24,0.25,0.94,-1.38,-1.83,-1.52,28.96,32.74,-34.43,0.52,0.46,0.66,-4.07,0.37,-3.12
1900-01-01 20:20:00.651,14.14,14.64,-13.28,0.26,0.25,0.95,-1.15,-0.96,-2.0,29.5,32.38,-34.92,0.52,0.48,0.67,-3.24,0.63,-1.49
1900-01-01 20:20:00.744,14.36,15.31,-13.43,0.27,0.25,0.94,-0.11,-0.87,-2.11,30.23,32.97,-35.15,0.53,0.49,0.66,-1.31,0.59,-1.45
1900-01-01 20:20:00.790,14.98,15.26,-13.6,0.27,0.26,0.94,-0.3,-0.35,-1.63,30.56,31.85,-35.39,0.52,0.5,0.67,-0.58,0.71,-0.93
1900-01-01 20:20:00.884,14.68,14.52,-13.69,0.25,0.26,0.95,0.52,-1.2,-0.8,29.93,31.97,-35.54,0.52,0.49,0.67,-0.21,0.56,-1.45
1900-01-01 20:20:00.976,14.59,14.22,-13.65,0.25,0.26,0.95,-0.2,-0.1,-0.99,30.56,30.49,-35.77,0.51,0.51,0.7,-2.66,0.02,0.94
1900-01-01 20:20:01.024,15.15,15.16,-13.65,0.27,0.27,0.96,-1.16,-0.34,0.34,30.23,33.02,-35.63,0.54,0.5,0.67,-2.87,1.2,1.95
1900-01-01 20:20:01.151,15.49,15.55,-13.44,0.26,0.26,0.91,3.49,-0.05,-1.39,31.32,31.78,-35.34,0.5,0.49,0.64,3.31,-1.6,-4.02
1900-01-01 20:20:01.182,15.37,14.37,-13.49,0.25,0.27,0.94,-1.44,1.0,0.61,31.18,32.69,-35.97,0.53,0.51,0.65,-0.4,1.47,3.54
1900-01-01 20:20:01.258,15.59,14.75,-13.24,0.26,0.28,0.95,3.23,0.08,0.6,30.83,31.61,-35.43,0.53,0.52,0.68,4.67,3.36,2.32
1900-01-01 20:20:01.350,16.94,15.16,-12.99,0.26,0.29,0.93,0.53,0.53,2.19,31.26,32.6,-35.09,0.52,0.5,0.64,0.9,2.56,4.05
1900-01-01 20:20:01.445,14.08,14.18,-12.5,0.26,0.25,0.98,-2.18,2.16,2.72,27.95,35.09,-34.48,0.59,0.48,0.68,-3.24,4.48,6.4
1900-01-01 20:20:01.491,14.55,14.05,-11.92,0.25,0.26,0.95,-0.92,-0.27,-0.14,27.52,33.58,-33.51,0.53,0.45,0.67,-2.0,2.47,1.04
1900-01-01 20:20:01.585,15.11,13.83,-11.79,0.23,0.26,0.92,-1.79,1.51,-1.26,29.53,33.57,-33.36,0.52,0.47,0.63,-4.7,-1.13,-0.51
1900-01-01 20:20:01.638,13.84,13.83,-11.82,0.24,0.24,0.95,-4.6,1.77,-3.02,27.82,33.96,-33.45,0.55,0.46,0.67,-2.55,-1.18,-1.33
1900-01-01 20:20:01.770,13.77,13.8,-12.13,0.25,0.25,0.97,-0.15,-0.14,-4.3,28.78,34.25,-33.66,0.56,0.48,0.67,1.89,-0.72,-7.35
1900-01-01 20:20:01.799,14.59,13.73,-12.63,0.24,0.26,0.96,-0.7,-0.09,-2.1,30.73,32.56,-34.8,0.53,0.51,0.67,-1.41,0.42,-2.47
1900-01-01 20:20:01.866,14.31,13.24,-12.8,0.23,0.25,0.95,-0.98,-0.52,-2.0,29.41,32.99,-35.19,0.53,0.48,0.67,-2.89,-0.52,-4.34
1900-01-01 20:20:01.959,14.97,14.07,-12.95,0.25,0.26,0.95,-0.5,-1.28,-1.42,31.67,32.14,-35.86,0.52,0.52,0.65,-2.25,0.59,-2.99
1900-01-01 20:20:02.024,15.45,13.87,-13.01,0.24,0.27,0.93,0.33,-1.53,-1.22,30.59,31.87,-36.33,0.51,0.5,0.66,-0.79,0.25,-1.52
1900-01-01 20:20:02.113,14.86,13.96,-13.03,0.24,0.26,0.94,0.47,-1.81,-1.37,31.21,32.42,-36.58,0.52,0.5,0.65,-0.41,1.53,-0.64
1900-01-01 20:20:02.193,15.0,14.4,-13.09,0.25,0.26,0.95,-0.84,-0.85,-0.95,31.31,32.94,-36.68,0.54,0.51,0.65,-2.01,0.98,-0.04
1900-01-01 20:20:02.286,15.17,14.63,-13.07,0.26,0.27,0.94,-0.04,-0.71,-0.42,30.77,32.34,-36.7,0.52,0.5,0.66,-1.41,1.62,0.53
1900-01-01 20:20:02.332,15.18,14.51,-12.98,0.26,0.27,0.96,-0.92,0.0,0.34,30.64,32.48,-36.62,0.53,0.5,0.67,-3.2,1.73,1.08
1900-01-01 20:20:02.426,15.87,14.46,-12.77,0.25,0.27,0.93,0.77,-0.14,-0.63,29.87,32.52,-36.47,0.51,0.47,0.64,-1.39,0.83,-2.6
1900-01-01 20:20:02.518,15.56,13.43,-12.71,0.23,0.27,0.93,-1.17,1.32,-1.26,30.82,31.75,-36.88,0.51,0.5,0.66,-0.01,-0.08,0.55
1900-01-01 20:20:02.567,15.45,14.37,-12.74,0.25,0.27,0.96,0.85,0.57,-0.92,31.86,32.42,-36.8,0.54,0.53,0.66,1.92,0.78,1.77
1900-01-01 20:20:02.660,16.27,14.19,-12.72,0.25,0.29,0.95,1.27,0.19,0.28,32.41,31.76,-36.54,0.52,0.53,0.65,1.09,0.92,0.98
1900-01-01 20:20:02.706,15.35,13.79,-12.52,0.24,0.27,0.95,-0.92,1.49,1.27,30.84,34.01,-36.4,0.55,0.51,0.64,-1.79,1.47,2.28
1900-01-01 20:20:02.839,14.53,13.64,-12.17,0.24,0.26,0.96,-0.15,1.69,1.89,30.26,33.9,-36.06,0.56,0.51,0.67,-1.8,6.21,6.85
1900-01-01 20:20:02.865,15.31,13.37,-11.72,0.23,0.27,0.95,-0.74,0.2,0.74,28.51,32.99,-35.02,0.53,0.46,0.67,-0.21,5.41,3.76
1900-01-01 20:20:02.939,15.6,13.94,-11.45,0.24,0.27,0.92,-2.79,0.37,-1.11,27.65,33.27,-34.45,0.52,0.44,0.66,-3.39,1.34,-0.6
1900-01-01 20:20:03.033,14.78,13.07,-11.46,0.23,0.25,0.94,-2.78,1.31,-2.5,28.95,33.37,-34.55,0.53,0.47,0.66,-1.78,0.6,-0.55
1900-01-01 20:20:03.131,14.56,13.24,-11.69,0.23,0.26,0.96,-1.16,-0.34,-2.58,29.29,33.53,-34.65,0.55,0.49,0.67,0.33,0.47,-0.76
1900-01-01 20:20:03.173,14.61,13.13,-11.93,0.23,0.26,0.97,-0.91,-0.92,-2.34,29.2,33.21,-34.77,0.54,0.48,0.67,-1.0,0.95,-0.78
1900-01-01 20:20:03.267,14.71,12.99,-12.13,0.23,0.26,0.95,-1.27,-0.29,-2.79,30.17,32.67,-34.9,0.53,0.49,0.66,-2.47,0.83,-0.71
1900-01-01 20:20:03.382,15.31,13.39,-12.4,0.23,0.27,0.94,-1.36,0.0,-2.26,30.21,32.73,-35.02,0.53,0.49,0.66,-2.95,1.42,-0.63
1900-01-01 20:20:03.408,13.73,13.48,-12.59,0.23,0.24,0.94,-0.42,-0.51,-2.88,29.6,33.13,-35.12,0.53,0.48,0.66,-0.95,1.4,-2.37
1900-01-01 20:20:03.500,15.09,13.06,-12.87,0.23,0.27,0.96,0.15,-0.56,-2.3,30.65,32.3,-35.49,0.53,0.51,0.67,-1.55,1.41,-0.65
1900-01-01 20:20:03.554,15.33,12.79,-13.07,0.23,0.27,0.95,-0.18,-1.03,-1.56,30.12,32.45,-35.6,0.53,0.49,0.67,-1.91,0.87,-0.87
1900-01-01 20:20:03.665,15.02,13.34,-13.15,0.23,0.26,0.94,-0.48,-0.87,-1.4,29.91,32.68,-35.74,0.52,0.48,0.66,-2.28,0.33,-1.07
1900-01-01 20:20:03.734,15.25,13.32,-13.2,0.23,0.26,0.94,-0.63,-0.52,-1.71,30.16,32.35,-35.92,0.52,0.49,0.66,-1.65,0.0,-1.34
1900-01-01 20:20:03.782,14.75,12.91,-13.31,0.23,0.26,0.95,-0.33,-0.87,-1.37,29.98,33.25,-36.13,0.54,0.49,0.66,-1.1,0.27,-1.06
1900-01-01 20:20:03.903,14.97,12.84,-13.36,0.23,0.26,0.96,1.02,-1.32,-1.38,30.17,32.77,-36.3,0.53,0.5,0.66,-0.64,0.85,0.53
1900-01-01 20:20:03.966,14.98,13.4,-13.41,0.24,0.27,0.96,-0.63,-0.15,-0.21,30.0,33.26,-36.23,0.55,0.5,0.67,-0.79,0.95,3.3
1900-01-01 20:20:04.037,16.2,13.65,-13.29,0.24,0.28,0.93,0.57,-1.86,-0.95,30.18,33.2,-35.73,0.52,0.48,0.63,0.79,1.35,-0.66
1900-01-01 20:20:04.138,16.15,13.87,-13.27,0.24,0.28,0.93,-0.29,0.25,-1.24,30.28,33.35,-35.84,0.52,0.48,0.63,-0.32,0.76,-0.21
1900-01-01 20:20:04.183,16.51,12.95,-13.31,0.23,0.29,0.94,1.31,1.25,-0.05,31.37,32.13,-35.88,0.52,0.51,0.66,5.94,2.4,6.08
1900-01-01 20:20:04.245,13.9,12.42,-13.16,0.22,0.25,0.98,-1.33,1.19,-0.77,27.93,34.74,-34.96,0.58,0.47,0.68,1.85,2.56,6.03
1900-01-01 20:20:04.340,17.02,14.12,-13.11,0.25,0.3,0.94,-1.4,0.4,-1.43,32.09,33.49,-34.05,0.55,0.53,0.64,-1.65,1.32,0.89
1900-01-01 20:20:04.474,15.83,13.64,-13.18,0.24,0.28,0.94,-2.14,0.23,0.09,30.7,34.27,-33.92,0.56,0.51,0.64,-2.73,0.32,0.04
1900-01-01 20:20:04.474,15.19,13.14,-13.0,0.23,0.26,0.95,1.09,-0.5,0.82,30.15,34.45,-33.92,0.55,0.49,0.63,-1.07,4.37,0.78
1900-01-01 20:20:04.574,17.03,12.4,-12.72,0.22,0.3,0.95,-1.26,1.61,0.98,29.44,33.26,-33.81,0.54,0.48,0.67,-2.78,3.35,3.56
1900-01-01 20:20:04.678,14.31,12.6,-12.41,0.22,0.25,0.96,-3.1,0.5,0.35,28.2,34.5,-33.28,0.55,0.46,0.66,-4.21,3.79,-0.6
1900-01-01 20:20:04.713,14.97,12.92,-12.2,0.22,0.25,0.92,1.49,-2.23,-2.87,28.5,33.98,-33.38,0.53,0.45,0.64,0.94,0.05,-3.14
1900-01-01 20:20:04.807,15.83,12.69,-12.48,0.22,0.27,0.94,-1.55,0.8,-3.11,30.05,33.75,-33.87,0.54,0.49,0.65,-1.51,0.64,0.25
1900-01-01 20:20:04.853,14.88,12.86,-12.8,0.23,0.27,0.98,-2.38,-1.21,-2.68,29.0,34.19,-33.84,0.57,0.49,0.67,0.96,2.5,-1.65
1900-01-01 20:20:04.948,15.05,13.92,-13.05,0.25,0.27,0.96,-2.36,-1.03,-1.41,31.09,33.38,-34.1,0.54,0.51,0.65,0.15,1.8,-1.7
1900-01-01 20:20:05.043,14.37,12.88,-13.11,0.23,0.25,0.95,-2.09,-0.34,-0.98,29.07,33.46,-34.37,0.54,0.47,0.66,-3.75,1.63,-2.39
1900-01-01 20:20:05.090,14.52,12.91,-13.1,0.23,0.25,0.95,-1.5,-0.6,-1.32,29.66,33.3,-34.74,0.54,0.49,0.66,-2.98,0.77,-1.52
1900-01-01 20:20:05.181,15.34,12.84,-13.14,0.22,0.27,0.95,-0.23,-0.9,-1.82,30.26,31.82,-34.99,0.52,0.5,0.67,-1.87,0.2,-1.64
1900-01-01 20:20:05.301,14.33,13.07,-13.27,0.23,0.25,0.95,-0.55,-1.18,-1.54,29.77,32.94,-35.25,0.53,0.48,0.66,-2.37,1.41,-1.18
1900-01-01 20:20:05.327,14.72,13.08,-13.35,0.23,0.26,0.95,-0.66,-0.82,-1.62,29.87,33.11,-35.44,0.54,0.49,0.66,-2.05,0.84,-0.58
1900-01-01 20:20:05.416,14.61,12.97,-13.44,0.23,0.25,0.94,-0.6,-0.71,-1.48,29.4,32.91,-35.54,0.53,0.48,0.66,-1.58,0.05,-0.34
1900-01-01 20:20:05.473,14.66,14.13,-13.51,0.25,0.26,0.95,0.18,-1.31,-1.59,30.74,32.87,-35.6,0.54,0.51,0.66,-0.52,1.22,-0.96
1900-01-01 20:20:05.568,15.99,14.45,-13.59,0.26,0.28,0.95,0.57,-0.98,-0.45,31.3,32.61,-35.75,0.53,0.52,0.66,-0.18,0.18,0.42
1900-01-01 20:20:05.648,14.21,12.54,-13.5,0.22,0.25,0.95,0.15,-0.86,-0.13,28.91,33.61,-35.7,0.54,0.47,0.66,0.0,0.79,0.06
1900-01-01 20:20:05.694,15.54,13.35,-13.36,0.23,0.27,0.94,-1.9,-0.04,-0.47,30.28,33.04,-35.69,0.53,0.49,0.65,-1.53,0.6,1.43
1900-01-01 20:20:05.799,15.51,13.42,-13.28,0.24,0.27,0.96,-1.18,-1.2,-0.79,31.36,32.83,-35.48,0.54,0.52,0.66,-4.67,1.58,1.44
1900-01-01 20:20:05.882,14.9,14.7,-13.24,0.25,0.25,0.92,2.05,-0.89,-0.82,30.2,32.85,-35.27,0.51,0.47,0.63,0.95,0.9,-1.42
1900-01-01 20:20:05.930,14.96,13.31,-13.21,0.23,0.26,0.94,-1.27,1.22,-0.98,29.62,33.28,-35.5,0.53,0.48,0.65,0.55,1.83,3.03
1900-01-01 20:20:06.023,15.11,14.01,-13.2,0.25,0.27,0.97,-0.26,0.0,-0.34,30.07,33.85,-35.04,0.56,0.5,0.67,3.65,1.92,3.15
1900-01-01 20:20:06.115,15.62,14.48,-13.09,0.26,0.28,0.96,0.05,-0.06,0.66,30.63,34.14,-34.57,0.56,0.51,0.65,2.66,0.89,3.28
1900-01-01 20:20:06.162,14.55,13.48,-12.83,0.24,0.26,0.96,-0.1,-0.55,0.07,28.6,35.21,-34.08,0.57,0.47,0.65,2.8,0.88,4.86
1900-01-01 20:20:06.256,15.56,13.7,-12.66,0.24,0.27,0.94,0.24,-1.05,-1.04,31.04,34.56,-33.34,0.55,0.5,0.62,2.1,0.89,4.07
1900-01-01 20:20:06.353,16.18,13.48,-12.66,0.24,0.29,0.96,-3.42,0.08,0.31,30.11,35.56,-32.73,0.58,0.5,0.64,-3.24,2.41,4.61
1900-01-01 20:20:06.397,15.32,13.79,-12.46,0.24,0.27,0.95,-0.63,-1.72,0.54,29.13,34.07,-32.03,0.55,0.48,0.66,-3.76,4.99,0.87
1900-01-01 20:20:06.491,14.93,14.89,-12.22,0.25,0.25,0.91,0.34,-1.61,-2.03,29.55,35.14,-31.91,0.54,0.46,0.61,-0.53,0.06,-1.28
1900-01-01 20:20:06.537,15.37,14.14,-12.37,0.24,0.27,0.93,-1.05,0.79,-2.37,29.59,35.26,-32.11,0.56,0.48,0.63,-0.34,-0.21,-0.07
1900-01-01 20:20:06.633,15.05,14.26,-12.58,0.25,0.26,0.95,-0.54,-0.08,-2.05,29.73,35.59,-32.13,0.57,0.49,0.64,-0.06,1.63,-1.37
1900-01-01 20:20:06.723,13.74,12.92,-12.73,0.24,0.25,0.99,-1.63,-0.01,-1.63,30.11,35.11,-32.35,0.59,0.51,0.66,-0.15,1.98,-0.29
1900-01-01 20:20:06.770,14.73,14.41,-12.82,0.26,0.26,0.96,-4.15,0.76,-0.94,29.99,34.63,-32.41,0.56,0.49,0.64,-5.67,3.56,1.1
1900-01-01 20:20:06.864,15.08,13.62,-12.81,0.24,0.26,0.95,-0.44,1.65,-1.01,29.53,35.08,-32.25,0.57,0.49,0.64,-2.46,-1.27,0.83
1900-01-01 20:20:06.957,14.8,14.0,-12.81,0.24,0.25,0.92,-0.97,0.48,-1.27,29.05,34.43,-32.13,0.55,0.48,0.65,1.27,-7.15,-1.31
1900-01-01 20:20:07.003,13.97,13.02,-12.84,0.22,0.24,0.94,-0.31,-1.21,-1.34,28.95,36.45,-32.34,0.57,0.47,0.62,-2.47,-5.78,-1.34
1900-01-01 20:20:07.097,14.72,12.92,-12.89,0.23,0.27,0.98,-2.64,-1.56,-1.05,29.81,37.06,-32.55,0.61,0.51,0.63,-3.24,-0.85,1.58
1900-01-01 20:20:07.191,14.95,14.19,-12.9,0.25,0.26,0.95,0.35,-1.66,0.24,29.33,35.79,-32.32,0.58,0.48,0.64,-2.51,3.08,0.26
1900-01-01 20:20:07.239,14.11,13.93,-12.7,0.24,0.24,0.93,0.05,-0.73,0.02,28.1,37.15,-32.28,0.57,0.45,0.61,-1.48,-0.59,-2.56
1900-01-01 20:20:07.331,13.5,13.53,-12.54,0.23,0.23,0.95,-0.75,1.57,-1.1,27.75,37.27,-32.69,0.59,0.45,0.63,-1.24,5.25,0.19
1900-01-01 20:20:07.446,14.79,13.9,-12.55,0.25,0.26,0.96,-1.44,1.19,-1.81,29.46,36.37,-32.66,0.59,0.49,0.64,0.13,2.2,0.92
1900-01-01 20:20:07.473,15.06,14.87,-12.67,0.26,0.27,0.96,-1.66,1.06,-1.44,30.68,36.51,-32.53,0.59,0.51,0.62,-1.08,0.22,-0.64
1900-01-01 20:20:07.565,14.16,13.8,-12.73,0.24,0.25,0.95,-1.07,1.29,-1.32,28.92,37.73,-32.64,0.6,0.47,0.61,-0.05,-3.33,-1.49
1900-01-01 20:20:07.659,13.48,12.5,-12.77,0.22,0.24,0.96,-1.25,1.22,-2.2,27.61,37.06,-32.88,0.59,0.45,0.64,-4.34,-3.11,0.57
1900-01-01 20:20:07.706,14.3,11.33,-12.95,0.2,0.25,0.98,-2.74,0.82,-2.79,28.54,37.25,-32.8,0.62,0.49,0.65,-2.38,-3.5,3.03
1900-01-01 20:20:07.800,13.71,13.28,-13.22,0.23,0.24,0.94,-1.41,0.78,-1.34,27.56,38.61,-32.34,0.6,0.44,0.6,-2.39,0.8,3.89
1900-01-01 20:20:07.847,14.04,12.2,-13.27,0.21,0.24,0.95,-1.98,2.0,-2.92,26.49,39.75,-31.75,0.63,0.44,0.61,-2.31,-0.53,1.85
1900-01-01 20:20:07.939,14.06,12.35,-13.56,0.22,0.25,0.95,-0.19,0.77,-2.81,27.11,40.28,-31.48,0.64,0.45,0.6,0.25,-0.44,0.23
1900-01-01 20:20:08.032,13.84,12.03,-13.83,0.21,0.24,0.96,-0.34,-1.08,-2.24,27.26,40.01,-31.45,0.64,0.46,0.62,0.13,-0.54,-0.62
1900-01-01 20:20:08.080,13.49,12.35,-14.02,0.22,0.24,0.96,0.82,-2.42,-1.5,27.38,40.13,-31.56,0.64,0.45,0.6,1.96,-1.03,-1.37
1900-01-01 20:20:08.172,14.26,11.62,-14.09,0.21,0.25,0.98,-0.18,-1.92,-0.65,28.04,39.72,-31.77,0.64,0.47,0.61,1.19,-0.67,0.88
1900-01-01 20:20:08.300,14.52,12.38,-14.03,0.22,0.25,0.96,0.78,-2.32,-0.29,28.36,39.95,-31.65,0.64,0.47,0.6,1.55,-1.37,0.03
1900-01-01 20:20:08.300,14.54,13.18,-13.92,0.23,0.25,0.94,0.6,-3.23,-0.04,28.51,41.15,-31.65,0.64,0.46,0.57,1.3,0.76,-0.66
1900-01-01 20:20:08.405,14.81,13.35,-13.76,0.23,0.26,0.95,0.08,-2.86,-0.22,28.44,40.57,-31.76,0.64,0.47,0.58,1.12,-1.09,-0.08
1900-01-01 20:20:08.452,15.02,13.91,-13.64,0.24,0.26,0.94,0.03,-2.51,-0.34,29.68,40.32,-31.78,0.64,0.49,0.57,1.24,-1.38,0.58
1900-01-01 20:20:08.549,15.55,14.01,-13.53,0.25,0.27,0.95,-0.44,-2.38,-0.49,29.27,41.04,-31.7,0.65,0.48,0.57,0.48,-1.2,0.43
1900-01-01 20:20:08.637,14.9,14.34,-13.45,0.25,0.26,0.94,0.08,-2.04,-0.47,29.48,41.56,-31.64,0.66,0.49,0.56,1.41,-1.79,0.94
1900-01-01 20:20:08.730,14.52,15.14,-13.36,0.26,0.25,0.94,-0.08,-2.27,-0.3,28.81,43.22,-31.51,0.68,0.48,0.54,1.82,-2.64,0.71
1900-01-01 20:20:08.777,14.73,15.35,-13.25,0.27,0.26,0.94,-0.39,-2.21,-0.94,29.87,42.93,-31.41,0.67,0.49,0.53,2.04,-2.92,1.39
1900-01-01 20:20:08.869,15.47,15.51,-13.23,0.28,0.28,0.96,-0.98,-2.21,-1.11,30.3,43.85,-31.2,0.7,0.51,0.52,0.0,-5.47,2.64
1900-01-01 20:20:08.915,15.95,15.27,-13.25,0.27,0.28,0.96,-1.4,-2.68,0.05,30.01,44.35,-30.8,0.7,0.5,0.51,-0.95,-1.94,1.84
1900-01-01 20:20:09.010,15.01,16.19,-13.08,0.28,0.26,0.94,-1.26,-2.09,0.17,29.65,45.0,-30.53,0.7,0.49,0.5,-0.28,0.04,0.62
1900-01-01 20:20:09.105,15.6,16.03,-12.9,0.28,0.27,0.93,-0.71,-1.68,-0.02,29.98,44.44,-30.44,0.69,0.49,0.5,0.02,0.32,0.49
1900-01-01 20:20:09.152,14.57,16.17,-12.74,0.28,0.25,0.93,-1.22,-1.13,0.09,29.84,44.76,-30.38,0.7,0.49,0.5,-0.21,-0.96,1.34
1900-01-01 20:20:09.242,14.77,16.39,-12.57,0.29,0.26,0.94,-1.53,-1.27,-0.28,29.53,45.5,-30.18,0.71,0.49,0.49,-1.19,-1.66,1.63
1900-01-01 20:20:09.335,14.14,16.06,-12.45,0.28,0.25,0.94,-1.53,-1.61,-0.38,29.28,45.88,-29.94,0.72,0.49,0.5,-0.19,-1.42,1.52
1900-01-01 20:20:09.382,13.75,17.64,-12.35,0.31,0.24,0.94,-0.74,-2.11,-0.86,29.29,46.86,-29.71,0.72,0.48,0.47,-0.52,0.02,-0.15
1900-01-01 20:20:09.476,14.88,15.89,-12.33,0.28,0.26,0.94,-2.6,-1.24,-0.31,29.91,46.06,-29.74,0.72,0.5,0.48,-1.85,2.05,1.27
1900-01-01 20:20:09.572,15.32,13.12,-12.22,0.26,0.3,1.06,-8.82,-5.74,3.65,26.1,44.59,-29.56,0.77,0.49,0.62,-9.45,18.88,-2.88
1900-01-01 20:20:09.616,15.0,16.76,-11.5,0.3,0.27,0.97,11.82,-9.53,1.41,33.93,41.41,-30.01,0.68,0.58,0.52,0.12,29.32,-18.91
1900-01-01 20:20:09.711,13.88,22.61,-11.12,0.37,0.23,0.85,3.79,-4.85,0.93,33.66,38.33,-32.93,0.55,0.49,0.49,-3.47,23.6,-4.06
1900-01-01 20:20:09.821,14.94,22.0,-10.82,0.36,0.25,0.85,-3.13,4.57,-0.45,33.93,35.21,-33.56,0.55,0.53,0.57,-8.02,6.32,1.18
1900-01-01 20:20:09.850,13.84,20.04,-10.73,0.34,0.24,0.91,-1.79,0.24,-1.23,30.24,36.72,-33.39,0.59,0.5,0.61,-3.27,6.12,-3.64
1900-01-01 20:20:09.943,15.01,20.92,-10.76,0.36,0.26,0.91,2.34,-2.0,-1.1,34.02,34.65,-33.95,0.56,0.55,0.59,-1.58,5.92,-4.54
1900-01-01 20:20:09.989,14.9,19.37,-10.77,0.35,0.27,0.95,-0.25,-2.77,0.63,32.4,32.33,-34.66,0.53,0.53,0.65,-4.7,15.56,-3.43
1900-01-01 20:20:10.084,15.26,21.16,-10.52,0.37,0.27,0.91,0.46,0.15,0.87,33.43,30.9,-35.2,0.49,0.53,0.63,-5.15,11.53,-2.18
1900-01-01 20:20:10.177,14.66,21.41,-10.22,0.36,0.25,0.89,-0.95,2.71,0.99,31.71,28.88,-35.54,0.46,0.5,0.67,-2.82,8.11,-0.96
1900-01-01 20:20:10.224,14.51,20.44,-9.91,0.35,0.25,0.89,1.14,3.55,0.79,31.84,29.49,-35.7,0.47,0.5,0.66,-0.35,5.5,-0.74
1900-01-01 20:20:10.316,14.04,19.33,-9.63,0.33,0.24,0.92,1.6,4.12,0.37,31.19,29.3,-35.82,0.48,0.51,0.69,-0.5,4.71,0.27
1900-01-01 20:20:10.410,14.84,18.16,-9.42,0.33,0.27,0.96,3.49,2.18,-0.34,31.0,28.49,-35.78,0.48,0.52,0.72,3.07,5.05,-2.37
1900-01-01 20:20:10.457,15.8,18.93,-9.31,0.34,0.28,0.94,3.66,0.44,-0.21,32.44,27.2,-36.15,0.45,0.53,0.7,2.59,9.24,-4.25
1900-01-01 20:20:10.552,15.48,18.18,-9.19,0.32,0.27,0.93,2.39,0.79,-0.17,32.2,25.55,-36.81,0.42,0.52,0.71,0.62,9.11,-3.67
1900-01-01 20:20:10.597,17.05,18.32,-9.05,0.31,0.29,0.89,2.11,1.66,-1.63,34.73,23.62,-37.38,0.38,0.54,0.69,-1.2,7.58,-2.35
1900-01-01 20:20:10.693,17.26,18.58,-9.14,0.32,0.3,0.91,1.73,2.12,-1.52,34.24,23.66,-37.75,0.39,0.55,0.7,-0.92,6.45,-1.53
1900-01-01 20:20:10.787,18.43,17.89,-9.22,0.31,0.32,0.91,0.26,1.29,-0.1,35.14,22.46,-37.99,0.37,0.56,0.71,-2.82,3.41,0.36
1900-01-01 20:20:10.833,17.39,17.71,-9.07,0.31,0.3,0.92,-0.59,1.53,0.02,34.05,22.36,-37.94,0.37,0.54,0.71,-2.33,4.31,0.65
1900-01-01 20:20:10.928,17.16,16.77,-8.91,0.29,0.3,0.93,-2.34,1.44,0.45,33.01,22.58,-37.85,0.37,0.53,0.73,-4.43,4.08,1.63
1900-01-01 20:20:11.042,17.51,16.64,-8.69,0.29,0.3,0.92,-4.88,1.38,0.63,34.08,20.87,-37.61,0.35,0.55,0.73,-8.95,1.6,7.43
1900-01-01 20:20:11.072,14.05,16.85,-8.43,0.3,0.25,0.94,-4.39,1.1,-0.17,27.88,25.56,-36.49,0.42,0.45,0.75,-1.0,3.05,4.07
1900-01-01 20:20:11.157,16.97,17.67,-8.3,0.31,0.3,0.92,-1.24,-0.58,-0.31,32.45,22.54,-35.88,0.37,0.52,0.73,-1.34,1.64,1.42
1900-01-01 20:20:11.271,16.46,17.4,-8.19,0.3,0.29,0.92,-0.26,0.78,0.24,31.68,23.44,-35.67,0.38,0.51,0.72,-1.7,3.78,0.72
1900-01-01 20:20:11.300,15.43,16.21,-7.99,0.28,0.27,0.93,-0.56,0.88,0.24,30.67,23.57,-35.57,0.39,0.49,0.73,-1.9,4.88,0.76
1900-01-01 20:20:11.392,14.92,16.55,-7.8,0.29,0.26,0.94,-0.5,0.33,-0.48,29.51,22.14,-35.46,0.37,0.48,0.77,-1.58,5.62,0.19
1900-01-01 20:20:11.440,16.16,16.77,-7.71,0.29,0.28,0.93,0.67,0.24,-1.06,30.89,21.62,-35.44,0.36,0.5,0.75,-0.71,2.81,-0.66
1900-01-01 20:20:11.532,16.67,16.7,-7.72,0.29,0.29,0.92,-0.18,0.72,-0.82,31.42,21.24,-35.55,0.35,0.5,0.75,-1.24,1.95,0.14
1900-01-01 20:20:11.626,16.07,16.24,-7.68,0.28,0.28,0.93,-0.17,0.85,-0.9,30.57,21.68,-35.53,0.36,0.49,0.76,-1.53,0.87,0.47
1900-01-01 20:20:11.674,16.16,16.33,-7.66,0.29,0.28,0.93,0.35,0.43,-0.99,30.94,21.56,-35.47,0.36,0.5,0.75,-1.29,0.89,0.11
1900-01-01 20:20:11.765,16.23,16.48,-7.65,0.29,0.28,0.93,-0.46,0.69,-1.02,30.98,22.49,-35.46,0.37,0.5,0.74,-1.92,1.29,0.02
1900-01-01 20:20:11.866,16.9,16.31,-7.65,0.28,0.29,0.92,-0.39,0.15,-0.73,31.41,21.47,-35.47,0.36,0.51,0.75,-2.08,-0.08,0.79
1900-01-01 20:20:11.904,16.35,16.44,-7.6,0.28,0.28,0.92,-0.5,-0.4,-0.33,31.58,21.35,-35.36,0.35,0.5,0.74,-2.56,-1.35,1.15
1900-01-01 20:20:11.995,16.14,16.1,-7.5,0.28,0.28,0.92,-2.15,-0.21,-0.09,29.92,22.94,-35.19,0.38,0.48,0.75,-2.91,-2.79,2.08
1900-01-01 20:20:12.114,16.7,16.42,-7.35,0.29,0.29,0.92,-0.45,-1.76,-0.5,30.92,22.92,-34.88,0.38,0.5,0.74,-1.92,-3.05,1.27
1900-01-01 20:20:12.141,15.16,15.96,-7.27,0.28,0.27,0.96,-1.62,-0.48,-0.16,28.53,24.53,-34.69,0.41,0.47,0.76,-1.85,-1.0,1.63
1900-01-01 20:20:12.228,15.7,16.3,-7.14,0.28,0.27,0.93,-1.53,0.4,-0.08,29.68,24.01,-34.45,0.39,0.48,0.74,-3.69,-0.4,2.86
1900-01-01 20:20:12.323,16.11,16.53,-6.99,0.28,0.27,0.91,-4.68,3.7,0.44,29.04,24.57,-34.02,0.4,0.46,0.74,-4.78,-5.13,4.27
1900-01-01 20:20:12.366,15.18,15.87,-6.77,0.28,0.26,0.94,-3.31,0.81,-0.62,27.02,26.94,-33.37,0.44,0.44,0.75,0.44,-7.35,3.01
1900-01-01 20:20:12.458,15.3,16.1,-6.7,0.28,0.27,0.93,-0.18,0.8,-0.53,30.33,27.97,-32.92,0.46,0.49,0.7,1.43,-10.36,2.18
1900-01-01 20:20:12.561,12.93,14.91,-6.62,0.26,0.23,0.97,-3.96,2.05,-0.79,26.37,31.04,-32.6,0.52,0.45,0.73,-0.87,-8.1,4.77
1900-01-01 20:20:12.597,14.42,15.43,-6.59,0.27,0.26,0.96,2.06,-0.85,-1.86,29.39,31.19,-31.87,0.51,0.49,0.69,3.11,-3.12,-0.27
1900-01-01 20:20:12.692,14.25,15.77,-6.72,0.28,0.26,0.96,-4.62,1.95,-1.05,27.72,33.57,-31.92,0.55,0.46,0.69,-3.92,-4.76,6.94
1900-01-01 20:20:12.803,13.71,15.14,-6.72,0.27,0.24,0.95,-0.07,-0.44,-0.94,27.89,32.64,-30.87,0.53,0.46,0.69,2.44,-3.21,-1.77
1900-01-01 20:20:12.833,14.6,15.59,-6.7,0.27,0.26,0.95,-3.36,-1.6,0.66,29.28,34.59,-31.15,0.54,0.47,0.63,-5.73,-6.68,2.63
1900-01-01 20:20:12.925,13.37,14.35,-6.44,0.25,0.23,0.95,-3.39,0.29,-0.11,28.4,34.39,-30.75,0.55,0.46,0.66,-12.34,-2.8,7.7
1900-01-01 20:20:12.975,11.03,14.41,-6.3,0.25,0.19,0.95,-7.18,3.32,-2.43,22.52,37.27,-29.58,0.6,0.38,0.69,-12.44,-5.75,6.67
1900-01-01 20:20:13.066,10.64,14.18,-6.52,0.25,0.19,0.97,-1.2,-0.26,-2.44,22.08,37.56,-28.56,0.61,0.38,0.7,-2.89,-3.87,0.08
1900-01-01 20:20:13.158,12.22,14.72,-6.73,0.26,0.22,0.97,-2.92,0.4,-0.57,24.09,37.65,-28.56,0.61,0.41,0.67,-3.25,-2.02,1.78
1900-01-01 20:20:13.205,11.0,14.53,-6.66,0.26,0.19,0.97,-2.36,0.34,0.36,21.42,38.59,-28.29,0.62,0.36,0.68,-3.1,-1.37,-0.34
1900-01-01 20:20:13.298,10.92,14.03,-6.45,0.24,0.19,0.96,-1.29,-1.81,-0.62,21.93,38.83,-28.35,0.61,0.36,0.67,-1.21,2.11,-0.57
1900-01-01 20:20:13.358,11.18,14.76,-6.38,0.26,0.19,0.95,-1.8,-1.37,-0.56,23.22,38.23,-28.45,0.6,0.38,0.65,-1.33,0.79,1.12
1900-01-01 20:20:13.443,9.89,14.91,-6.31,0.26,0.17,0.95,-3.27,0.11,0.48,19.64,39.74,-28.29,0.62,0.33,0.67,-2.24,0.82,2.09
1900-01-01 20:20:13.529,8.9,14.17,-6.08,0.25,0.16,0.98,-1.17,0.02,-1.89,18.89,40.96,-27.98,0.65,0.32,0.67,-0.34,0.1,-1.1
1900-01-01 20:20:13.579,10.28,13.22,-6.21,0.23,0.18,0.98,-0.34,-1.26,-4.16,20.46,38.66,-28.15,0.63,0.35,0.7,0.21,-2.73,-2.32
1900-01-01 20:20:13.671,10.84,14.8,-6.69,0.26,0.19,0.96,0.73,-1.21,-5.06,22.5,39.32,-28.52,0.61,0.37,0.65,2.17,-1.31,-3.39
1900-01-01 20:20:13.762,10.54,13.97,-7.31,0.25,0.19,0.98,1.54,-1.46,-5.5,21.76,40.39,-29.05,0.64,0.37,0.66,2.37,1.54,-5.17
1900-01-01 20:20:13.868,12.13,15.27,-7.99,0.27,0.21,0.96,-0.69,-1.18,-5.85,25.36,39.17,-29.85,0.62,0.42,0.64,-2.08,0.44,-2.05
1900-01-01 20:20:13.902,11.46,15.77,-8.73,0.27,0.2,0.95,-0.25,-0.84,-6.06,26.69,38.2,-30.17,0.61,0.45,0.64,-1.4,-0.2,-3.09
1900-01-01 20:20:13.995,11.87,15.74,-9.51,0.28,0.21,0.96,-1.35,-1.71,-4.24,25.06,39.31,-30.65,0.63,0.42,0.64,-1.91,-1.07,-2.48
1900-01-01 20:20:14.050,11.74,15.09,-10.0,0.26,0.21,0.95,-0.85,-2.45,-3.84,25.03,39.39,-31.04,0.62,0.41,0.63,-2.27,-0.79,-2.07
1900-01-01 20:20:14.146,11.03,14.87,-10.43,0.26,0.19,0.96,0.1,-2.01,-4.21,24.06,39.92,-31.37,0.63,0.4,0.64,0.24,0.21,-3.47
1900-01-01 20:20:14.216,12.51,15.41,-10.92,0.27,0.22,0.97,-0.5,-2.48,-3.6,27.01,38.63,-31.91,0.62,0.45,0.63,-0.18,0.8,-2.72
1900-01-01 20:20:14.287,12.84,15.98,-11.32,0.28,0.23,0.96,1.68,-0.94,-1.61,26.65,38.35,-32.34,0.62,0.45,0.64,0.38,1.91,-1.8
1900-01-01 20:20:14.370,13.06,14.93,-11.4,0.26,0.23,0.96,0.06,-1.69,-1.69,26.53,38.47,-32.62,0.61,0.44,0.63,-0.36,0.23,-1.2
1900-01-01 20:20:14.462,13.54,16.11,-11.51,0.28,0.24,0.94,0.92,-1.4,-2.39,28.46,37.94,-32.81,0.6,0.46,0.61,-0.27,0.29,-2.19
1900-01-01 20:20:14.509,12.4,16.22,-11.71,0.28,0.22,0.95,-0.32,-1.05,-1.23,26.47,38.67,-33.16,0.62,0.44,0.64,-0.34,0.77,-1.89
1900-01-01 20:20:14.603,13.04,15.81,-11.75,0.28,0.23,0.95,-0.16,-1.02,-1.08,28.05,38.55,-33.46,0.61,0.46,0.61,-0.37,0.82,-0.34
1900-01-01 20:20:14.717,13.03,15.64,-11.75,0.27,0.23,0.95,-0.89,-0.14,-0.94,27.04,38.39,-33.52,0.62,0.45,0.63,-1.86,1.18,0.42
1900-01-01 20:20:14.744,12.85,16.27,-11.74,0.28,0.23,0.95,-1.5,-1.11,-1.18,27.26,38.66,-33.46,0.62,0.45,0.63,-2.26,0.27,-0.42
1900-01-01 20:20:14.838,13.62,16.73,-11.76,0.29,0.24,0.94,-0.24,-0.85,-0.98,28.94,38.32,-33.54,0.6,0.47,0.6,-1.05,0.79,-0.3
1900-01-01 20:20:14.931,13.69,16.12,-11.76,0.28,0.24,0.95,-1.34,0.74,0.79,28.14,38.39,-33.59,0.62,0.47,0.62,-2.95,2.6,1.77
1900-01-01 20:20:14.978,13.51,16.7,-11.48,0.29,0.23,0.93,1.81,-0.15,0.18,26.44,39.13,-33.33,0.6,0.43,0.61,-0.82,1.4,-1.93
1900-01-01 20:20:15.073,14.09,15.39,-11.29,0.27,0.24,0.93,0.5,2.13,-0.07,28.56,38.14,-33.63,0.59,0.46,0.6,-1.6,4.32,2.79
1900-01-01 20:20:15.119,13.72,15.17,-11.14,0.27,0.24,0.95,-0.08,2.79,1.79,25.72,38.71,-33.22,0.63,0.44,0.65,1.71,4.46,6.51
1900-01-01 20:20:15.213,13.0,15.72,-10.71,0.28,0.23,0.96,0.18,0.99,0.9,26.63,38.99,-32.23,0.62,0.44,0.62,1.34,5.23,4.08
1900-01-01 20:20:15.307,13.64,16.16,-10.42,0.28,0.24,0.94,-0.46,2.6,1.19,28.02,38.26,-31.62,0.61,0.46,0.62,-0.61,2.34,4.27
1900-01-01 20:20:15.354,13.49,15.29,-10.08,0.27,0.24,0.96,0.32,2.14,2.06,26.11,38.96,-30.97,0.62,0.44,0.63,0.01,4.31,2.95
1900-01-01 20:20:15.446,13.15,14.18,-9.6,0.25,0.23,0.95,0.2,2.26,1.37,25.0,38.29,-30.53,0.61,0.41,0.65,-0.3,3.64,1.92
1900-01-01 20:20:15.532,13.69,13.47,-9.24,0.24,0.24,0.95,-0.85,1.95,0.68,25.7,37.79,-30.25,0.6,0.42,0.65,-0.95,2.64,2.72
1900-01-01 20:20:15.573,13.79,13.49,-8.98,0.24,0.24,0.96,-0.35,2.39,0.1,25.55,38.27,-29.84,0.61,0.42,0.64,-1.44,3.91,2.29
1900-01-01 20:20:15.665,12.93,13.65,-8.8,0.24,0.23,0.97,-0.63,2.12,-0.46,24.68,38.64,-29.5,0.63,0.42,0.66,-1.64,3.03,1.55
1900-01-01 20:20:15.759,13.04,13.74,-8.71,0.24,0.23,0.96,-0.4,0.88,-0.66,25.4,38.21,-29.28,0.61,0.43,0.65,-0.6,2.12,-0.29
1900-01-01 20:20:15.804,13.66,13.17,-8.66,0.23,0.24,0.95,-0.32,0.42,-0.43,25.96,37.97,-29.33,0.6,0.43,0.64,-1.16,1.89,-0.14
1900-01-01 20:20:15.898,13.45,12.93,-8.56,0.23,0.23,0.96,-0.08,-0.02,-0.82,25.54,37.81,-29.36,0.6,0.42,0.65,-1.04,1.56,-0.4
1900-01-01 20:20:15.994,13.42,12.65,-8.53,0.22,0.24,0.96,-0.85,-0.21,-1.33,25.11,38.09,-29.43,0.61,0.42,0.66,-1.81,1.2,-0.27
1900-01-01 20:20:16.039,13.46,12.87,-8.57,0.23,0.24,0.98,-1.52,-0.6,-1.34,25.48,37.67,-29.48,0.61,0.43,0.66,-3.2,1.46,0.07
1900-01-01 20:20:16.134,12.97,12.98,-8.62,0.23,0.23,0.97,-1.18,-0.58,-1.49,24.92,38.79,-29.48,0.61,0.41,0.64,-1.4,1.6,-0.18
1900-01-01 20:20:16.187,13.92,12.46,-8.69,0.22,0.24,0.95,-0.05,-0.09,-1.4,25.04,37.25,-29.51,0.59,0.41,0.66,-0.62,2.96,-0.09
1900-01-01 20:20:16.275,12.78,13.06,-8.75,0.22,0.22,0.94,0.81,-0.3,-2.91,25.34,37.38,-29.53,0.58,0.41,0.64,1.07,2.32,-1.27
1900-01-01 20:20:16.368,14.4,13.47,-9.04,0.24,0.25,0.95,0.31,-0.34,-2.41,26.49,37.21,-29.74,0.6,0.44,0.66,1.27,1.97,0.41
1900-01-01 20:20:16.414,13.55,12.86,-9.24,0.24,0.25,1.0,2.48,-2.65,-3.56,27.36,37.49,-29.68,0.63,0.48,0.67,4.98,-3.6,-2.08
1900-01-01 20:20:16.506,15.09,14.03,-9.63,0.25,0.26,0.95,3.27,-2.14,-0.85,31.27,37.64,-30.01,0.61,0.52,0.6,1.99,-2.29,-1.34
1900-01-01 20:20:16.601,15.19,15.47,-9.6,0.27,0.26,0.92,8.24,1.29,-0.66,29.15,38.69,-30.22,0.58,0.46,0.57,14.16,-10.51,0.58
1900-01-01 20:20:16.651,16.57,13.33,-9.55,0.23,0.29,0.93,16.83,-2.44,0.84,32.35,38.35,-30.14,0.63,0.54,0.58,19.55,-3.81,-14.92
1900-01-01 20:20:16.765,18.91,14.73,-9.26,0.26,0.33,0.91,2.07,-2.85,2.79,34.25,39.26,-32.45,0.62,0.55,0.52,2.6,-4.25,-1.02
1900-01-01 20:20:16.794,18.38,13.31,-8.67,0.24,0.33,0.96,-6.11,-1.6,2.98,32.16,39.72,-32.61,0.65,0.54,0.57,-5.42,0.09,4.91
1900-01-01 20:20:16.879,16.69,14.4,-8.06,0.26,0.3,0.96,-1.86,-1.87,1.53,30.72,40.84,-31.87,0.66,0.51,0.56,-1.23,2.02,2.65
1900-01-01 20:20:16.973,17.19,14.87,-7.67,0.26,0.3,0.92,-2.49,-1.6,0.56,31.77,40.55,-31.47,0.63,0.51,0.53,-2.34,2.53,2.46
1900-01-01 20:20:17.098,17.53,15.6,-7.42,0.27,0.3,0.92,-3.19,-0.53,0.66,31.9,39.71,-31.11,0.63,0.52,0.55,-2.67,2.34,3.2
1900-01-01 20:20:17.126,16.87,16.02,-7.16,0.28,0.29,0.92,-3.36,-1.5,0.49,30.62,40.56,-30.63,0.64,0.5,0.55,-3.21,1.77,3.24
1900-01-01 20:20:17.205,16.11,15.33,-6.93,0.27,0.28,0.95,-2.99,-3.05,0.44,29.78,41.62,-30.14,0.66,0.49,0.55,-5.21,2.76,2.74
1900-01-01 20:20:17.300,15.92,15.64,-6.7,0.28,0.28,0.96,-1.44,-3.34,-0.04,29.5,41.28,-29.73,0.67,0.5,0.57,-3.68,5.54,-1.92
1900-01-01 20:20:17.348,15.89,17.19,-6.55,0.3,0.27,0.92,-1.5,-3.06,0.88,30.56,39.64,-30.03,0.61,0.49,0.56,-3.24,5.79,-0.48
1900-01-01 20:20:17.440,16.27,17.41,-6.26,0.3,0.28,0.91,-2.5,-1.05,0.98,30.84,38.46,-30.11,0.6,0.49,0.57,-3.11,6.0,0.19
1900-01-01 20:20:17.487,14.38,17.17,-5.95,0.29,0.25,0.91,-0.84,-0.71,1.02,29.56,38.63,-30.09,0.6,0.47,0.58,-0.83,3.96,-0.18
1900-01-01 20:20:17.581,14.82,17.29,-5.64,0.3,0.26,0.92,-3.03,0.69,0.24,28.63,39.17,-30.13,0.61,0.46,0.59,-3.02,2.06,2.24
1900-01-01 20:20:17.700,15.24,16.81,-5.44,0.3,0.27,0.95,-0.87,0.15,-0.55,29.21,38.64,-29.8,0.63,0.49,0.61,-0.76,1.5,0.58
1900-01-01 20:20:17.728,14.65,17.18,-5.37,0.3,0.26,0.94,-1.24,-0.34,-0.54,29.52,38.44,-29.72,0.62,0.49,0.6,-1.6,2.95,0.5
1900-01-01 20:20:17.811,14.59,16.71,-5.29,0.29,0.26,0.94,-1.93,0.91,0.15,29.22,38.58,-29.65,0.62,0.48,0.6,-2.91,4.86,1.15
1900-01-01 20:20:17.873,14.38,17.07,-5.11,0.3,0.25,0.93,-1.76,0.76,-0.02,28.61,38.2,-29.48,0.61,0.47,0.61,-1.89,4.24,0.72
1900-01-01 20:20:17.961,14.35,17.17,-4.95,0.3,0.25,0.93,-0.63,-0.17,-0.47,28.94,37.78,-29.38,0.6,0.47,0.61,-0.47,3.5,0.58
1900-01-01 20:20:18.045,14.82,17.13,-4.87,0.3,0.26,0.93,-0.82,-0.45,-0.47,29.23,37.39,-29.3,0.6,0.48,0.61,-0.9,2.63,0.12
1900-01-01 20:20:18.146,14.69,17.23,-4.78,0.3,0.26,0.93,-0.89,0.29,-0.37,29.63,37.14,-29.29,0.59,0.48,0.61,-1.24,2.18,0.67
1900-01-01 20:20:18.184,13.58,16.72,-4.68,0.29,0.24,0.94,-1.1,0.38,-0.52,27.59,38.0,-29.2,0.61,0.46,0.63,-1.61,1.77,0.11
1900-01-01 20:20:18.279,14.34,16.95,-4.6,0.29,0.25,0.93,-0.98,0.21,-1.31,29.38,37.47,-29.19,0.59,0.48,0.61,-2.02,1.94,-0.05
1900-01-01 20:20:18.389,13.91,17.15,-4.64,0.3,0.24,0.93,-1.77,1.24,-1.46,29.11,37.56,-29.2,0.59,0.47,0.61,-2.76,2.44,0.31
1900-01-01 20:20:18.421,13.51,16.24,-4.7,0.29,0.24,0.96,-1.71,1.64,-1.31,28.27,38.13,-29.16,0.62,0.47,0.63,-2.82,1.63,1.31
1900-01-01 20:20:18.513,14.01,16.21,-4.75,0.28,0.25,0.95,-0.34,-0.05,-1.56,28.99,36.98,-28.97,0.6,0.48,0.63,-1.8,2.69,-0.91
1900-01-01 20:20:18.559,13.53,15.99,-4.83,0.28,0.24,0.94,-0.73,0.37,-1.09,28.18,37.04,-29.12,0.59,0.46,0.63,-2.18,2.92,-0.78
1900-01-01 20:20:18.652,13.33,15.45,-4.84,0.27,0.23,0.94,0.23,0.53,-1.78,27.76,36.75,-29.25,0.58,0.45,0.63,-0.89,1.92,-0.57
1900-01-01 20:20:18.746,14.28,15.89,-4.95,0.28,0.25,0.94,0.05,0.42,-1.66,28.58,36.65,-29.35,0.59,0.47,0.64,-0.82,1.44,0.38
1900-01-01 20:20:18.792,13.82,15.78,-5.04,0.28,0.24,0.95,0.26,-0.61,-2.23,28.58,36.64,-29.3,0.59,0.47,0.63,-0.4,2.04,-0.66
1900-01-01 20:20:18.887,13.67,16.51,-5.23,0.29,0.24,0.94,-0.37,0.47,-1.66,28.91,36.86,-29.4,0.58,0.47,0.62,-2.19,3.3,-0.81
1900-01-01 20:20:18.981,14.25,15.67,-5.32,0.28,0.25,0.96,-0.29,1.01,-1.66,28.83,36.0,-29.54,0.59,0.48,0.65,-1.9,3.02,-0.44
1900-01-01 20:20:19.027,14.8,15.65,-5.42,0.28,0.26,0.95,-0.73,1.47,-0.88,28.87,35.84,-29.61,0.58,0.47,0.64,-2.54,3.72,0.25
1900-01-01 20:20:19.122,14.11,14.97,-5.39,0.26,0.25,0.96,-1.02,0.5,-1.03,28.14,35.77,-29.58,0.58,0.47,0.66,-1.69,3.65,-0.2
1900-01-01 20:20:19.170,14.2,15.59,-5.39,0.27,0.25,0.93,0.74,-0.51,-1.02,28.82,35.0,-29.62,0.56,0.47,0.65,0.03,3.12,-0.95
1900-01-01 20:20:19.269,14.31,15.4,-5.39,0.27,0.25,0.94,-0.54,-0.32,-1.27,28.56,35.04,-29.78,0.56,0.47,0.65,-0.96,2.1,-0.5
1900-01-01 20:20:19.368,14.43,15.28,-5.43,0.27,0.25,0.95,-0.45,-0.2,-1.31,28.73,35.14,-29.86,0.57,0.47,0.65,-1.05,1.84,-0.13
1900-01-01 20:20:19.401,14.6,14.91,-5.47,0.26,0.26,0.95,0.15,0.15,-1.58,28.95,34.86,-29.89,0.56,0.48,0.65,-0.89,1.49,-0.08
1900-01-01 20:20:19.493,14.7,15.06,-5.55,0.27,0.26,0.95,-0.4,0.47,-1.17,28.94,35.14,-29.91,0.57,0.48,0.65,-0.84,1.44,0.38
1900-01-01 20:20:19.587,14.7,15.13,-5.57,0.26,0.26,0.94,-0.53,0.03,-1.14,29.34,34.64,-29.86,0.56,0.48,0.65,-1.28,1.89,0.11
1900-01-01 20:20:19.634,14.85,15.08,-5.59,0.26,0.26,0.94,-0.63,-0.15,-0.84,29.02,34.8,-29.85,0.56,0.48,0.65,-1.38,1.4,0.14
1900-01-01 20:20:19.728,14.47,14.93,-5.56,0.26,0.25,0.95,-0.26,-0.16,-0.63,28.24,35.02,-29.84,0.56,0.47,0.66,-0.9,0.89,0.3
1900-01-01 20:20:19.820,14.65,14.71,-5.5,0.26,0.26,0.95,-0.37,-0.27,-0.83,28.84,34.85,-29.8,0.56,0.47,0.65,-0.98,1.24,0.34
1900-01-01 20:20:19.866,15.22,15.1,-5.46,0.26,0.27,0.94,-0.4,-0.79,-0.76,29.25,34.84,-29.76,0.56,0.48,0.65,-1.29,1.51,0.04
1900-01-01 20:20:19.960,14.75,14.91,-5.42,0.26,0.26,0.95,-0.69,-0.44,-0.73,28.6,34.88,-29.76,0.56,0.47,0.65,-1.75,1.81,0.11
1900-01-01 20:20:20.083,14.76,15.1,-5.38,0.27,0.26,0.95,-0.66,-0.19,-0.7,28.79,34.68,-29.75,0.56,0.47,0.66,-1.49,1.97,0.13
1900-01-01 20:20:20.083,15.04,15.05,-5.32,0.26,0.26,0.94,-1.28,0.28,-0.56,29.07,34.47,-29.74,0.55,0.47,0.65,-1.98,1.06,1.17
1900-01-01 20:20:20.167,14.48,14.75,-5.25,0.26,0.25,0.95,-0.53,-1.02,-0.88,28.34,34.7,-29.57,0.56,0.47,0.67,0.18,0.62,0.37
1900-01-01 20:20:20.240,14.44,15.28,-5.23,0.27,0.25,0.95,-1.15,-2.28,-0.63,27.96,35.81,-29.52,0.58,0.46,0.65,-0.44,0.35,0.79
1900-01-01 20:20:20.334,14.41,15.76,-5.17,0.28,0.25,0.94,-0.16,-1.85,-0.9,28.8,35.39,-29.41,0.57,0.47,0.64,-0.45,0.92,-0.02
1900-01-01 20:20:20.428,14.43,15.65,-5.15,0.27,0.25,0.94,-0.64,-0.87,-1.02,28.6,35.31,-29.42,0.56,0.47,0.64,-1.36,1.3,0.37
1900-01-01 20:20:20.475,14.45,15.34,-5.14,0.27,0.25,0.94,-1.05,0.53,-1.08,28.2,35.25,-29.37,0.56,0.46,0.65,-2.38,1.76,1.26
1900-01-01 20:20:20.569,14.68,15.58,-5.15,0.27,0.26,0.94,-0.72,0.58,-1.44,28.37,35.35,-29.19,0.57,0.47,0.65,-1.94,1.5,0.73
1900-01-01 20:20:20.661,14.84,15.55,-5.21,0.27,0.26,0.95,-0.73,-0.19,-1.28,28.36,35.57,-29.09,0.57,0.47,0.65,-1.35,1.07,-0.05
1900-01-01 20:20:20.706,14.45,15.33,-5.25,0.27,0.26,0.95,-1.27,-0.17,-0.98,27.93,35.75,-29.1,0.58,0.46,0.66,-1.24,1.27,0.15
1900-01-01 20:20:20.801,14.24,15.32,-5.24,0.27,0.25,0.94,-0.89,-0.22,-0.99,27.93,35.54,-29.09,0.57,0.46,0.65,-1.09,1.68,0.57
1900-01-01 20:20:20.916,14.34,15.35,-5.24,0.27,0.25,0.94,-0.6,-0.17,-1.24,28.12,35.46,-29.01,0.57,0.46,0.65,-0.96,1.98,0.21
1900-01-01 20:20:20.944,14.65,15.3,-5.27,0.27,0.26,0.95,-1.43,1.1,-0.98,28.15,35.08,-28.98,0.56,0.46,0.66,-2.23,1.34,0.62
1900-01-01 20:20:21.037,14.42,14.86,-5.26,0.26,0.25,0.95,-1.15,2.31,-0.93,27.78,35.29,-28.9,0.57,0.46,0.66,-1.95,0.48,-1.15
1900-01-01 20:20:21.094,14.55,14.42,-5.24,0.25,0.25,0.95,0.52,0.15,-1.15,27.8,35.44,-29.08,0.57,0.46,0.65,-0.82,0.86,-3.83
1900-01-01 20:20:21.185,14.77,14.44,-5.26,0.25,0.26,0.94,-0.15,-0.69,-1.82,28.56,34.92,-29.68,0.56,0.47,0.65,-2.18,0.73,-1.79
1900-01-01 20:20:21.255,13.85,14.21,-5.38,0.25,0.24,0.96,-0.29,-0.43,-2.35,27.72,35.59,-29.96,0.57,0.45,0.65,-1.29,4.66,-0.44
1900-01-01 20:20:21.347,13.8,14.45,-5.58,0.25,0.24,0.93,-0.47,-1.81,-4.82,28.46,33.31,-30.04,0.53,0.46,0.66,0.83,3.14,1.24
1900-01-01 20:20:21.410,13.94,13.69,-6.16,0.24,0.25,0.97,-1.83,0.65,-3.63,28.39,34.79,-29.85,0.57,0.47,0.67,-2.3,4.53,1.88
1900-01-01 20:20:21.479,14.81,14.98,-6.56,0.26,0.26,0.94,-4.79,0.99,-3.2,29.17,35.37,-29.58,0.57,0.48,0.65,-7.01,3.09,4.69
