Time,Roll2,Pitch2,Yaw2,AccX2,AccY2,AccZ2,RotX2,RotY2,RotZ2,Roll1,Pitch1,Yaw1,AccX1,AccY1,AccZ1,RotX1,RotY1,RotZ1
1900-01-01 11:54:39.066,15.72,-13.54,-0.62,-0.23,0.27,0.92,-0.7,-0.33,-0.84,39.04,17.0,0.11,0.28,0.61,0.69,-1.35,1.11,0.21
1900-01-01 11:54:39.159,15.75,-13.48,-0.59,-0.23,0.27,0.93,-0.44,-0.29,-0.79,39.3,17.0,0.14,0.28,0.61,0.69,-1.31,1.25,0.08
1900-01-01 11:54:39.206,15.83,-13.61,-0.55,-0.23,0.27,0.93,-0.75,-0.24,-0.95,39.53,16.91,0.14,0.28,0.61,0.69,-1.39,1.25,-0.04
1900-01-01 11:54:39.300,15.39,-13.52,-0.54,-0.23,0.26,0.93,-0.63,-0.37,-0.91,39.24,17.16,0.13,0.28,0.61,0.69,-0.87,0.94,0.02
1900-01-01 11:54:39.394,15.56,-13.41,-0.52,-0.23,0.27,0.93,-0.85,-0.27,-0.79,39.26,17.19,0.12,0.28,0.61,0.69,-1.3,1.49,0.14
1900-01-01 11:54:39.441,15.89,-13.74,-0.48,-0.23,0.27,0.92,-0.38,-0.21,-1.13,39.63,16.62,0.13,0.28,0.62,0.69,-1.5,1.13,0.05
1900-01-01 11:54:39.534,15.47,-13.46,-0.49,-0.23,0.26,0.93,-0.48,-0.37,-1.02,39.35,17.32,0.13,0.29,0.61,0.69,-1.11,1.01,-0.04
1900-01-01 11:54:39.628,15.42,-13.45,-0.49,-0.23,0.26,0.93,-0.87,-0.12,-1.04,39.14,17.09,0.12,0.28,0.61,0.69,-1.34,1.43,-0.09
1900-01-01 11:54:39.675,15.68,-13.68,-0.49,-0.23,0.27,0.93,-0.68,-0.34,-0.83,39.2,17.26,0.1,0.29,0.61,0.69,-1.15,1.02,0.16
1900-01-01 11:54:39.769,15.59,-13.4,-0.46,-0.23,0.27,0.93,-0.5,-0.4,-0.92,38.9,17.18,0.11,0.29,0.61,0.69,-1.01,0.96,0.02
1900-01-01 11:54:39.815,15.75,-13.49,-0.44,-0.23,0.27,0.93,-0.37,-0.37,-0.93,39.16,16.99,0.11,0.28,0.61,0.69,-1.37,1.25,0.02
1900-01-01 11:54:39.909,15.76,-13.38,-0.42,-0.23,0.27,0.93,-0.31,-0.33,-1.0,39.43,17.26,0.1,0.29,0.61,0.69,-1.2,1.09,-0.11
1900-01-01 11:54:40.003,15.78,-13.69,-0.42,-0.23,0.27,0.92,-0.75,-0.35,-1.02,39.47,16.97,0.08,0.28,0.61,0.69,-1.17,1.22,-0.13
1900-01-01 11:54:40.050,15.69,-13.6,-0.41,-0.23,0.27,0.93,-0.31,-0.63,-1.0,39.57,16.88,0.05,0.28,0.61,0.69,-1.1,0.8,0.05
1900-01-01 11:54:40.144,15.74,-13.02,-0.41,-0.22,0.27,0.93,-0.26,-0.09,-0.75,39.46,17.44,0.05,0.29,0.61,0.69,-1.18,1.47,0.05
1900-01-01 11:54:40.237,15.88,-13.57,-0.36,-0.23,0.27,0.92,-0.33,-0.05,-0.69,39.11,17.2,0.05,0.28,0.61,0.69,-1.21,1.34,0.18
1900-01-01 11:54:40.284,15.97,-13.29,-0.31,-0.23,0.27,0.93,-0.55,-0.27,-0.81,39.27,17.13,0.07,0.28,0.61,0.69,-1.35,1.26,0.18
1900-01-01 11:54:40.378,15.92,-13.31,-0.27,-0.23,0.27,0.93,-0.54,-0.07,-0.98,39.53,17.44,0.08,0.29,0.61,0.69,-1.52,1.5,0.05
1900-01-01 11:54:40.425,15.77,-13.66,-0.27,-0.23,0.27,0.92,-0.76,-0.05,-0.95,39.71,16.91,0.08,0.28,0.62,0.69,-1.49,1.22,0.31
1900-01-01 11:54:40.519,16.02,-13.17,-0.25,-0.23,0.27,0.93,-0.37,-0.29,-0.93,39.43,17.24,0.12,0.29,0.61,0.69,-1.17,1.32,-0.1
1900-01-01 11:54:40.612,15.98,-13.34,-0.24,-0.23,0.27,0.93,-0.72,-0.07,-1.04,39.44,16.97,0.1,0.28,0.61,0.69,-1.22,1.47,-0.32
1900-01-01 11:54:40.659,15.8,-13.1,-0.24,-0.23,0.27,0.93,-0.85,-0.37,-0.83,39.17,17.62,0.04,0.29,0.61,0.69,-0.84,1.05,-0.02
1900-01-01 11:54:40.753,16.05,-13.48,-0.21,-0.23,0.27,0.92,-0.92,-0.14,-0.87,39.29,17.13,0.03,0.28,0.61,0.69,-1.44,1.32,0.11
1900-01-01 11:54:40.847,16.08,-13.37,-0.18,-0.23,0.28,0.93,-0.42,-0.33,-0.9,39.35,17.2,0.04,0.29,0.61,0.69,-1.02,0.95,0.05
1900-01-01 11:54:40.893,15.98,-13.24,-0.16,-0.23,0.27,0.93,-0.34,-0.2,-0.94,39.61,17.17,0.04,0.28,0.61,0.69,-1.19,1.37,-0.09
1900-01-01 11:54:40.987,15.43,-13.59,-0.14,-0.23,0.26,0.93,-0.79,-0.23,-0.91,39.12,17.18,0.02,0.28,0.61,0.69,-1.39,1.3,0.1
1900-01-01 11:54:41.034,16.0,-13.21,-0.12,-0.23,0.27,0.93,-0.6,-0.25,-1.02,39.66,17.41,0.02,0.29,0.62,0.68,-1.27,1.21,-0.01
1900-01-01 11:54:41.128,15.81,-13.58,-0.12,-0.23,0.27,0.92,-0.53,-0.23,-0.82,39.31,17.13,0.01,0.28,0.61,0.69,-1.07,1.05,0.22
1900-01-01 11:54:41.222,15.72,-13.46,-0.09,-0.23,0.27,0.92,-0.36,-0.29,-0.87,39.54,17.19,0.04,0.28,0.61,0.69,-1.25,1.21,0.14
1900-01-01 11:54:41.268,15.78,-13.33,-0.06,-0.23,0.27,0.93,-0.4,-0.52,-0.75,39.09,17.11,0.05,0.28,0.61,0.69,-0.9,0.84,0.06
1900-01-01 11:54:41.362,16.15,-13.07,-0.02,-0.23,0.28,0.93,-0.82,-0.09,-1.0,39.62,17.36,0.05,0.29,0.62,0.69,-1.11,1.66,-0.47
1900-01-01 11:54:41.456,15.65,-13.47,-0.01,-0.23,0.27,0.92,-1.15,-0.34,-0.94,39.28,17.21,-0.03,0.29,0.61,0.69,-1.22,1.06,0.08
1900-01-01 11:54:41.503,15.98,-13.49,0.0,-0.23,0.27,0.93,-0.53,-0.29,-0.89,39.9,17.21,-0.02,0.28,0.62,0.68,-1.63,1.13,0.26
1900-01-01 11:54:41.596,15.68,-13.26,0.02,-0.23,0.27,0.93,-0.34,-0.24,-1.02,39.37,17.33,0.01,0.29,0.61,0.69,-1.08,1.02,0.05
1900-01-01 11:54:41.643,15.78,-13.49,0.03,-0.23,0.27,0.93,-0.53,-0.32,-0.9,39.33,17.32,0.01,0.29,0.61,0.68,-1.27,1.44,-0.07
1900-01-01 11:54:41.737,15.93,-13.21,0.05,-0.23,0.27,0.93,-0.77,-0.39,-0.77,39.36,17.33,-0.01,0.29,0.61,0.69,-1.41,1.07,0.27
1900-01-01 11:54:41.831,15.98,-13.28,0.09,-0.23,0.27,0.93,-0.55,-0.29,-0.9,39.53,17.38,0.02,0.29,0.61,0.68,-1.2,1.11,0.18
1900-01-01 11:54:41.878,16.26,-13.29,0.11,-0.23,0.28,0.93,-0.54,-0.27,-0.9,39.62,17.36,0.04,0.29,0.61,0.68,-1.37,1.31,0.0
1900-01-01 11:54:41.971,15.95,-13.28,0.13,-0.23,0.27,0.93,-0.44,-0.31,-1.02,39.57,17.29,0.03,0.29,0.61,0.69,-1.26,1.12,0.0
1900-01-01 11:54:42.065,15.92,-13.27,0.14,-0.23,0.27,0.93,-0.57,-0.21,-0.95,39.57,17.26,0.02,0.29,0.62,0.69,-1.4,1.31,-0.05
1900-01-01 11:54:42.112,15.64,-13.25,0.15,-0.23,0.27,0.93,-0.55,-0.22,-0.99,39.51,17.47,0.0,0.29,0.61,0.69,-1.56,1.42,-0.11
1900-01-01 11:54:42.206,15.98,-13.5,0.16,-0.23,0.27,0.92,-0.78,-0.1,-0.96,39.55,17.02,-0.02,0.28,0.61,0.69,-1.32,1.29,0.12
1900-01-01 11:54:42.253,15.85,-13.32,0.17,-0.23,0.27,0.93,-0.62,-0.27,-1.02,39.25,17.62,-0.01,0.29,0.61,0.69,-1.25,1.03,0.02
1900-01-01 11:54:42.346,16.12,-13.18,0.17,-0.23,0.28,0.93,-0.56,-0.32,-0.91,39.55,17.57,-0.02,0.29,0.61,0.68,-0.99,0.88,0.09
1900-01-01 11:54:42.440,15.99,-13.43,0.19,-0.23,0.27,0.92,-0.61,-0.2,-1.11,39.64,17.22,-0.01,0.29,0.62,0.69,-1.28,1.21,-0.16
1900-01-01 11:54:42.487,15.75,-13.44,0.18,-0.23,0.27,0.93,-0.63,-0.24,-1.11,39.31,17.36,-0.04,0.29,0.61,0.69,-1.33,1.38,-0.21
1900-01-01 11:54:42.580,15.89,-13.17,0.17,-0.23,0.27,0.93,-0.86,-0.24,-0.96,39.3,17.9,-0.08,0.3,0.61,0.68,-1.27,1.13,-0.02
1900-01-01 11:54:42.674,15.9,-13.59,0.18,-0.23,0.27,0.93,-0.46,-0.21,-0.98,39.46,17.13,-0.1,0.28,0.61,0.69,-1.31,1.11,0.05
1900-01-01 11:54:42.721,15.9,-13.28,0.19,-0.23,0.27,0.93,-0.31,-0.44,-0.85,39.31,17.43,-0.1,0.29,0.61,0.69,-0.85,0.79,-0.03
1900-01-01 11:54:42.815,15.57,-13.31,0.22,-0.23,0.27,0.93,-0.42,-0.42,-0.73,39.15,17.37,-0.11,0.29,0.61,0.69,-0.94,1.35,-0.02
1900-01-01 11:54:42.862,16.04,-13.18,0.27,-0.23,0.27,0.93,-0.78,-0.27,-0.73,39.43,17.48,-0.12,0.29,0.61,0.69,-1.32,1.35,0.15
1900-01-01 11:54:42.955,16.18,-13.27,0.31,-0.23,0.28,0.93,-0.67,-0.25,-0.82,39.42,17.57,-0.11,0.29,0.61,0.68,-1.21,1.27,0.02
1900-01-01 11:54:43.049,16.31,-13.11,0.35,-0.23,0.28,0.93,-0.63,-0.14,-0.98,39.59,17.42,-0.11,0.29,0.62,0.69,-1.36,1.41,-0.28
1900-01-01 11:54:43.096,15.95,-13.18,0.36,-0.23,0.27,0.93,-0.91,-0.14,-0.92,39.45,17.5,-0.17,0.29,0.61,0.68,-1.32,1.3,-0.02
1900-01-01 11:54:43.190,15.91,-13.28,0.37,-0.23,0.27,0.93,-0.92,0.06,-1.06,39.26,17.42,-0.18,0.29,0.61,0.69,-1.61,1.5,0.01
1900-01-01 11:54:43.283,16.2,-13.32,0.37,-0.23,0.28,0.93,-0.66,-0.18,-0.98,39.45,17.31,-0.18,0.29,0.61,0.69,-1.24,1.05,0.0
1900-01-01 11:54:43.330,15.94,-13.4,0.38,-0.23,0.27,0.92,-0.63,-0.2,-0.86,39.16,17.33,-0.19,0.29,0.61,0.69,-1.28,1.22,0.05
1900-01-01 11:54:43.424,15.99,-13.08,0.41,-0.23,0.28,0.93,-0.62,-0.01,-1.03,39.52,17.68,-0.19,0.29,0.62,0.69,-1.44,1.74,-0.25
1900-01-01 11:54:43.518,15.66,-13.77,0.41,-0.24,0.27,0.92,-0.72,-0.31,-0.95,39.51,17.19,-0.24,0.28,0.61,0.69,-1.33,1.05,0.13
1900-01-01 11:54:43.565,15.68,-13.46,0.42,-0.23,0.27,0.92,-0.73,-0.29,-0.79,39.32,17.36,-0.23,0.29,0.61,0.69,-1.17,1.11,0.26
1900-01-01 11:54:43.658,15.81,-13.53,0.46,-0.23,0.27,0.92,-0.29,-0.31,-0.81,39.17,17.1,-0.2,0.28,0.61,0.69,-1.31,1.24,0.11
1900-01-01 11:54:43.705,15.87,-13.24,0.49,-0.23,0.27,0.93,-0.5,-0.31,-0.92,39.2,17.65,-0.19,0.29,0.61,0.69,-1.5,1.59,0.0
1900-01-01 11:54:43.799,15.79,-13.56,0.51,-0.23,0.27,0.92,-0.82,-0.43,-0.95,39.58,17.41,-0.2,0.29,0.61,0.68,-1.08,0.95,-0.05
1900-01-01 11:54:43.886,15.9,-13.4,0.53,-0.23,0.27,0.93,-0.44,-0.27,-0.97,39.53,17.28,-0.21,0.29,0.62,0.69,-1.47,1.4,-0.07
1900-01-01 11:54:43.966,15.9,-13.4,0.54,-0.23,0.27,0.92,-0.4,-0.15,-1.05,39.6,16.86,-0.23,0.28,0.62,0.69,-1.32,1.37,-0.05
1900-01-01 11:54:44.006,15.84,-13.38,0.53,-0.23,0.27,0.93,-0.8,-0.27,-0.91,39.51,17.38,-0.25,0.29,0.61,0.69,-1.5,1.44,-0.03
1900-01-01 11:54:44.086,16.03,-13.31,0.55,-0.23,0.27,0.93,-0.95,-0.12,-1.08,39.48,17.35,-0.26,0.29,0.61,0.69,-1.53,1.18,-0.12
1900-01-01 11:54:44.166,15.93,-13.43,0.55,-0.23,0.27,0.93,-0.79,-0.21,-0.97,39.28,17.41,-0.29,0.29,0.61,0.69,-1.22,1.04,0.02
1900-01-01 11:54:44.246,15.99,-13.29,0.56,-0.23,0.27,0.93,-0.87,-0.17,-0.92,39.21,17.4,-0.29,0.29,0.61,0.69,-1.24,1.32,0.0
1900-01-01 11:54:44.326,15.58,-13.57,0.57,-0.23,0.27,0.93,-0.5,-0.56,-0.51,39.39,17.5,-0.3,0.29,0.61,0.69,-0.92,1.07,0.29
1900-01-01 11:54:44.406,16.14,-13.27,0.66,-0.23,0.28,0.93,-0.53,-0.15,-0.96,39.66,17.2,-0.27,0.29,0.62,0.69,-1.23,1.35,-0.05
1900-01-01 11:54:44.476,15.6,-13.36,0.67,-0.23,0.27,0.93,-0.54,-0.37,-0.86,39.22,17.47,-0.28,0.29,0.61,0.69,-1.05,0.95,0.18
1900-01-01 11:54:44.556,15.85,-13.42,0.69,-0.23,0.27,0.93,-0.72,-0.21,-0.92,39.48,17.3,-0.26,0.29,0.61,0.69,-1.44,1.39,0.15
1900-01-01 11:54:44.636,15.88,-13.56,0.71,-0.23,0.27,0.93,-0.27,-0.31,-0.96,39.68,17.22,-0.25,0.29,0.62,0.69,-1.24,1.3,0.05
1900-01-01 11:54:44.711,15.55,-13.29,0.72,-0.23,0.27,0.93,-0.52,-0.28,-1.03,39.67,17.45,-0.25,0.29,0.62,0.68,-1.4,1.21,-0.14
1900-01-01 11:54:44.781,15.61,-13.23,0.73,-0.23,0.27,0.93,-0.89,-0.18,-1.06,39.45,17.51,-0.28,0.29,0.61,0.69,-1.34,1.27,-0.2
1900-01-01 11:54:44.861,15.88,-13.38,0.72,-0.23,0.27,0.93,-1.75,0.11,-1.12,39.05,17.48,-0.32,0.29,0.61,0.69,-1.31,1.45,-0.32
1900-01-01 11:54:44.936,15.84,-13.63,0.71,-0.23,0.27,0.93,-1.98,0.01,-1.41,39.11,17.26,-0.38,0.29,0.61,0.69,-1.63,1.32,-0.32
1900-01-01 11:54:45.011,15.52,-13.66,0.65,-0.23,0.27,0.93,-0.99,-0.27,-1.62,39.18,17.17,-0.44,0.28,0.61,0.69,-1.89,1.27,-0.31
1900-01-01 11:54:45.086,15.13,-13.41,0.56,-0.23,0.26,0.93,-0.24,-0.61,-0.98,38.93,17.55,-0.49,0.29,0.61,0.69,-1.34,0.66,0.28
1900-01-01 11:54:45.156,15.41,-13.81,0.57,-0.24,0.26,0.92,-0.5,-0.16,-0.53,38.97,16.96,-0.46,0.28,0.6,0.69,-1.16,1.47,0.48
1900-01-01 11:54:45.226,16.12,-13.09,0.65,-0.23,0.28,0.93,-0.47,-0.43,-0.95,39.6,17.8,-0.39,0.3,0.62,0.68,-1.42,1.15,-0.12
1900-01-01 11:54:45.341,15.57,-13.22,0.66,-0.23,0.27,0.94,-0.18,-0.53,-1.03,39.57,17.73,-0.42,0.29,0.61,0.68,-0.8,1.13,-0.31
1900-01-01 11:54:45.396,16.01,-13.25,0.66,-0.23,0.27,0.92,0.14,-0.27,-1.4,39.39,17.49,-0.47,0.29,0.61,0.69,-1.51,0.75,-0.32
1900-01-01 11:54:45.466,15.0,-13.35,0.61,-0.23,0.26,0.93,-1.17,-0.29,-0.94,38.7,17.62,-0.53,0.29,0.6,0.69,-1.15,1.06,0.05
1900-01-01 11:54:45.541,16.09,-12.99,0.62,-0.22,0.28,0.93,-1.11,-0.12,-1.12,39.24,17.79,-0.53,0.29,0.61,0.68,-1.86,1.45,-0.27
1900-01-01 11:54:45.626,15.49,-13.54,0.61,-0.23,0.27,0.93,-0.86,-0.18,-1.18,38.7,17.7,-0.58,0.29,0.6,0.69,-1.16,1.02,-0.19
1900-01-01 11:54:45.720,15.58,-13.41,0.59,-0.23,0.27,0.93,-0.69,-0.13,-0.92,39.0,17.65,-0.62,0.29,0.61,0.69,-1.34,1.24,0.11
1900-01-01 11:54:45.767,15.74,-13.14,0.61,-0.23,0.27,0.93,-1.98,0.4,-0.51,38.9,17.66,-0.61,0.29,0.61,0.69,-0.9,1.69,0.08
1900-01-01 11:54:45.860,15.71,-13.45,0.69,-0.23,0.27,0.93,-2.81,1.44,-2.12,38.81,17.39,-0.61,0.29,0.6,0.69,-2.94,2.41,-0.82
1900-01-01 11:54:45.954,15.16,-14.4,0.52,-0.24,0.26,0.92,-3.05,0.52,-2.19,38.11,16.96,-0.74,0.28,0.59,0.7,-2.21,0.76,-0.08
1900-01-01 11:54:46.001,15.11,-13.47,0.35,-0.23,0.26,0.94,-0.11,0.01,-2.08,38.55,17.61,-0.76,0.29,0.6,0.7,-1.64,0.76,-0.54
1900-01-01 11:54:46.095,13.98,-14.17,0.19,-0.24,0.24,0.92,-1.45,0.92,-0.95,38.19,16.97,-0.85,0.28,0.6,0.7,-1.96,2.2,0.15
1900-01-01 11:54:46.141,15.06,-14.41,0.2,-0.25,0.26,0.92,-0.51,-0.06,-1.09,39.1,16.71,-0.84,0.28,0.61,0.7,-0.97,1.14,-0.35
1900-01-01 11:54:46.235,14.41,-14.3,0.19,-0.25,0.25,0.93,-0.44,-0.76,-0.91,39.0,17.0,-0.9,0.28,0.61,0.69,-0.21,0.73,-0.44
1900-01-01 11:54:46.329,14.98,-13.82,0.21,-0.24,0.26,0.94,-0.89,-0.17,-0.69,38.82,17.39,-0.98,0.29,0.61,0.7,-0.99,1.73,-0.14
1900-01-01 11:54:46.376,14.65,-14.37,0.27,-0.24,0.25,0.92,-0.38,-0.39,-0.6,38.81,17.12,-1.01,0.28,0.6,0.69,-1.21,1.04,0.39
1900-01-01 11:54:46.470,15.15,-13.96,0.33,-0.24,0.26,0.93,0.27,-0.62,-0.44,39.3,17.36,-0.96,0.29,0.61,0.69,-0.85,0.92,0.33
1900-01-01 11:54:46.563,14.9,-14.24,0.43,-0.24,0.25,0.93,-0.16,-0.21,-0.89,38.99,16.92,-0.91,0.28,0.61,0.7,-1.21,1.31,-0.11
1900-01-01 11:54:46.610,14.94,-14.21,0.45,-0.24,0.26,0.93,-0.34,-0.16,-1.11,38.87,17.13,-0.94,0.28,0.61,0.7,-1.11,1.29,-0.32
1900-01-01 11:54:46.704,14.98,-13.82,0.44,-0.24,0.26,0.93,-1.18,-0.25,-0.92,38.71,17.45,-1.0,0.29,0.6,0.69,-1.17,1.25,-0.01
1900-01-01 11:54:46.751,15.19,-14.19,0.46,-0.24,0.26,0.93,-1.26,0.0,-1.05,38.96,17.13,-1.01,0.28,0.6,0.69,-1.35,1.44,-0.03
1900-01-01 11:54:46.836,15.08,-14.06,0.45,-0.24,0.26,0.93,-0.48,-0.35,-0.92,38.93,17.21,-1.02,0.29,0.61,0.69,-1.08,1.02,0.09
1900-01-01 11:54:46.911,14.82,-14.08,0.47,-0.24,0.25,0.93,-0.28,-0.03,-1.22,38.84,17.28,-1.01,0.29,0.6,0.69,-1.18,1.36,-0.33
1900-01-01 11:54:46.990,14.6,-14.32,0.44,-0.24,0.25,0.93,-0.64,-0.26,-0.82,38.8,17.12,-1.07,0.28,0.6,0.7,-1.16,1.15,0.13
1900-01-01 11:54:47.070,14.61,-14.33,0.48,-0.25,0.25,0.93,-0.4,-0.26,-0.93,38.69,17.11,-1.06,0.28,0.6,0.7,-1.08,1.23,-0.02
1900-01-01 11:54:47.150,15.08,-14.21,0.49,-0.24,0.26,0.93,-0.8,-0.35,-0.77,38.63,17.24,-1.07,0.29,0.6,0.7,-1.25,1.14,0.12
1900-01-01 11:54:47.230,14.94,-14.34,0.54,-0.25,0.26,0.92,-0.78,-0.05,-0.97,38.88,16.98,-1.06,0.28,0.6,0.7,-1.33,1.44,-0.05
1900-01-01 11:54:47.310,15.04,-14.15,0.55,-0.24,0.26,0.93,-0.61,-0.25,-0.98,39.3,17.13,-1.08,0.28,0.61,0.69,-1.6,1.4,0.03
1900-01-01 11:54:47.390,14.69,-14.17,0.56,-0.24,0.25,0.93,-0.47,-0.06,-1.21,38.96,17.23,-1.08,0.29,0.61,0.69,-1.27,1.3,-0.28
1900-01-01 11:54:47.470,14.85,-14.43,0.53,-0.25,0.25,0.92,-0.7,-0.32,-0.69,38.55,17.04,-1.14,0.28,0.6,0.7,-1.21,0.98,0.39
1900-01-01 11:54:47.550,15.12,-14.26,0.58,-0.24,0.26,0.93,0.14,-0.31,-0.8,38.75,17.07,-1.08,0.28,0.6,0.7,-1.47,1.3,0.18
1900-01-01 11:54:47.590,15.18,-14.0,0.62,-0.24,0.26,0.93,0.02,-0.41,-0.88,39.12,17.23,-1.06,0.29,0.61,0.69,-1.2,1.18,0.03
1900-01-01 11:54:47.670,14.71,-14.21,0.64,-0.24,0.25,0.93,-0.68,-0.29,-0.89,38.89,17.16,-1.07,0.29,0.61,0.7,-1.16,1.22,-0.21
1900-01-01 11:54:47.750,14.87,-14.25,0.67,-0.24,0.25,0.93,-1.0,-0.34,-0.87,39.05,17.25,-1.11,0.29,0.61,0.69,-1.08,0.98,0.05
1900-01-01 11:54:47.830,14.96,-13.99,0.69,-0.24,0.26,0.93,-0.63,-0.3,-0.99,38.86,17.33,-1.11,0.29,0.6,0.69,-1.24,1.18,-0.08
1900-01-01 11:54:47.911,14.95,-14.16,0.7,-0.24,0.26,0.93,-0.56,-0.34,-0.96,39.05,17.16,-1.13,0.28,0.61,0.69,-1.27,1.23,-0.04
1900-01-01 11:54:47.990,14.74,-14.29,0.71,-0.24,0.25,0.93,-0.82,-0.34,-0.87,38.96,17.43,-1.15,0.29,0.61,0.69,-1.14,1.21,0.1
1900-01-01 11:54:48.070,15.09,-14.0,0.73,-0.24,0.26,0.93,-0.69,-0.34,-0.96,39.11,17.35,-1.14,0.29,0.61,0.69,-1.21,1.07,0.06
1900-01-01 11:54:48.150,15.09,-14.33,0.75,-0.24,0.26,0.92,-0.79,-0.24,-1.06,38.74,17.39,-1.14,0.29,0.6,0.69,-1.42,0.93,0.23
1900-01-01 11:54:48.230,14.99,-13.97,0.74,-0.24,0.26,0.93,-0.36,-0.29,-0.92,38.82,17.42,-1.11,0.29,0.6,0.69,-1.62,1.27,0.18
1900-01-01 11:54:48.310,15.05,-14.14,0.76,-0.24,0.26,0.93,-0.98,-0.02,-0.97,39.07,17.42,-1.09,0.29,0.61,0.69,-1.55,1.44,0.12
1900-01-01 11:54:48.350,15.01,-14.07,0.77,-0.24,0.26,0.93,-0.63,-0.47,-0.83,38.88,17.27,-1.08,0.29,0.6,0.69,-1.02,1.01,0.13
1900-01-01 11:54:48.430,14.9,-14.17,0.8,-0.24,0.26,0.93,-0.5,-0.24,-0.92,38.82,17.18,-1.07,0.28,0.6,0.7,-1.16,1.24,-0.08
1900-01-01 11:54:48.510,15.04,-14.08,0.82,-0.24,0.26,0.93,-0.53,-0.44,-0.8,39.03,17.22,-1.09,0.29,0.61,0.69,-1.19,1.16,0.11
1900-01-01 11:54:48.590,14.42,-14.07,0.86,-0.24,0.25,0.93,-0.45,-0.26,-1.04,38.96,17.5,-1.08,0.29,0.61,0.69,-1.24,1.11,-0.02
1900-01-01 11:54:48.670,14.98,-14.17,0.86,-0.24,0.26,0.92,-0.69,-0.11,-0.99,39.17,17.14,-1.1,0.28,0.61,0.69,-1.44,1.42,-0.11
1900-01-01 11:54:48.762,14.88,-13.98,0.86,-0.24,0.26,0.93,-0.77,-0.34,-0.89,38.88,17.4,-1.12,0.29,0.61,0.69,-1.47,1.27,0.07
1900-01-01 11:54:48.809,15.23,-14.09,0.89,-0.24,0.26,0.93,-0.64,-0.27,-0.96,38.98,17.42,-1.12,0.29,0.6,0.69,-1.33,1.15,0.08
1900-01-01 11:54:48.902,15.03,-14.28,0.9,-0.24,0.26,0.93,-0.18,-0.4,-0.79,39.2,17.45,-1.11,0.29,0.61,0.69,-1.04,1.09,0.13
1900-01-01 11:54:48.995,15.05,-14.01,0.93,-0.24,0.26,0.93,-0.07,-0.47,-0.75,39.43,17.1,-1.1,0.28,0.61,0.69,-1.08,0.98,0.21
1900-01-01 11:54:49.042,14.79,-14.4,0.98,-0.25,0.25,0.92,-0.32,-0.11,-1.05,39.37,17.08,-1.08,0.28,0.61,0.69,-1.15,1.35,-0.07
1900-01-01 11:54:49.136,14.68,-14.11,0.98,-0.24,0.25,0.93,-0.36,-0.69,-0.69,39.25,17.37,-1.1,0.29,0.61,0.69,-0.76,0.76,0.18
1900-01-01 11:54:49.230,15.42,-13.93,1.03,-0.24,0.26,0.93,-0.89,0.02,-1.08,39.17,17.43,-1.08,0.29,0.61,0.69,-1.6,1.38,0.03
1900-01-01 11:54:49.277,15.09,-14.0,1.03,-0.24,0.26,0.93,-0.54,-0.25,-0.87,39.09,17.45,-1.08,0.29,0.61,0.69,-1.11,1.31,-0.22
1900-01-01 11:54:49.369,14.76,-13.96,1.05,-0.24,0.25,0.93,-1.07,-0.02,-1.05,39.0,17.53,-1.13,0.29,0.61,0.69,-1.27,1.38,-0.18
1900-01-01 11:54:49.464,14.95,-14.18,1.05,-0.24,0.26,0.93,-0.79,-0.2,-0.92,39.05,17.35,-1.16,0.29,0.61,0.69,-1.26,1.33,-0.08
1900-01-01 11:54:49.511,14.95,-14.15,1.07,-0.24,0.26,0.93,-0.78,-0.13,-0.91,38.89,17.25,-1.18,0.29,0.61,0.69,-1.05,1.24,0.03
1900-01-01 11:54:49.605,14.96,-14.04,1.09,-0.24,0.26,0.93,-0.63,-0.21,-0.98,38.65,17.18,-1.19,0.28,0.6,0.7,-1.4,1.4,-0.06
1900-01-01 11:54:49.651,15.13,-14.02,1.1,-0.24,0.26,0.93,-1.09,-0.07,-1.02,38.67,17.28,-1.21,0.28,0.6,0.69,-1.18,1.43,-0.13
1900-01-01 11:54:49.743,15.05,-14.12,1.1,-0.24,0.26,0.93,-0.93,-0.38,-0.81,38.6,17.55,-1.23,0.29,0.6,0.69,-1.13,1.08,0.1
1900-01-01 11:54:49.836,15.19,-14.03,1.13,-0.24,0.26,0.93,-0.73,-0.21,-0.89,39.02,17.45,-1.23,0.29,0.6,0.69,-1.31,1.48,-0.09
1900-01-01 11:54:49.884,15.2,-14.21,1.16,-0.24,0.26,0.93,-0.14,-0.24,-0.91,39.3,17.5,-1.25,0.29,0.61,0.69,-1.05,1.21,-0.03
1900-01-01 11:54:49.977,15.2,-14.29,1.18,-0.24,0.26,0.92,-0.77,-0.2,-1.03,39.16,17.2,-1.26,0.28,0.61,0.69,-1.24,1.04,-0.05
1900-01-01 11:54:50.070,15.15,-14.07,1.18,-0.24,0.26,0.93,-0.67,-0.08,-1.05,39.08,17.11,-1.28,0.28,0.61,0.69,-1.44,1.27,-0.06
1900-01-01 11:54:50.118,14.84,-13.97,1.18,-0.24,0.25,0.93,-0.79,-0.08,-0.96,39.22,17.15,-1.3,0.28,0.61,0.69,-1.39,1.42,-0.07
1900-01-01 11:54:50.211,15.05,-13.91,1.19,-0.24,0.26,0.93,-0.69,-0.27,-1.05,39.33,17.49,-1.32,0.29,0.61,0.69,-1.26,1.47,-0.25
1900-01-01 11:54:50.258,15.11,-14.08,1.18,-0.24,0.26,0.93,-1.06,-0.25,-0.99,38.73,17.4,-1.36,0.29,0.6,0.69,-1.26,1.16,-0.32
1900-01-01 11:54:50.352,15.17,-13.95,1.19,-0.24,0.26,0.93,-0.98,-0.22,-1.02,38.58,17.31,-1.42,0.29,0.6,0.7,-1.11,1.34,-0.31
1900-01-01 11:54:50.444,15.11,-14.11,1.19,-0.24,0.26,0.93,-1.08,-0.27,-0.76,38.63,17.37,-1.48,0.29,0.6,0.7,-1.34,1.38,-0.02
1900-01-01 11:54:50.491,15.21,-13.97,1.23,-0.24,0.26,0.93,-0.63,-0.34,-0.88,38.73,17.69,-1.49,0.29,0.6,0.69,-1.3,1.12,0.09
1900-01-01 11:54:50.584,15.07,-14.14,1.26,-0.24,0.26,0.93,-0.34,-0.34,-0.87,39.13,17.32,-1.48,0.29,0.61,0.69,-1.04,1.07,-0.07
1900-01-01 11:54:50.678,14.89,-13.92,1.28,-0.24,0.26,0.93,-0.88,-0.42,-0.73,38.65,17.55,-1.5,0.29,0.6,0.69,-1.02,1.02,0.09
1900-01-01 11:54:50.725,15.24,-14.08,1.33,-0.24,0.26,0.93,-0.54,-0.24,-1.08,39.04,17.33,-1.5,0.29,0.61,0.69,-1.44,1.53,-0.39
1900-01-01 11:54:50.819,15.23,-14.04,1.33,-0.24,0.26,0.93,-0.5,-0.5,-0.92,39.46,17.45,-1.56,0.29,0.61,0.69,-0.8,0.66,-0.09
1900-01-01 11:54:50.912,14.96,-14.13,1.34,-0.24,0.26,0.93,-0.74,-0.12,-1.08,39.16,17.14,-1.59,0.28,0.61,0.69,-1.26,1.34,-0.21
1900-01-01 11:54:50.960,15.04,-13.99,1.34,-0.24,0.26,0.93,-0.92,-0.32,-0.98,38.9,17.35,-1.63,0.29,0.61,0.69,-1.38,1.17,-0.14
1900-01-01 11:54:51.053,15.3,-13.94,1.35,-0.24,0.26,0.93,-1.06,-0.08,-1.05,39.12,17.53,-1.66,0.29,0.61,0.69,-1.4,1.34,-0.05
1900-01-01 11:54:51.099,14.92,-14.08,1.34,-0.24,0.26,0.93,-0.65,-0.38,-0.86,38.98,17.33,-1.67,0.29,0.61,0.69,-1.19,1.05,-0.04
1900-01-01 11:54:51.192,15.05,-14.15,1.37,-0.24,0.26,0.92,-0.61,-0.11,-1.08,38.95,17.05,-1.69,0.28,0.61,0.7,-1.48,1.44,-0.09
1900-01-01 11:54:51.284,14.95,-14.15,1.37,-0.24,0.26,0.93,-0.44,-0.3,-0.94,39.12,17.29,-1.71,0.29,0.61,0.69,-1.22,1.19,0.02
1900-01-01 11:54:51.331,15.07,-13.98,1.38,-0.24,0.26,0.93,-0.6,-0.25,-0.92,39.13,17.4,-1.71,0.29,0.61,0.69,-1.52,1.34,-0.03
1900-01-01 11:54:51.425,15.17,-14.07,1.4,-0.24,0.26,0.93,-0.72,-0.27,-0.96,39.16,17.21,-1.73,0.29,0.61,0.69,-1.11,1.17,-0.08
1900-01-01 11:54:51.519,15.01,-13.89,1.41,-0.24,0.26,0.93,-0.55,-0.39,-0.79,39.11,17.37,-1.75,0.29,0.61,0.69,-1.19,0.84,0.11
1900-01-01 11:54:51.565,15.19,-14.03,1.45,-0.24,0.26,0.93,-0.49,-0.15,-0.92,38.94,17.26,-1.74,0.29,0.6,0.69,-1.15,1.23,0.15
1900-01-01 11:54:51.658,15.12,-14.1,1.47,-0.24,0.26,0.93,-0.41,-0.24,-0.95,39.25,17.26,-1.72,0.29,0.61,0.69,-1.4,1.3,-0.01
1900-01-01 11:54:51.752,15.16,-13.96,1.48,-0.24,0.26,0.93,-0.52,-0.27,-0.99,39.14,17.48,-1.73,0.29,0.61,0.69,-1.28,1.29,-0.16
1900-01-01 11:54:51.799,14.82,-14.28,1.49,-0.24,0.25,0.92,-0.31,-0.61,-0.72,38.64,17.38,-1.76,0.29,0.6,0.69,-0.79,0.57,0.22
1900-01-01 11:54:51.892,15.42,-13.78,1.53,-0.24,0.27,0.93,-0.5,-0.02,-1.05,39.08,17.35,-1.74,0.29,0.61,0.69,-1.34,1.56,-0.27
1900-01-01 11:54:51.938,15.06,-13.9,1.53,-0.24,0.26,0.93,-0.78,-0.42,-0.86,38.85,17.65,-1.79,0.29,0.6,0.69,-1.34,1.11,-0.02
1900-01-01 11:54:52.032,15.35,-13.91,1.56,-0.24,0.26,0.93,-0.83,-0.17,-0.92,39.13,17.55,-1.8,0.29,0.61,0.69,-1.4,1.4,-0.03
1900-01-01 11:54:52.125,15.12,-14.26,1.58,-0.24,0.26,0.93,-0.79,-0.22,-0.8,39.07,17.05,-1.81,0.28,0.61,0.69,-1.11,1.27,-0.08
1900-01-01 11:54:52.171,15.03,-13.57,1.61,-0.23,0.26,0.93,-0.85,-0.37,-0.69,38.94,17.79,-1.83,0.29,0.6,0.69,-0.85,1.37,-0.11
1900-01-01 11:54:52.265,15.26,-13.94,1.67,-0.24,0.26,0.93,-0.58,-0.34,-0.92,38.88,17.59,-1.86,0.29,0.6,0.69,-1.22,1.18,-0.12
1900-01-01 11:54:52.359,15.4,-13.79,1.69,-0.24,0.26,0.93,-0.75,-0.26,-0.82,39.09,17.45,-1.89,0.29,0.61,0.69,-1.18,1.34,-0.05
1900-01-01 11:54:52.406,15.22,-13.8,1.72,-0.24,0.26,0.93,-0.61,-0.16,-0.93,39.04,17.43,-1.9,0.29,0.61,0.69,-1.24,1.42,-0.13
1900-01-01 11:54:52.500,15.26,-13.96,1.73,-0.24,0.26,0.93,-0.82,-0.22,-0.9,39.08,17.38,-1.93,0.29,0.61,0.69,-1.2,1.24,-0.04
1900-01-01 11:54:52.595,15.28,-13.83,1.75,-0.24,0.26,0.93,-0.85,-0.23,-1.02,38.98,17.55,-1.95,0.29,0.61,0.69,-1.33,1.26,-0.13
1900-01-01 11:54:52.641,15.18,-14.01,1.76,-0.24,0.26,0.93,-0.94,-0.09,-0.94,39.0,17.29,-1.97,0.29,0.61,0.69,-1.44,1.28,0.1
1900-01-01 11:54:52.736,15.25,-13.89,1.77,-0.24,0.26,0.93,-0.62,-0.28,-0.88,39.12,17.54,-1.97,0.29,0.61,0.69,-1.31,1.27,0.0
1900-01-01 11:54:52.783,15.03,-14.42,1.8,-0.25,0.26,0.92,-0.64,-0.38,-0.81,39.15,17.28,-1.98,0.29,0.61,0.69,-1.07,1.02,0.09
1900-01-01 11:54:52.876,15.12,-13.82,1.83,-0.24,0.26,0.93,-0.63,-0.02,-1.06,38.85,17.48,-1.97,0.29,0.6,0.69,-1.3,1.56,-0.26
1900-01-01 11:54:52.970,15.28,-13.87,1.83,-0.24,0.26,0.93,-0.28,-0.42,-1.14,39.17,17.55,-2.02,0.29,0.61,0.69,-1.21,0.99,-0.17
1900-01-01 11:54:53.018,14.85,-14.15,1.81,-0.24,0.25,0.93,-1.08,-0.1,-0.95,38.9,17.41,-2.05,0.29,0.61,0.69,-1.34,1.32,0.13
1900-01-01 11:54:53.112,15.14,-14.12,1.83,-0.24,0.26,0.93,-0.39,-0.37,-0.94,39.24,17.32,-2.04,0.29,0.61,0.69,-1.31,1.17,0.01
1900-01-01 11:54:53.160,15.09,-14.03,1.84,-0.24,0.26,0.92,-0.63,-0.03,-1.03,39.2,17.12,-2.05,0.28,0.61,0.69,-1.21,1.47,-0.14
1900-01-01 11:54:53.253,15.1,-14.0,1.84,-0.24,0.26,0.93,-0.51,-0.28,-1.04,39.14,17.38,-2.08,0.29,0.61,0.69,-1.12,1.17,-0.15
1900-01-01 11:54:53.347,15.05,-14.02,1.84,-0.24,0.26,0.93,-0.88,-0.18,-0.91,38.78,17.43,-2.11,0.29,0.6,0.69,-1.35,1.31,-0.04
1900-01-01 11:54:53.393,15.24,-14.0,1.86,-0.24,0.26,0.92,-0.61,-0.31,-0.87,38.68,17.4,-2.12,0.29,0.6,0.7,-1.13,1.06,0.15
1900-01-01 11:54:53.486,15.28,-13.97,1.89,-0.24,0.26,0.93,-0.51,-0.21,-0.83,38.93,17.41,-2.11,0.29,0.61,0.69,-1.3,1.31,0.19
1900-01-01 11:54:53.580,15.02,-13.89,1.92,-0.24,0.26,0.93,-0.26,-0.36,-0.89,39.18,17.43,-2.09,0.29,0.61,0.69,-1.26,1.22,-0.05
1900-01-01 11:54:53.626,15.08,-13.94,1.94,-0.24,0.26,0.93,-0.68,-0.25,-0.86,39.1,17.4,-2.11,0.29,0.61,0.69,-1.14,1.28,-0.08
1900-01-01 11:54:53.719,15.25,-13.91,1.97,-0.24,0.26,0.93,-0.49,-0.36,-0.79,38.61,17.6,-2.13,0.29,0.6,0.7,-1.22,0.95,0.12
1900-01-01 11:54:53.812,15.35,-13.93,2.01,-0.24,0.26,0.93,-0.34,-0.47,-0.79,38.86,17.49,-2.12,0.29,0.6,0.69,-1.03,1.07,-0.01
1900-01-01 11:54:53.859,15.35,-13.78,2.05,-0.24,0.26,0.93,-0.8,-0.28,-0.82,38.85,17.49,-2.13,0.29,0.61,0.69,-1.06,1.05,-0.05
1900-01-01 11:54:53.953,15.01,-14.29,2.08,-0.24,0.26,0.92,-0.9,-0.59,-0.45,38.42,17.53,-2.14,0.29,0.6,0.7,-1.1,0.69,0.79
1900-01-01 11:54:53.999,15.68,-13.8,2.17,-0.24,0.27,0.93,-0.24,-0.14,-0.89,39.11,17.5,-2.03,0.29,0.61,0.69,-1.93,1.56,0.29
1900-01-01 11:54:54.093,15.09,-14.23,2.19,-0.24,0.26,0.92,0.03,-0.53,-1.05,39.48,17.26,-2.0,0.29,0.61,0.69,-0.73,0.9,-0.31
1900-01-01 11:54:54.187,12.54,-14.72,2.19,-0.25,0.22,0.94,4.32,1.31,-0.08,40.09,15.85,-2.05,0.27,0.64,0.71,1.75,0.98,0.27
1900-01-01 11:54:54.234,22.84,-16.85,2.34,-0.28,0.38,0.85,22.23,-3.12,5.4,37.69,10.36,-2.02,0.2,0.67,0.85,15.13,-28.3,14.98
1900-01-01 11:54:54.326,13.78,-11.46,3.32,-0.21,0.25,0.99,4.03,-10.78,7.55,34.0,31.47,0.27,0.51,0.55,0.63,-0.33,-30.18,-0.95
1900-01-01 11:54:54.421,12.92,-9.58,4.64,-0.18,0.24,1.04,-12.24,-15.86,-5.29,27.76,34.18,0.11,0.56,0.47,0.68,-34.83,-16.62,0.11
1900-01-01 11:54:54.467,17.35,-7.3,3.98,-0.13,0.3,0.95,-19.65,-17.81,-18.2,26.1,38.75,0.12,0.53,0.37,0.54,-75.7,-11.4,16.44
1900-01-01 11:54:54.562,15.1,-5.18,1.34,-0.08,0.23,0.87,-20.51,-12.27,-18.08,13.48,37.29,2.65,0.52,0.2,0.65,-70.21,0.63,-1.2
1900-01-01 11:54:54.609,14.3,-3.14,-1.28,-0.05,0.24,0.93,-3.15,-12.0,-12.28,16.23,31.23,2.45,0.47,0.26,0.74,-29.58,12.73,-18.32
1900-01-01 11:54:54.703,14.78,-3.77,-3.02,-0.07,0.25,0.96,-6.06,-2.23,-12.3,11.35,30.2,-0.38,0.5,0.19,0.83,-13.53,-0.54,-0.5
1900-01-01 11:54:54.794,14.55,-6.52,-4.75,-0.12,0.26,1.0,-0.4,-4.03,-8.09,12.63,25.83,-0.47,0.45,0.22,0.9,-5.34,-1.05,-0.67
1900-01-01 11:54:54.841,10.38,-6.64,-5.83,-0.12,0.18,1.0,-1.33,-4.47,-7.07,10.25,29.4,-0.58,0.49,0.18,0.85,1.99,-13.22,0.86
1900-01-01 11:54:54.935,11.64,-6.13,-6.75,-0.1,0.19,0.93,-1.07,-0.98,-3.02,14.48,28.38,-0.45,0.44,0.23,0.79,-7.55,-4.82,8.92
1900-01-01 11:54:55.029,7.11,-5.71,-7.06,-0.1,0.13,1.01,-3.11,-1.16,-0.57,9.46,32.71,0.9,0.55,0.17,0.83,0.34,0.23,1.52
1900-01-01 11:54:55.076,7.93,-5.89,-6.98,-0.1,0.14,0.98,-2.09,-0.84,-0.44,8.3,33.37,1.12,0.53,0.14,0.8,1.43,2.82,1.52
1900-01-01 11:54:55.170,7.49,-3.82,-6.89,-0.06,0.12,0.93,-0.92,-2.4,-0.66,8.78,32.89,1.34,0.5,0.14,0.76,1.86,-0.93,1.79
1900-01-01 11:54:55.265,8.87,-4.31,-6.83,-0.08,0.16,0.99,-0.8,-3.34,0.75,9.6,33.73,1.6,0.54,0.16,0.8,2.89,-4.05,2.3
1900-01-01 11:54:55.312,9.7,-4.06,-6.56,-0.07,0.17,1.0,-4.92,-0.99,-1.86,9.4,34.71,1.94,0.56,0.16,0.79,-6.59,-0.68,2.63
1900-01-01 11:54:55.407,9.45,-3.06,-6.69,-0.06,0.17,1.03,0.18,-0.74,-2.62,10.62,35.96,2.33,0.59,0.18,0.79,-1.53,-1.43,-1.59
1900-01-01 11:54:55.454,7.08,-2.06,-6.93,-0.04,0.12,1.0,0.62,0.06,-2.48,9.19,36.96,2.08,0.59,0.16,0.76,0.32,-0.74,-2.45
1900-01-01 11:54:55.548,7.54,-3.85,-7.14,-0.07,0.13,0.99,0.31,-0.45,-2.6,8.48,35.2,1.7,0.57,0.15,0.8,-1.18,-0.08,-2.92
1900-01-01 11:54:55.642,9.66,-4.79,-7.38,-0.08,0.17,0.99,4.96,-1.6,-1.37,11.24,35.08,1.25,0.57,0.19,0.78,2.25,-0.13,-4.88
1900-01-01 11:54:55.689,8.13,-2.09,-7.43,-0.04,0.15,1.02,2.53,-0.96,-0.26,10.93,36.58,0.5,0.59,0.19,0.78,1.11,0.26,-1.22
1900-01-01 11:54:55.783,7.25,-4.54,-7.31,-0.08,0.13,1.01,-8.54,2.89,-0.98,10.49,35.18,0.31,0.57,0.18,0.8,-5.08,1.53,6.02
1900-01-01 11:54:55.830,7.49,-4.36,-7.3,-0.08,0.13,1.02,-3.11,0.27,-0.23,10.38,35.26,1.21,0.6,0.19,0.82,-0.09,2.23,3.4
1900-01-01 11:54:55.924,7.65,-3.62,-7.18,-0.06,0.13,0.99,0.12,-0.85,0.99,10.71,35.24,1.72,0.58,0.19,0.81,4.67,-3.03,5.39
1900-01-01 11:54:56.019,9.22,-3.12,-6.87,-0.05,0.16,0.98,-2.01,-1.44,0.11,11.08,35.66,2.53,0.58,0.19,0.79,1.23,-2.53,4.63
1900-01-01 11:54:56.065,8.54,-3.88,-6.69,-0.07,0.15,1.0,-1.81,-4.4,2.73,10.46,36.47,3.22,0.61,0.19,0.8,1.31,-7.67,4.54
1900-01-01 11:54:56.159,9.2,-1.84,-6.12,-0.03,0.16,1.0,-3.56,-6.6,3.92,10.42,40.59,3.9,0.66,0.18,0.75,3.59,-11.6,9.89
1900-01-01 11:54:56.206,8.83,0.62,-5.37,0.01,0.16,1.0,-2.11,-8.71,4.92,10.81,43.71,5.39,0.68,0.18,0.69,2.95,-8.04,6.2
1900-01-01 11:54:56.300,9.21,1.79,-4.46,0.03,0.16,1.0,-1.95,-7.35,4.48,11.59,44.67,6.32,0.71,0.2,0.69,5.4,-11.89,8.87
1900-01-01 11:54:56.394,9.15,1.8,-3.62,0.03,0.16,0.97,-0.19,-7.97,5.32,12.36,45.66,7.66,0.69,0.21,0.64,4.25,-9.65,4.47
1900-01-01 11:54:56.441,9.49,2.51,-2.66,0.04,0.16,0.93,1.7,-5.63,4.87,10.09,47.49,8.33,0.66,0.16,0.58,3.93,-4.06,-0.82
1900-01-01 11:54:56.534,7.99,1.9,-1.76,0.03,0.13,0.95,1.34,-0.72,3.85,8.87,47.76,8.2,0.7,0.15,0.62,2.82,-0.8,0.35
1900-01-01 11:54:56.581,6.3,1.96,-1.02,0.03,0.11,1.0,2.12,0.72,2.67,8.65,47.11,8.24,0.73,0.15,0.66,1.72,1.85,1.57
1900-01-01 11:54:56.675,4.24,1.22,-0.46,0.02,0.08,1.04,1.23,-2.16,-1.39,4.83,47.22,8.47,0.77,0.09,0.71,2.53,2.55,2.11
1900-01-01 11:54:56.769,8.92,2.5,-0.51,0.04,0.16,1.02,1.05,-1.85,-3.24,9.71,47.26,8.78,0.73,0.17,0.65,-1.56,4.31,-0.46
1900-01-01 11:54:56.817,7.9,2.59,-0.85,0.04,0.14,0.98,0.82,-0.84,-5.31,9.87,47.53,8.7,0.72,0.17,0.64,-0.55,2.06,-7.45
1900-01-01 11:54:56.909,10.14,3.77,-1.49,0.07,0.18,0.98,3.61,-2.02,-6.43,12.84,46.75,7.56,0.71,0.22,0.63,-0.7,1.42,-8.29
1900-01-01 11:54:57.003,10.63,4.12,-2.31,0.07,0.19,0.99,3.48,-0.02,-4.78,14.88,47.03,6.29,0.72,0.25,0.62,-1.9,1.97,-4.85
1900-01-01 11:54:57.051,11.04,3.39,-2.88,0.06,0.2,1.0,-0.27,1.46,-3.05,14.06,45.79,5.54,0.74,0.25,0.67,-2.27,3.86,-0.56
1900-01-01 11:54:57.144,12.05,2.89,-3.19,0.05,0.21,0.98,0.91,0.4,-1.83,15.16,45.24,5.45,0.69,0.25,0.64,-0.86,2.76,-3.0
1900-01-01 11:54:57.191,10.86,2.37,-3.31,0.04,0.18,0.96,-0.46,2.68,-1.93,13.32,45.36,4.99,0.67,0.22,0.63,-1.77,2.97,-0.32
1900-01-01 11:54:57.285,10.49,1.94,-3.44,0.03,0.18,0.98,1.3,3.68,-2.89,12.73,45.68,4.93,0.69,0.21,0.64,-0.58,4.68,-1.76
1900-01-01 11:54:57.378,10.14,1.94,-3.72,0.03,0.18,1.01,1.02,3.79,-3.09,12.29,45.03,4.65,0.72,0.22,0.69,-0.16,5.41,-2.36
1900-01-01 11:54:57.424,12.24,0.72,-4.03,0.01,0.22,1.02,1.53,1.73,-2.38,14.55,43.37,4.29,0.71,0.26,0.7,-0.86,5.31,-2.04
1900-01-01 11:54:57.520,12.05,1.24,-4.24,0.02,0.21,1.0,1.27,-0.17,-1.68,14.75,43.6,3.97,0.7,0.26,0.68,-2.33,3.72,-1.34
1900-01-01 11:54:57.567,12.74,0.74,-4.33,0.01,0.22,0.99,1.08,-0.77,-1.22,15.98,41.98,3.76,0.67,0.27,0.69,-0.47,2.05,-1.39
1900-01-01 11:54:57.662,11.29,0.81,-4.36,0.01,0.2,1.02,0.26,-1.29,-0.15,14.56,43.01,3.54,0.73,0.27,0.73,0.48,-0.53,0.46
1900-01-01 11:54:57.754,13.49,2.8,-4.22,0.05,0.24,0.99,-2.93,-4.27,1.57,15.93,42.64,3.6,0.68,0.28,0.69,-0.73,-4.39,5.06
1900-01-01 11:54:57.801,12.72,2.32,-3.83,0.04,0.22,0.97,-1.56,-4.35,2.49,15.3,44.37,4.36,0.68,0.26,0.65,1.01,-6.1,2.63
1900-01-01 11:54:57.894,11.75,2.6,-3.29,0.04,0.2,0.95,-1.95,-3.57,2.05,12.78,47.35,4.75,0.68,0.2,0.59,0.24,-1.15,0.09
1900-01-01 11:54:57.989,10.66,1.61,-2.82,0.03,0.18,0.96,-0.24,0.23,-1.09,12.64,45.25,4.75,0.69,0.21,0.65,0.34,0.99,-1.02
1900-01-01 11:54:58.036,11.78,3.01,-2.83,0.05,0.21,1.0,0.62,-0.47,-1.9,15.46,45.66,4.59,0.71,0.27,0.65,-1.21,2.18,-0.46
1900-01-01 11:54:58.130,12.0,3.4,-2.96,0.06,0.21,0.99,-0.44,0.22,-1.57,15.1,45.53,4.51,0.71,0.26,0.65,-1.93,2.12,-0.05
1900-01-01 11:54:58.177,12.24,2.91,-3.04,0.05,0.21,0.98,0.02,-0.57,-1.02,15.06,45.54,4.5,0.7,0.26,0.64,-0.73,0.81,-0.38
1900-01-01 11:54:58.270,12.06,2.58,-3.04,0.05,0.21,0.99,0.29,-0.45,-0.95,15.09,45.11,4.43,0.71,0.26,0.65,-1.18,1.15,-0.63
1900-01-01 11:54:58.362,12.1,2.59,-3.02,0.05,0.21,0.98,-0.56,-0.31,-1.03,14.83,45.29,4.33,0.7,0.25,0.65,-1.51,1.25,0.11
1900-01-01 11:54:58.409,12.1,2.74,-3.02,0.05,0.21,0.98,-0.5,-0.08,-1.37,14.69,45.27,4.34,0.7,0.25,0.65,-1.27,1.63,-0.46
1900-01-01 11:54:58.502,12.45,2.8,-3.07,0.05,0.22,0.98,0.05,0.26,-1.44,15.39,45.25,4.26,0.7,0.26,0.65,-1.06,1.57,-0.43
1900-01-01 11:54:58.596,12.01,2.57,-3.13,0.05,0.21,0.99,0.36,0.06,-1.15,15.03,45.06,4.18,0.7,0.26,0.65,-1.47,1.82,-0.34
1900-01-01 11:54:58.642,12.41,2.72,-3.14,0.05,0.22,0.99,-0.61,0.11,-1.35,15.21,45.15,4.13,0.71,0.26,0.66,-1.33,1.76,-0.31
1900-01-01 11:54:58.736,12.25,2.68,-3.19,0.05,0.21,0.99,-0.36,-0.29,-1.06,14.79,45.17,4.07,0.71,0.25,0.65,-1.35,1.46,-0.36
1900-01-01 11:54:58.783,12.42,2.61,-3.2,0.05,0.22,0.98,-0.69,-0.26,-1.08,14.77,45.0,4.01,0.7,0.25,0.65,-1.22,1.35,-0.21
1900-01-01 11:54:58.878,12.83,2.79,-3.2,0.05,0.22,0.98,-0.7,-0.4,-0.94,15.07,45.11,3.97,0.7,0.26,0.65,-1.3,1.27,-0.08
1900-01-01 11:54:58.971,12.45,2.79,-3.19,0.05,0.22,0.98,-0.43,-0.54,-0.69,14.78,45.15,3.95,0.7,0.25,0.65,-1.21,1.15,-0.11
1900-01-01 11:54:59.018,12.51,2.56,-3.13,0.05,0.22,0.99,-0.3,-0.45,-0.73,15.08,45.0,3.92,0.7,0.26,0.65,-1.27,1.29,0.03
1900-01-01 11:54:59.111,12.6,2.84,-3.09,0.05,0.22,0.98,-0.07,-0.27,-1.08,15.46,44.83,3.92,0.7,0.27,0.65,-1.21,1.21,-0.21
1900-01-01 11:54:59.204,12.54,2.69,-3.09,0.05,0.22,0.98,-0.23,-0.28,-0.95,15.22,45.11,3.88,0.7,0.26,0.65,-0.9,1.06,-0.11
1900-01-01 11:54:59.251,12.07,3.0,-3.08,0.05,0.21,0.99,-0.1,-0.47,-0.72,14.93,45.13,3.85,0.7,0.26,0.65,-1.08,1.21,-0.05
1900-01-01 11:54:59.344,11.93,2.53,-3.03,0.04,0.21,0.98,-1.39,0.08,-1.04,14.27,44.97,3.83,0.7,0.24,0.65,-1.29,2.05,0.4
1900-01-01 11:54:59.392,12.89,2.44,-3.03,0.04,0.22,0.97,0.77,-1.14,-2.11,14.26,45.04,3.89,0.69,0.24,0.65,0.75,0.49,-1.31
1900-01-01 11:54:59.486,12.12,2.54,-3.19,0.04,0.21,0.99,3.16,-1.63,-3.49,15.12,44.96,3.68,0.7,0.26,0.66,-0.46,0.28,-5.31
1900-01-01 11:54:59.578,12.82,2.86,-3.56,0.05,0.23,0.99,2.21,-2.56,-3.6,14.43,44.21,2.86,0.7,0.25,0.68,0.02,-1.79,-2.82
1900-01-01 11:54:59.624,13.81,2.78,-3.95,0.05,0.24,0.96,3.53,-3.59,-4.72,16.52,46.06,2.43,0.68,0.27,0.6,0.06,-1.14,-6.53
1900-01-01 11:54:59.718,13.85,3.78,-4.51,0.07,0.24,0.99,2.6,-0.95,-5.26,18.52,44.7,1.42,0.72,0.32,0.65,0.24,-0.91,-6.86
1900-01-01 11:54:59.810,13.04,3.45,-5.15,0.07,0.25,1.07,2.16,-6.39,-3.71,19.09,46.66,0.37,0.81,0.37,0.68,4.01,-10.98,-5.79
1900-01-01 11:54:59.857,14.97,6.41,-5.56,0.12,0.28,1.03,-13.44,-7.83,1.53,29.04,43.45,-0.52,0.68,0.48,0.53,-2.95,2.78,11.47
1900-01-01 11:54:59.951,14.93,5.74,-5.17,0.09,0.24,0.89,-10.84,-0.66,4.45,16.63,48.49,1.23,0.66,0.25,0.52,-1.44,0.46,7.79
1900-01-01 11:55:00.046,12.43,5.67,-4.33,0.09,0.19,0.87,0.13,0.16,1.28,19.37,48.41,2.4,0.63,0.28,0.48,0.53,2.21,1.97
1900-01-01 11:55:00.094,11.74,8.85,-3.98,0.15,0.2,0.96,-0.15,5.98,-0.12,18.5,50.02,2.69,0.72,0.3,0.53,-3.35,10.46,5.21
1900-01-01 11:55:00.186,10.38,4.82,-3.84,0.09,0.19,1.02,0.21,5.66,-0.04,13.58,45.59,3.48,0.76,0.25,0.7,-1.82,4.25,-0.4
1900-01-01 11:55:00.234,12.21,2.33,-3.69,0.04,0.22,1.02,1.54,0.21,-1.47,16.76,44.72,3.41,0.72,0.3,0.67,-1.25,0.38,-1.7
1900-01-01 11:55:00.329,12.14,1.46,-3.75,0.03,0.22,1.02,-2.08,-0.38,-1.12,14.47,43.29,3.14,0.72,0.26,0.72,-2.85,-2.67,-0.77
1900-01-01 11:55:00.423,12.49,1.37,-3.76,0.02,0.21,0.95,0.56,-3.1,-0.73,17.55,43.72,3.01,0.64,0.28,0.61,-1.12,1.69,-2.92
1900-01-01 11:55:00.469,11.31,1.37,-3.72,0.02,0.18,0.92,1.49,-2.47,2.78,16.01,41.84,2.56,0.6,0.25,0.63,-0.56,3.46,-4.64
1900-01-01 11:55:00.562,14.42,-2.18,-3.14,-0.04,0.25,0.98,-3.76,-3.6,4.41,19.28,38.24,1.85,0.66,0.35,0.75,-1.31,-1.66,1.89
1900-01-01 11:55:00.608,15.35,4.36,-2.31,0.08,0.28,1.0,-4.25,-7.66,10.15,19.67,44.31,2.13,0.73,0.35,0.66,2.76,-8.83,8.36
1900-01-01 11:55:00.702,11.04,11.54,-0.6,0.21,0.2,1.0,-3.99,-8.09,12.04,12.22,55.9,3.39,0.81,0.21,0.51,2.8,-3.32,5.14
1900-01-01 11:55:00.797,6.53,13.62,1.39,0.24,0.11,0.97,2.7,-3.53,3.83,12.56,53.8,4.17,0.77,0.21,0.52,2.31,2.5,-2.58
1900-01-01 11:55:00.843,10.9,9.71,2.13,0.17,0.19,0.98,1.18,-0.33,-0.49,17.37,49.02,3.77,0.76,0.3,0.59,-0.09,1.05,-0.69
1900-01-01 11:55:00.937,13.79,7.84,2.21,0.14,0.24,0.97,1.33,0.19,1.31,20.09,48.62,3.65,0.75,0.34,0.56,-0.24,0.21,1.76
1900-01-01 11:55:01.030,11.92,8.7,2.57,0.15,0.21,0.98,-1.31,1.19,2.16,16.64,49.08,3.91,0.77,0.29,0.6,-1.11,0.48,5.63
1900-01-01 11:55:01.077,11.55,9.0,3.05,0.16,0.2,0.97,1.08,-1.97,1.69,16.81,49.72,4.75,0.76,0.29,0.57,0.95,-2.72,1.24
1900-01-01 11:55:01.171,10.63,12.41,3.47,0.23,0.2,1.02,-0.05,-1.74,1.48,14.22,56.13,4.93,0.86,0.26,0.52,1.72,2.55,-0.87
1900-01-01 11:55:01.219,12.11,9.61,3.85,0.17,0.21,0.98,0.43,0.47,-1.23,15.83,51.73,4.79,0.77,0.27,0.55,0.27,-0.29,0.99
1900-01-01 11:55:01.313,12.84,10.59,3.82,0.19,0.23,1.0,-0.2,0.57,-1.92,15.52,54.33,4.93,0.82,0.27,0.52,0.39,5.08,-2.95
1900-01-01 11:55:01.406,10.07,10.64,3.69,0.18,0.17,0.96,2.43,3.44,-6.9,15.91,51.7,4.48,0.76,0.26,0.54,-1.47,6.02,-7.63
1900-01-01 11:55:01.454,11.43,8.86,2.8,0.15,0.2,0.97,0.34,4.61,-7.05,17.96,46.2,3.31,0.72,0.31,0.62,-1.18,5.52,-4.83
1900-01-01 11:55:01.547,13.9,6.12,1.89,0.11,0.25,1.02,-2.85,1.88,-4.62,18.78,47.46,2.57,0.77,0.34,0.62,-2.47,2.14,-0.94
1900-01-01 11:55:01.595,13.15,6.92,1.35,0.12,0.23,0.98,-0.99,-0.02,-5.51,17.49,47.65,2.42,0.74,0.3,0.6,-4.24,2.63,-4.26
1900-01-01 11:55:01.688,13.8,6.93,0.67,0.12,0.24,0.97,-0.6,0.81,-5.68,17.92,47.29,1.76,0.73,0.31,0.6,-4.69,3.07,-3.4
1900-01-01 11:55:01.781,12.13,6.82,-0.03,0.12,0.21,0.96,-0.47,2.13,-6.64,16.07,48.0,1.23,0.72,0.27,0.59,-2.95,4.79,-4.26
1900-01-01 11:55:01.828,14.01,4.81,-0.88,0.08,0.24,0.98,2.27,1.06,-8.98,18.03,44.15,0.58,0.69,0.31,0.64,-3.47,4.05,-7.78
1900-01-01 11:55:01.921,9.31,3.5,-2.09,0.03,0.08,0.49,7.34,22.12,-6.44,15.95,9.72,-0.61,0.07,0.11,0.39,-9.48,33.22,-4.89
1900-01-01 11:55:02.015,10.74,2.57,-2.91,0.07,0.29,1.52,-9.85,-8.88,2.79,14.5,49.27,-1.36,1.21,0.4,0.96,18.31,4.95,-36.21
1900-01-01 11:55:02.062,17.76,8.15,-2.32,0.16,0.34,1.06,-11.65,-3.82,-2.86,37.82,28.3,-6.91,0.51,0.66,0.68,-0.08,3.34,0.52
1900-01-01 11:55:02.155,20.14,-15.53,-2.6,-0.23,0.29,0.77,-27.16,4.64,15.12,21.59,26.82,-6.84,0.37,0.3,0.67,-2.01,-2.48,28.17
1900-01-01 11:55:02.202,16.15,3.04,-0.12,0.05,0.27,0.93,-10.18,-4.21,15.52,23.68,39.61,-2.52,0.65,0.41,0.67,4.81,-4.59,22.46
1900-01-01 11:55:02.296,9.19,9.86,2.41,0.19,0.18,1.08,-9.87,-4.89,20.55,11.94,49.19,0.91,0.83,0.23,0.68,4.05,-5.84,20.73
1900-01-01 11:55:02.389,0.34,12.13,5.69,0.23,0.01,1.06,-8.02,-7.41,17.12,-4.1,61.69,4.05,0.91,-0.07,0.49,1.81,-3.24,4.25
1900-01-01 11:55:02.436,4.08,9.68,8.45,0.17,0.07,1.02,3.26,-3.69,-0.47,9.93,52.66,4.69,0.77,0.17,0.56,1.69,4.08,-3.92
1900-01-01 11:55:02.516,4.7,14.47,8.54,0.25,0.08,0.98,7.81,-2.04,-8.64,8.75,53.51,4.09,0.8,0.15,0.57,1.53,3.85,-17.89
1900-01-01 11:55:02.610,6.49,12.31,7.39,0.22,0.12,1.02,6.61,-2.49,-12.9,23.5,43.07,1.37,0.69,0.41,0.62,2.34,2.53,-10.82
1900-01-01 11:55:02.704,11.59,6.15,5.59,0.11,0.2,0.96,-1.71,1.5,-6.92,18.54,45.2,-0.29,0.68,0.3,0.6,-3.6,5.42,-4.42
1900-01-01 11:55:02.750,13.64,4.46,4.69,0.08,0.24,0.98,3.72,-1.96,-9.15,28.62,34.08,-0.97,0.58,0.5,0.7,-1.85,-0.89,-4.0
1900-01-01 11:55:02.844,9.53,8.53,3.46,0.14,0.16,0.95,-1.66,2.27,-3.41,17.89,43.97,-1.59,0.68,0.3,0.63,-0.54,1.05,1.16
1900-01-01 11:55:02.891,12.41,7.85,3.1,0.14,0.22,0.99,0.31,-1.66,-1.71,19.9,44.34,-1.42,0.69,0.34,0.62,-1.47,1.68,-2.04
1900-01-01 11:55:02.986,13.45,7.91,3.0,0.14,0.24,0.98,-4.39,-0.5,1.71,18.67,45.25,-1.74,0.71,0.32,0.63,-2.24,0.81,4.83
1900-01-01 11:55:03.079,10.9,9.71,3.41,0.17,0.19,0.97,0.5,-3.79,-1.15,20.14,44.42,-1.01,0.68,0.34,0.61,-3.54,1.82,-1.24
1900-01-01 11:55:03.127,12.12,9.22,3.4,0.16,0.21,0.97,-3.12,-2.39,-0.15,18.29,44.31,-1.21,0.68,0.3,0.62,-7.38,-0.19,1.7
1900-01-01 11:55:03.220,9.87,8.23,3.53,0.14,0.17,0.97,-8.45,0.05,-0.79,21.32,41.77,-0.96,0.69,0.37,0.67,-13.95,-11.44,15.37
1900-01-01 11:55:03.267,9.39,11.23,3.57,0.19,0.16,0.92,-7.71,3.11,4.34,14.14,47.11,1.38,0.68,0.23,0.59,-14.19,1.15,13.59
1900-01-01 11:55:03.361,2.63,10.16,4.39,0.17,0.04,0.96,9.19,0.76,-8.22,6.89,49.96,3.44,0.71,0.11,0.59,12.19,0.84,-10.82
1900-01-01 11:55:03.454,6.51,9.65,3.3,0.17,0.11,0.97,-6.28,7.53,-10.08,1.49,50.34,1.79,0.7,0.02,0.58,-6.02,14.61,-1.82
1900-01-01 11:55:03.502,11.58,4.36,1.93,0.08,0.21,1.01,16.4,4.45,-13.87,20.07,41.67,1.5,0.7,0.36,0.69,0.2,15.21,-15.88
1900-01-01 11:55:03.597,14.15,8.56,-0.03,0.16,0.26,1.0,3.3,8.92,-8.85,16.74,44.14,-0.93,0.7,0.29,0.66,-3.47,13.44,-11.34
1900-01-01 11:55:03.644,18.95,2.3,-1.22,0.05,0.38,1.11,-0.8,2.02,-1.28,16.47,42.62,-2.67,0.83,0.35,0.84,-2.12,-1.59,2.94
1900-01-01 11:55:03.738,12.38,1.97,-1.26,0.04,0.22,1.01,9.0,-7.37,5.42,17.6,36.72,-2.23,0.68,0.34,0.85,6.94,-11.1,-1.5
1900-01-01 11:55:03.831,15.44,7.84,-0.27,0.14,0.28,1.0,-1.57,-15.91,9.12,17.5,45.29,-2.46,0.69,0.29,0.62,3.78,-16.2,2.95
1900-01-01 11:55:03.879,11.35,11.24,1.28,0.18,0.19,0.91,-2.32,-8.11,7.66,18.41,45.79,-2.02,0.67,0.3,0.58,2.54,-12.01,2.68
1900-01-01 11:55:03.972,10.7,13.08,2.61,0.23,0.19,0.97,2.18,-11.15,2.75,20.0,47.79,-1.62,0.74,0.34,0.58,5.34,-17.57,-5.25
1900-01-01 11:55:04.065,15.69,16.14,3.19,0.28,0.27,0.92,-8.4,-0.78,10.91,26.71,48.72,-2.43,0.69,0.41,0.44,-2.31,-4.84,-0.35
1900-01-01 11:55:04.112,7.49,13.09,5.02,0.23,0.13,0.97,-5.28,0.58,9.98,16.6,54.58,-2.49,0.78,0.27,0.48,-5.36,-0.97,8.17
1900-01-01 11:55:04.205,8.09,10.72,6.69,0.19,0.14,0.99,-14.74,3.63,7.25,9.75,51.91,-1.26,0.8,0.17,0.6,-7.34,4.74,16.99
1900-01-01 11:55:04.298,8.64,9.41,7.95,0.16,0.15,0.96,-1.3,-3.59,-0.19,13.5,48.76,1.31,0.73,0.23,0.59,-1.55,7.11,0.73
1900-01-01 11:55:04.346,7.07,10.47,8.08,0.17,0.12,0.92,7.44,-7.25,-5.1,6.13,48.66,1.41,0.7,0.1,0.61,5.38,3.83,-9.82
1900-01-01 11:55:04.442,9.77,12.7,7.47,0.21,0.16,0.93,12.65,-10.41,-8.54,19.61,49.53,-0.08,0.7,0.31,0.51,7.02,1.54,-11.5
1900-01-01 11:55:04.488,14.66,13.93,6.32,0.24,0.26,0.95,5.27,-2.92,-6.16,23.56,47.58,-1.85,0.7,0.38,0.52,-0.38,2.79,-6.3
1900-01-01 11:55:04.581,11.54,15.18,5.54,0.28,0.21,1.01,-3.19,9.01,-4.76,15.12,51.8,-2.82,0.78,0.26,0.56,-5.63,8.93,0.36
1900-01-01 11:55:04.674,12.81,11.39,4.97,0.21,0.23,1.0,-0.02,10.32,-4.75,19.1,47.24,-2.77,0.77,0.34,0.62,-6.56,13.21,-1.47
1900-01-01 11:55:04.722,14.98,12.1,4.4,0.22,0.27,0.98,1.9,6.41,-2.4,17.29,44.57,-3.0,0.72,0.3,0.66,-3.45,12.76,-6.08
1900-01-01 11:55:04.816,10.55,10.86,4.2,0.2,0.19,1.02,2.09,2.93,-1.76,16.14,42.29,-3.94,0.75,0.31,0.77,2.55,7.88,-5.11
1900-01-01 11:55:04.862,15.81,8.0,4.09,0.16,0.31,1.07,1.63,-12.02,-0.6,20.77,39.5,-4.72,0.74,0.41,0.8,8.7,-12.21,-2.98
1900-01-01 11:55:04.956,15.01,13.66,4.16,0.23,0.25,0.9,-0.36,-14.8,2.8,23.57,46.32,-5.19,0.62,0.34,0.48,0.81,-12.28,0.49
1900-01-01 11:55:05.049,15.07,11.07,4.74,0.19,0.26,0.93,-5.9,-9.6,-1.27,19.27,43.63,-5.12,0.67,0.32,0.62,1.53,-14.1,1.02
1900-01-01 11:55:05.096,16.67,15.69,4.71,0.28,0.3,0.95,0.82,-13.07,-0.82,24.87,48.6,-4.98,0.76,0.42,0.51,3.21,-21.39,-0.22
1900-01-01 11:55:05.190,16.34,16.81,4.74,0.29,0.28,0.91,-2.18,-9.13,4.0,24.54,51.36,-5.02,0.74,0.39,0.44,0.44,-15.32,1.31
1900-01-01 11:55:05.284,14.64,21.65,5.51,0.37,0.26,0.91,-10.63,-2.27,7.54,24.42,57.68,-4.83,0.82,0.4,0.33,-2.7,-8.4,7.44
1900-01-01 11:55:05.330,9.72,19.92,6.82,0.33,0.17,0.91,-8.34,4.79,10.45,18.06,56.81,-3.7,0.82,0.3,0.44,-3.37,4.5,17.22
1900-01-01 11:55:05.424,8.1,22.69,8.57,0.39,0.14,0.93,-0.98,3.31,3.92,17.93,59.8,-1.09,0.84,0.3,0.39,0.48,4.62,11.5
1900-01-01 11:55:05.471,7.96,18.34,9.32,0.32,0.14,0.97,-1.82,4.53,4.92,14.65,58.78,0.65,0.87,0.26,0.46,0.66,9.38,5.73
1900-01-01 11:55:05.566,7.44,14.62,10.22,0.25,0.13,0.94,-1.66,3.37,1.74,11.25,53.13,1.5,0.79,0.19,0.56,-2.76,6.69,1.79
1900-01-01 11:55:05.658,8.67,15.26,10.64,0.24,0.14,0.88,0.4,4.05,-4.09,14.72,54.49,1.76,0.72,0.22,0.46,-3.69,5.82,-0.49
1900-01-01 11:55:05.705,10.59,16.07,10.18,0.28,0.18,0.95,5.55,4.2,-5.96,15.6,52.86,1.68,0.81,0.27,0.55,-1.79,3.65,-5.3
1900-01-01 11:55:05.800,9.63,15.13,9.43,0.25,0.16,0.92,2.79,3.85,-7.31,17.08,52.86,0.87,0.73,0.27,0.48,-3.47,5.79,-0.66
1900-01-01 11:55:05.894,10.19,13.61,8.48,0.25,0.19,1.0,5.56,5.62,-5.15,16.54,54.7,0.76,0.84,0.29,0.52,-0.66,8.59,-4.0
1900-01-01 11:55:05.941,10.35,12.4,7.86,0.23,0.2,1.04,3.46,3.87,-3.0,16.29,52.92,0.14,0.9,0.31,0.6,-0.25,7.19,-3.32
1900-01-01 11:55:06.034,13.01,13.43,7.56,0.25,0.24,1.01,4.02,-2.9,-0.93,18.31,50.13,-0.37,0.79,0.32,0.58,-0.29,5.31,-5.15
1900-01-01 11:55:06.081,15.23,13.18,7.58,0.23,0.26,0.94,2.07,-4.92,-0.45,20.23,50.45,-1.17,0.75,0.34,0.52,-4.37,4.28,-10.37
1900-01-01 11:55:06.175,11.19,16.95,7.67,0.29,0.19,0.92,1.01,-2.14,-0.59,17.49,50.19,-2.76,0.72,0.28,0.53,-0.99,2.1,-3.34
1900-01-01 11:55:06.268,12.07,14.25,7.74,0.25,0.21,0.97,-1.21,1.08,-3.9,22.13,44.59,-3.28,0.74,0.4,0.64,-7.48,-3.49,3.44
1900-01-01 11:55:06.316,13.03,15.43,7.3,0.28,0.24,1.0,-5.93,-1.82,-0.2,16.13,57.32,-2.76,0.86,0.28,0.47,-1.27,-4.98,4.79
1900-01-01 11:55:06.408,12.92,14.85,7.43,0.26,0.23,0.95,-2.48,0.66,-1.13,16.33,51.77,-2.04,0.76,0.27,0.53,-4.2,4.18,1.96
1900-01-01 11:55:06.502,13.51,12.92,7.42,0.22,0.23,0.94,-0.56,0.24,-1.4,18.49,49.89,-1.75,0.74,0.31,0.55,-1.79,1.67,0.01
1900-01-01 11:55:06.549,11.29,14.01,7.36,0.24,0.2,0.95,-1.71,0.68,-1.53,16.98,50.96,-1.75,0.77,0.29,0.55,-1.6,2.03,0.62
1900-01-01 11:55:06.643,12.04,14.64,7.29,0.26,0.21,0.97,-0.75,0.76,-1.55,17.29,51.27,-1.67,0.79,0.3,0.56,-0.49,2.13,0.94
1900-01-01 11:55:06.690,11.85,14.4,7.21,0.25,0.21,0.96,-1.12,0.33,-1.34,15.52,51.77,-1.53,0.78,0.27,0.56,-1.22,1.79,0.05
1900-01-01 11:55:06.784,12.42,13.86,7.16,0.25,0.22,0.97,-0.66,-0.44,-0.6,17.12,50.84,-1.54,0.78,0.29,0.56,-1.02,1.31,-0.04
1900-01-01 11:55:06.878,11.79,13.88,7.23,0.24,0.21,0.96,-0.91,-0.13,-0.73,16.76,51.23,-1.55,0.78,0.29,0.56,-0.92,1.18,0.36
1900-01-01 11:55:06.928,11.81,13.99,7.28,0.25,0.21,0.97,-0.4,-0.34,-0.73,16.73,51.16,-1.5,0.78,0.29,0.56,-0.56,1.74,-0.39
1900-01-01 11:55:07.020,12.31,14.46,7.32,0.25,0.22,0.96,-1.55,-0.19,-0.95,17.41,51.14,-1.57,0.78,0.3,0.55,-2.21,1.83,0.39
1900-01-01 11:55:07.111,12.87,14.91,7.34,0.26,0.22,0.94,0.12,0.21,-1.31,17.4,51.32,-1.52,0.75,0.29,0.53,-0.31,2.24,-2.0
1900-01-01 11:55:07.158,10.71,14.05,7.3,0.25,0.19,0.99,-3.02,-0.39,0.56,15.61,51.61,-1.83,0.8,0.28,0.57,-3.55,9.16,-5.76
1900-01-01 11:55:07.252,11.86,14.66,7.54,0.27,0.22,0.99,-2.36,-1.5,-0.36,16.62,50.97,-2.72,0.8,0.29,0.58,-0.58,2.14,-0.32
1900-01-01 11:55:07.300,14.08,14.0,7.65,0.25,0.25,0.95,-1.4,-0.93,0.5,19.83,48.45,-2.78,0.74,0.33,0.56,-2.56,4.11,2.62
1900-01-01 11:55:07.392,13.63,13.2,7.88,0.23,0.23,0.94,0.5,0.21,-0.31,17.47,47.42,-2.39,0.71,0.29,0.58,-1.46,3.14,-3.05
1900-01-01 11:55:07.488,11.84,14.49,7.99,0.26,0.21,0.97,3.08,-0.46,-1.63,19.46,48.25,-2.86,0.78,0.35,0.6,-0.74,0.74,-6.89
1900-01-01 11:55:07.534,13.33,15.68,7.9,0.28,0.24,0.97,2.08,-2.78,0.23,19.33,48.68,-3.92,0.76,0.34,0.58,-1.57,0.66,-4.92
1900-01-01 11:55:07.629,14.87,15.09,8.1,0.26,0.25,0.92,2.13,-3.34,0.37,18.39,47.02,-4.68,0.69,0.3,0.57,-0.37,-0.63,-4.45
1900-01-01 11:55:07.722,15.66,13.72,8.31,0.22,0.25,0.88,1.5,2.03,-1.32,24.58,41.27,-5.36,0.61,0.39,0.58,-2.06,-6.3,-1.15
1900-01-01 11:55:07.769,10.48,14.77,8.27,0.26,0.19,0.97,-6.89,2.92,1.05,12.49,55.21,-5.55,0.8,0.21,0.51,-4.03,0.23,7.31
1900-01-01 11:55:07.861,13.21,13.3,8.59,0.23,0.23,0.94,-0.25,6.31,-2.91,15.99,51.71,-4.45,0.75,0.26,0.53,-2.0,6.69,0.13
1900-01-01 11:55:07.909,13.75,12.34,8.3,0.21,0.23,0.94,1.92,9.47,-5.94,22.2,37.68,-4.43,0.68,0.42,0.77,-7.21,-26.17,16.46
1900-01-01 11:55:08.003,10.85,14.61,7.55,0.27,0.2,1.03,-5.41,0.87,1.06,7.68,65.56,-1.93,0.95,0.14,0.41,-0.11,-7.56,12.17
1900-01-01 11:55:08.096,8.85,14.18,7.87,0.26,0.16,1.0,3.64,-0.16,-4.25,11.25,60.99,-0.08,0.9,0.2,0.46,2.98,11.28,-15.63
1900-01-01 11:55:08.143,12.75,11.87,7.38,0.22,0.24,1.03,-3.72,-5.42,-5.47,12.94,53.48,-2.48,0.87,0.24,0.59,-8.08,10.93,-11.24
1900-01-01 11:55:08.237,17.52,8.36,6.7,0.15,0.3,0.95,4.4,-7.67,-6.43,25.5,46.75,-4.21,0.66,0.39,0.48,7.15,1.63,-4.66
1900-01-01 11:55:08.331,16.74,11.53,5.88,0.19,0.28,0.91,-2.29,-0.66,-2.38,13.97,50.62,-4.92,0.73,0.23,0.56,0.29,2.16,3.46
1900-01-01 11:55:08.378,12.26,13.24,5.68,0.24,0.22,0.98,6.47,0.38,-4.08,21.31,50.03,-4.41,0.75,0.35,0.52,7.29,10.65,-10.04
1900-01-01 11:55:08.471,16.37,13.73,5.22,0.23,0.27,0.89,-3.93,4.38,-1.5,20.4,49.65,-5.95,0.69,0.32,0.5,-10.66,15.78,-6.99
1900-01-01 11:55:08.518,12.55,11.65,5.14,0.2,0.22,0.95,-1.36,5.97,-4.15,19.76,44.93,-7.02,0.7,0.33,0.61,-9.59,14.47,-4.89
1900-01-01 11:55:08.614,14.14,11.85,4.67,0.2,0.24,0.94,4.2,9.08,-2.66,18.15,42.61,-7.78,0.68,0.31,0.66,-1.17,11.05,-4.85
1900-01-01 11:55:08.707,15.43,9.25,4.42,0.17,0.28,1.01,0.69,3.95,-3.17,18.67,41.64,-8.53,0.72,0.35,0.73,-2.05,9.2,-4.3
1900-01-01 11:55:08.755,17.09,10.55,4.1,0.19,0.31,0.98,2.25,-0.98,-1.44,22.19,38.82,-9.19,0.69,0.42,0.75,3.41,-0.34,1.15
1900-01-01 11:55:08.849,18.7,9.84,4.04,0.18,0.33,0.96,0.44,-5.91,1.66,24.73,40.88,-9.02,0.67,0.43,0.65,4.36,-11.03,6.22
1900-01-01 11:55:08.896,16.26,10.5,4.45,0.19,0.29,0.97,-2.16,-7.53,3.33,20.81,42.28,-8.09,0.71,0.37,0.68,2.95,-11.7,7.76
1900-01-01 11:55:08.989,13.69,13.45,5.12,0.24,0.24,0.97,-4.49,-12.04,5.41,20.86,46.48,-6.91,0.72,0.35,0.58,2.11,-13.65,6.61
1900-01-01 11:55:09.083,14.58,14.52,6.1,0.24,0.24,0.9,-4.52,-9.64,3.35,16.1,51.12,-5.91,0.69,0.25,0.5,0.66,-14.01,3.89
1900-01-01 11:55:09.130,14.49,13.72,6.77,0.23,0.24,0.91,-1.89,-4.37,-0.37,18.69,51.9,-5.32,0.74,0.3,0.49,-0.69,-2.72,0.66
1900-01-01 11:55:09.223,14.25,16.45,6.87,0.29,0.25,0.95,-0.39,-2.27,-1.83,19.76,51.63,-5.23,0.78,0.34,0.52,-1.67,2.02,-2.32
1900-01-01 11:55:09.317,16.03,17.28,6.75,0.3,0.28,0.94,0.35,-3.17,0.12,20.54,50.95,-5.59,0.76,0.34,0.51,-7.13,9.78,-9.5
1900-01-01 11:55:09.364,14.35,16.92,6.93,0.29,0.25,0.93,-1.55,-3.18,1.64,18.44,48.25,-7.05,0.73,0.31,0.57,-5.02,16.48,-14.52
1900-01-01 11:55:09.458,14.14,15.81,7.34,0.28,0.25,0.94,-0.32,-0.4,-1.11,18.36,48.45,-9.28,0.71,0.3,0.56,-2.21,9.19,-4.77
1900-01-01 11:55:09.506,14.83,16.71,7.33,0.29,0.26,0.94,1.69,0.77,-2.33,22.72,42.85,-10.02,0.69,0.39,0.63,3.57,5.34,0.19
1900-01-01 11:55:09.602,15.26,17.66,7.13,0.31,0.27,0.94,1.93,0.24,-0.37,23.06,45.51,-10.0,0.72,0.4,0.59,3.59,1.02,1.94
1900-01-01 11:55:09.695,16.46,16.43,7.23,0.29,0.29,0.93,-0.83,0.16,-0.44,22.58,43.82,-9.71,0.68,0.38,0.6,-3.28,0.71,0.24
1900-01-01 11:55:09.741,17.64,14.4,7.32,0.25,0.31,0.93,-5.48,3.32,2.24,24.01,43.37,-9.69,0.71,0.42,0.62,-17.71,-11.04,3.89
1900-01-01 11:55:09.835,11.56,18.15,7.82,0.33,0.21,0.97,0.98,0.0,3.5,15.66,51.98,-9.1,0.8,0.28,0.57,1.82,6.26,-1.76
1900-01-01 11:55:09.930,12.28,17.74,8.51,0.31,0.21,0.93,1.06,0.16,-2.69,20.87,47.27,-9.37,0.71,0.35,0.56,3.32,1.47,0.79
1900-01-01 11:55:09.977,16.28,14.97,8.26,0.26,0.28,0.92,0.96,-0.11,-2.37,23.32,43.0,-9.26,0.66,0.38,0.6,0.72,0.29,1.14
1900-01-01 11:55:10.071,14.84,15.77,8.06,0.27,0.26,0.94,-0.18,1.37,-1.74,20.26,46.42,-9.1,0.71,0.34,0.59,-0.18,1.38,1.34
1900-01-01 11:55:10.118,15.75,16.35,7.96,0.29,0.28,0.95,1.02,0.18,-1.82,21.52,46.85,-8.9,0.74,0.37,0.58,0.23,0.2,1.29
1900-01-01 11:55:10.212,16.53,16.62,7.84,0.29,0.29,0.93,2.24,-1.43,-0.02,21.99,46.54,-8.72,0.72,0.37,0.57,-0.14,0.6,-1.02
1900-01-01 11:55:10.306,15.22,16.35,8.0,0.28,0.26,0.93,2.8,1.2,0.31,20.49,47.35,-8.88,0.72,0.34,0.57,2.95,2.67,-1.08
1900-01-01 11:55:10.353,17.31,15.62,8.2,0.27,0.3,0.93,3.18,-0.18,-0.08,23.0,45.91,-9.05,0.71,0.38,0.57,2.2,2.24,-0.6
1900-01-01 11:55:10.447,19.61,16.02,8.35,0.29,0.35,0.94,0.43,2.75,-2.07,24.28,45.66,-9.15,0.71,0.41,0.56,-0.51,1.52,-0.25
1900-01-01 11:55:10.494,17.48,14.81,8.19,0.26,0.31,0.95,0.76,2.28,-4.1,21.77,45.47,-9.2,0.72,0.37,0.6,-0.56,3.82,-4.21
1900-01-01 11:55:10.575,16.31,14.11,7.73,0.24,0.28,0.91,4.24,-0.6,-3.73,22.15,45.32,-9.85,0.68,0.36,0.57,2.7,3.48,-5.53
1900-01-01 11:55:10.667,16.88,16.58,7.32,0.28,0.29,0.9,2.36,0.96,-2.57,25.12,45.8,-10.7,0.69,0.41,0.54,2.15,0.33,1.28
1900-01-01 11:55:10.762,18.08,14.81,7.08,0.26,0.32,0.93,1.63,0.67,-1.34,24.89,45.54,-10.51,0.72,0.43,0.57,1.46,-0.9,2.61
1900-01-01 11:55:10.809,19.27,14.41,7.04,0.25,0.33,0.92,0.08,1.23,-0.89,23.93,45.64,-10.12,0.7,0.4,0.56,-0.14,2.07,1.83
1900-01-01 11:55:10.903,19.88,13.49,7.06,0.24,0.34,0.92,0.38,0.52,-2.41,24.95,45.16,-9.85,0.7,0.42,0.56,-0.87,0.59,0.25
1900-01-01 11:55:10.950,19.35,13.46,6.85,0.24,0.34,0.93,-0.54,0.72,-1.97,23.53,45.78,-9.82,0.72,0.4,0.57,-1.33,0.4,0.96
1900-01-01 11:55:11.043,19.58,14.0,6.71,0.25,0.34,0.93,-1.35,1.1,-1.82,24.17,45.82,-9.68,0.72,0.41,0.57,-1.86,2.96,0.05
1900-01-01 11:55:11.137,19.32,13.46,6.6,0.24,0.33,0.93,-1.2,0.4,-0.94,23.8,45.54,-9.69,0.71,0.4,0.57,-1.34,2.54,-0.66
1900-01-01 11:55:11.184,19.1,13.86,6.61,0.24,0.33,0.92,-1.0,0.65,-1.51,24.54,45.45,-9.79,0.7,0.41,0.56,-1.37,2.32,0.1
1900-01-01 11:55:11.278,19.17,13.52,6.54,0.24,0.33,0.93,0.2,-0.33,-0.87,24.01,45.39,-9.79,0.71,0.41,0.57,-0.38,1.58,-0.59
1900-01-01 11:55:11.372,19.95,12.99,6.57,0.23,0.35,0.93,-0.52,0.1,-0.71,24.43,44.85,-9.89,0.7,0.41,0.57,-0.93,1.88,-0.1
1900-01-01 11:55:11.419,19.72,13.65,6.62,0.24,0.34,0.92,0.13,-0.63,-0.92,24.48,44.75,-9.91,0.69,0.41,0.57,-0.32,1.69,-0.43
1900-01-01 11:55:11.514,20.02,13.55,6.63,0.24,0.35,0.92,-0.69,0.02,-0.92,24.39,44.84,-9.98,0.69,0.41,0.57,-1.11,1.33,-0.17
1900-01-01 11:55:11.562,19.61,13.5,6.65,0.24,0.34,0.93,-0.14,-0.27,-1.05,24.51,45.0,-10.02,0.7,0.41,0.57,-0.88,1.6,-0.11
1900-01-01 11:55:11.657,19.73,13.6,6.65,0.24,0.34,0.92,-0.67,0.1,-1.23,24.48,45.08,-10.04,0.7,0.41,0.57,-1.09,1.46,0.01
1900-01-01 11:55:11.750,20.11,13.32,6.62,0.23,0.34,0.91,-0.92,-0.14,-1.01,24.74,44.67,-10.05,0.69,0.41,0.57,-0.92,1.26,0.02
1900-01-01 11:55:11.797,20.07,13.74,6.62,0.24,0.35,0.92,0.58,-0.26,-1.31,25.19,44.66,-10.05,0.7,0.42,0.56,-0.27,1.53,-0.01
1900-01-01 11:55:11.891,19.95,12.94,6.58,0.23,0.35,0.92,-0.07,0.15,-0.84,24.38,44.62,-10.06,0.69,0.41,0.57,-0.9,1.18,-0.51
1900-01-01 11:55:11.985,19.94,13.14,6.61,0.23,0.34,0.92,-0.7,0.17,-0.93,24.49,44.78,-10.15,0.7,0.41,0.57,-1.34,1.82,0.17
1900-01-01 11:55:12.030,20.63,13.05,6.63,0.23,0.36,0.92,-0.63,-0.02,-1.09,24.61,44.85,-10.13,0.7,0.41,0.57,-0.42,2.34,-0.2
1900-01-01 11:55:12.126,20.35,13.15,6.62,0.23,0.35,0.92,-0.13,-0.32,-1.17,25.05,44.59,-10.17,0.7,0.42,0.57,-0.77,2.21,-0.11
1900-01-01 11:55:12.173,20.2,13.21,6.6,0.23,0.35,0.92,-0.27,-0.27,-0.98,24.8,44.52,-10.2,0.7,0.42,0.57,-1.32,1.6,-0.42
1900-01-01 11:55:12.267,20.73,13.04,6.61,0.23,0.36,0.92,0.06,-0.1,-0.95,25.25,44.32,-10.27,0.69,0.42,0.56,-1.11,1.73,-0.36
1900-01-01 11:55:12.361,20.42,12.97,6.62,0.23,0.35,0.92,-0.4,-0.14,-1.03,25.19,44.21,-10.33,0.69,0.42,0.57,-1.27,1.8,-0.36
1900-01-01 11:55:12.407,20.05,12.86,6.62,0.22,0.35,0.92,-1.29,0.03,-1.02,24.74,44.51,-10.4,0.69,0.41,0.57,-1.24,1.56,0.15
1900-01-01 11:55:12.501,20.43,12.7,6.62,0.22,0.35,0.92,-0.84,0.14,-1.01,24.85,44.07,-10.38,0.69,0.42,0.58,-1.33,1.56,-0.16
1900-01-01 11:55:12.581,20.24,12.74,6.63,0.22,0.35,0.92,-0.62,0.1,-1.22,24.9,43.98,-10.41,0.69,0.42,0.58,-1.36,1.82,-0.15
1900-01-01 11:55:12.628,20.42,13.02,6.6,0.23,0.35,0.92,-1.02,0.17,-1.12,25.02,44.24,-10.44,0.69,0.42,0.57,-1.44,1.41,0.14
1900-01-01 11:55:12.722,20.22,12.63,6.59,0.22,0.35,0.93,-0.77,0.05,-1.03,24.85,44.11,-10.43,0.69,0.42,0.58,-1.4,1.36,0.04
1900-01-01 11:55:12.815,20.6,12.69,6.59,0.22,0.36,0.92,-0.19,-0.21,-0.86,24.87,43.97,-10.44,0.68,0.41,0.58,-1.27,1.31,0.02
1900-01-01 11:55:12.862,20.08,12.67,6.62,0.22,0.35,0.92,-0.11,-0.19,-0.94,24.74,44.02,-10.44,0.68,0.41,0.57,-1.19,1.59,0.29
1900-01-01 11:55:12.955,20.37,12.75,6.63,0.22,0.35,0.93,-0.53,0.29,-1.42,25.1,43.77,-10.4,0.69,0.42,0.58,-1.31,1.85,-0.15
1900-01-01 11:55:13.050,20.64,12.42,6.57,0.22,0.36,0.92,2.37,3.51,-1.3,25.5,43.63,-10.44,0.68,0.42,0.57,-1.47,1.75,0.08
1900-01-01 11:55:13.097,20.53,12.5,6.53,0.22,0.35,0.92,-0.29,0.21,-1.13,24.99,43.75,-10.43,0.68,0.42,0.58,-0.98,1.68,-0.27
1900-01-01 11:55:13.191,20.27,12.75,6.52,0.22,0.35,0.92,-0.5,-0.04,-0.92,24.93,43.85,-10.48,0.68,0.42,0.58,-1.22,1.18,-0.04
1900-01-01 11:55:13.238,20.81,12.34,6.54,0.22,0.36,0.92,-0.6,0.1,-0.89,25.03,43.82,-10.5,0.69,0.42,0.58,-1.32,1.81,-0.18
1900-01-01 11:55:13.333,20.43,12.53,6.56,0.22,0.35,0.92,-0.44,-0.11,-0.95,24.97,43.94,-10.53,0.69,0.42,0.58,-1.08,1.36,-0.34
1900-01-01 11:55:13.426,20.7,12.03,6.57,0.21,0.36,0.92,-0.48,-0.4,-0.9,24.83,43.2,-10.59,0.68,0.42,0.59,-1.17,0.95,-0.13
1900-01-01 11:55:13.474,20.32,12.44,6.59,0.22,0.35,0.92,-0.45,0.26,-0.86,24.95,43.31,-10.62,0.68,0.42,0.59,-1.57,1.65,0.45
1900-01-01 11:55:13.568,21.0,12.39,6.62,0.22,0.36,0.92,-0.3,-0.09,-0.89,25.23,43.63,-10.56,0.68,0.42,0.57,-1.04,1.54,-0.11
1900-01-01 11:55:13.661,20.34,11.9,6.64,0.21,0.35,0.92,-1.15,0.4,-1.07,24.87,43.46,-10.59,0.68,0.41,0.58,-0.78,1.78,0.15
1900-01-01 11:55:13.708,20.63,12.29,6.64,0.22,0.36,0.93,-0.63,0.17,-1.21,25.1,43.3,-10.57,0.68,0.42,0.59,-1.18,1.87,-0.31
1900-01-01 11:55:13.802,20.48,11.81,6.61,0.21,0.35,0.92,-0.73,0.11,-1.12,24.99,43.33,-10.63,0.68,0.42,0.58,-1.22,1.76,-0.1
1900-01-01 11:55:13.853,20.85,11.87,6.6,0.21,0.36,0.92,-0.94,-0.03,-1.12,24.77,43.7,-10.65,0.68,0.41,0.58,-1.28,2.15,-0.06
1900-01-01 11:55:13.945,20.65,11.8,6.58,0.21,0.35,0.92,-0.22,0.29,-1.44,25.48,42.81,-10.67,0.67,0.43,0.59,-0.82,2.22,-0.05
1900-01-01 11:55:14.039,20.65,11.89,6.52,0.21,0.36,0.92,-0.1,-0.2,-1.11,25.42,42.96,-10.68,0.68,0.43,0.59,-0.88,1.99,-0.34
1900-01-01 11:55:14.085,20.85,12.04,6.51,0.21,0.36,0.92,-0.31,-0.47,-0.95,25.27,42.98,-10.74,0.67,0.42,0.59,-1.08,1.66,-0.21
1900-01-01 11:55:14.184,20.76,11.66,6.52,0.2,0.36,0.92,-0.1,-0.31,-0.88,25.11,42.92,-10.78,0.67,0.42,0.58,-1.14,1.57,-0.14
1900-01-01 11:55:14.274,20.95,11.61,6.55,0.2,0.36,0.92,-0.41,0.35,-1.27,25.16,42.86,-10.81,0.67,0.42,0.59,-1.24,2.14,-0.1
1900-01-01 11:55:14.320,20.97,11.78,6.51,0.21,0.36,0.92,-0.43,0.41,-1.19,25.54,42.49,-10.84,0.66,0.42,0.59,-1.51,2.28,0.14
1900-01-01 11:55:14.416,21.22,11.53,6.49,0.2,0.37,0.92,-0.29,0.22,-1.21,25.3,42.75,-10.82,0.67,0.42,0.59,-1.12,1.58,-0.27
1900-01-01 11:55:14.461,21.5,11.15,6.46,0.2,0.37,0.92,-0.23,0.21,-1.37,25.34,42.19,-10.88,0.67,0.42,0.6,-1.22,1.98,-0.36
1900-01-01 11:55:14.557,21.21,11.43,6.41,0.2,0.37,0.92,-0.37,-0.18,-1.14,25.39,42.4,-10.94,0.66,0.42,0.59,-1.16,1.66,0.09
1900-01-01 11:55:14.652,21.19,11.39,6.39,0.2,0.37,0.92,-0.4,0.14,-1.11,25.33,42.3,-10.93,0.66,0.42,0.59,-1.25,1.67,0.01
1900-01-01 11:55:14.699,21.28,11.07,6.38,0.19,0.36,0.92,0.21,0.44,-1.13,25.38,42.09,-10.94,0.66,0.42,0.59,-1.42,1.87,0.12
1900-01-01 11:55:14.792,21.44,11.28,6.37,0.2,0.37,0.92,-0.08,1.01,-1.4,25.18,42.31,-10.93,0.67,0.42,0.6,-1.47,2.14,-0.32
1900-01-01 11:55:14.886,20.95,10.98,6.32,0.19,0.36,0.92,0.48,0.35,-1.56,25.42,41.76,-10.99,0.66,0.42,0.6,-1.38,2.3,-0.56
1900-01-01 11:55:14.934,21.46,11.2,6.24,0.2,0.37,0.92,0.18,0.44,-1.5,25.32,41.88,-11.08,0.66,0.42,0.6,-1.27,2.02,-0.61
1900-01-01 11:55:15.028,21.3,10.76,6.17,0.19,0.37,0.93,-0.24,0.18,-1.1,25.1,41.93,-11.18,0.66,0.42,0.6,-0.92,1.89,-0.42
1900-01-01 11:55:15.075,21.88,10.73,6.16,0.19,0.38,0.92,-0.31,0.13,-1.24,25.42,41.69,-11.26,0.66,0.42,0.6,-0.82,1.74,-0.6
1900-01-01 11:55:15.169,21.88,10.68,6.13,0.19,0.38,0.92,-0.42,-0.27,-1.02,25.86,41.42,-11.36,0.65,0.43,0.6,-1.27,1.39,-0.08
1900-01-01 11:55:15.264,21.9,10.64,6.13,0.19,0.38,0.92,-0.48,-0.02,-1.14,25.93,41.22,-11.38,0.65,0.43,0.6,-1.46,1.45,-0.1
1900-01-01 11:55:15.311,21.78,10.74,6.11,0.19,0.37,0.92,-0.47,-0.15,-1.02,25.75,41.44,-11.4,0.65,0.43,0.6,-1.38,1.28,-0.12
1900-01-01 11:55:15.405,21.81,10.56,6.11,0.19,0.38,0.92,-0.62,0.08,-0.99,25.72,41.32,-11.43,0.65,0.43,0.6,-1.36,1.47,-0.15
1900-01-01 11:55:15.452,21.54,10.62,6.12,0.18,0.37,0.91,-1.33,0.35,-1.12,25.13,41.76,-11.46,0.65,0.41,0.6,-1.73,1.31,0.08
1900-01-01 11:55:15.548,21.7,10.36,6.11,0.18,0.38,0.93,-0.94,0.02,-1.24,25.48,41.25,-11.46,0.66,0.43,0.61,-1.46,1.73,-0.37
1900-01-01 11:55:15.641,21.82,10.52,6.08,0.18,0.38,0.92,-0.67,0.06,-1.05,25.71,41.19,-11.52,0.65,0.43,0.6,-1.4,1.53,-0.04
1900-01-01 11:55:15.688,21.6,10.38,6.07,0.18,0.37,0.92,-0.41,0.31,-1.01,25.52,41.3,-11.53,0.65,0.42,0.6,-1.31,1.35,-0.07
1900-01-01 11:55:15.781,21.68,9.99,6.08,0.18,0.37,0.92,-0.39,0.5,-1.15,25.5,41.21,-11.55,0.65,0.42,0.61,-1.44,1.75,-0.19
1900-01-01 11:55:15.874,21.54,10.15,6.06,0.18,0.37,0.92,-0.38,-0.15,-1.0,25.57,41.09,-11.59,0.65,0.43,0.61,-1.27,1.64,-0.2
1900-01-01 11:55:15.923,21.8,10.09,6.07,0.18,0.38,0.92,-0.55,0.11,-1.36,25.77,40.99,-11.63,0.65,0.43,0.61,-1.4,1.79,-0.45
1900-01-01 11:55:16.016,21.87,9.74,6.02,0.17,0.38,0.92,-0.49,0.13,-1.3,25.58,40.89,-11.71,0.64,0.43,0.61,-1.28,1.73,-0.29
1900-01-01 11:55:16.064,21.91,9.98,5.98,0.18,0.38,0.92,-1.05,0.13,-1.27,25.85,41.08,-11.76,0.65,0.43,0.61,-1.43,1.81,-0.31
1900-01-01 11:55:16.159,21.82,9.93,5.94,0.17,0.38,0.92,-0.72,-0.19,-1.02,25.7,40.71,-11.82,0.64,0.43,0.61,-1.31,1.43,-0.15
1900-01-01 11:55:16.254,21.89,9.74,5.95,0.17,0.38,0.92,-0.5,0.11,-1.19,25.79,40.69,-11.85,0.64,0.43,0.61,-1.37,1.5,-0.24
1900-01-01 11:55:16.300,21.8,9.6,5.92,0.17,0.38,0.92,-0.47,-0.05,-1.23,25.93,40.48,-11.89,0.64,0.43,0.62,-1.18,1.73,-0.5
1900-01-01 11:55:16.394,21.89,9.95,5.9,0.17,0.38,0.92,-0.34,-0.44,-1.01,25.88,40.57,-11.98,0.64,0.43,0.61,-1.1,1.56,-0.34
1900-01-01 11:55:16.488,21.74,9.75,5.9,0.17,0.37,0.92,-0.69,-0.02,-0.9,25.53,40.7,-12.04,0.64,0.42,0.61,-1.3,1.29,0.16
1900-01-01 11:55:16.534,22.34,9.79,5.92,0.17,0.38,0.92,-0.88,-0.1,-0.84,25.98,40.65,-12.02,0.64,0.43,0.61,-1.12,1.43,0.01
1900-01-01 11:55:16.628,22.18,9.6,5.95,0.17,0.38,0.92,-0.37,-0.25,-0.78,25.76,40.59,-12.03,0.64,0.43,0.61,-1.02,1.4,-0.28
1900-01-01 11:55:16.675,21.84,9.5,5.99,0.17,0.37,0.92,-0.45,-0.32,-0.73,25.56,40.62,-12.08,0.64,0.42,0.61,-1.07,1.26,-0.08
1900-01-01 11:55:16.770,22.1,9.78,6.04,0.17,0.38,0.92,-0.58,-0.05,-0.94,25.74,40.59,-12.1,0.64,0.43,0.61,-1.25,1.29,-0.12
1900-01-01 11:55:16.863,22.01,9.9,6.05,0.17,0.38,0.92,-0.6,-0.24,-0.78,25.78,40.55,-12.13,0.64,0.43,0.61,-1.22,1.21,-0.18
1900-01-01 11:55:16.910,22.1,9.73,6.09,0.17,0.38,0.92,-0.59,-0.21,-1.08,26.0,40.54,-12.17,0.64,0.43,0.61,-1.25,1.34,-0.02
1900-01-01 11:55:17.004,22.17,9.7,6.09,0.17,0.38,0.92,-0.8,-0.08,-0.99,26.02,40.43,-12.18,0.64,0.43,0.61,-1.34,1.27,-0.24
1900-01-01 11:55:17.058,21.94,9.55,6.09,0.17,0.38,0.92,-0.3,-0.38,-0.99,26.33,40.22,-12.22,0.64,0.44,0.61,-1.05,1.44,-0.18
1900-01-01 11:55:17.145,22.07,9.62,6.1,0.17,0.38,0.92,-0.69,-0.05,-0.79,25.95,40.39,-12.26,0.64,0.43,0.61,-1.22,1.29,0.06
1900-01-01 11:55:17.240,22.12,9.52,6.14,0.17,0.38,0.92,-1.05,-0.11,-0.96,25.76,40.4,-12.26,0.64,0.43,0.62,-1.28,1.21,0.28
1900-01-01 11:55:17.287,22.17,9.78,6.15,0.17,0.38,0.92,-0.78,-0.08,-0.98,25.78,40.59,-12.23,0.64,0.43,0.62,-1.28,1.19,-0.06
1900-01-01 11:55:17.384,22.35,9.65,6.16,0.17,0.38,0.92,-0.61,-0.37,-0.97,25.99,40.33,-12.24,0.64,0.43,0.61,-1.17,1.29,-0.19
1900-01-01 11:55:17.477,21.91,9.71,6.17,0.17,0.38,0.92,-0.92,-0.25,-1.03,25.96,40.44,-12.28,0.64,0.43,0.61,-1.57,1.3,0.15
1900-01-01 11:55:17.523,22.14,9.49,6.17,0.17,0.38,0.92,-0.79,-0.27,-0.94,25.84,40.46,-12.27,0.64,0.43,0.61,-1.34,1.32,0.05
1900-01-01 11:55:17.617,22.0,9.63,6.19,0.17,0.38,0.92,-0.44,-0.33,-0.98,26.04,40.31,-12.27,0.63,0.43,0.61,-1.05,1.38,-0.18
1900-01-01 11:55:17.666,21.84,9.84,6.19,0.17,0.38,0.92,-0.56,-0.27,-1.04,26.05,40.3,-12.3,0.64,0.43,0.62,-1.18,1.33,-0.09
1900-01-01 11:55:17.760,21.8,9.46,6.19,0.17,0.37,0.92,-0.74,-0.15,-0.93,25.7,40.42,-12.33,0.64,0.43,0.62,-1.41,1.39,0.08
1900-01-01 11:55:17.861,22.32,9.53,6.21,0.17,0.38,0.92,-0.76,-0.18,-0.82,25.82,40.34,-12.32,0.64,0.43,0.61,-1.21,1.27,0.16
1900-01-01 11:55:17.903,21.96,9.78,6.24,0.17,0.38,0.93,-0.42,-0.21,-1.1,26.07,40.42,-12.31,0.64,0.44,0.62,-1.38,1.47,-0.23
1900-01-01 11:55:17.997,21.79,9.41,6.23,0.16,0.37,0.92,-0.34,-0.6,-0.74,25.73,39.42,-12.35,0.63,0.43,0.63,-0.91,0.27,-0.33
1900-01-01 11:55:18.045,22.12,10.11,6.28,0.18,0.38,0.92,-0.94,-0.87,-0.44,26.06,40.88,-12.41,0.64,0.43,0.6,-0.92,1.11,0.23
1900-01-01 11:55:18.140,21.75,9.92,6.37,0.17,0.37,0.92,-1.31,-0.78,-0.15,26.18,39.89,-12.38,0.65,0.44,0.63,-0.57,-2.08,0.85
1900-01-01 11:55:18.233,22.36,9.6,6.51,0.17,0.39,0.93,-4.21,-2.53,0.37,25.41,41.57,-12.26,0.66,0.42,0.6,-0.62,-6.79,6.22
1900-01-01 11:55:18.286,20.81,11.52,6.72,0.2,0.36,0.92,-7.94,-3.46,0.54,24.52,43.11,-11.32,0.68,0.41,0.59,-2.15,-10.56,7.81
1900-01-01 11:55:18.375,20.4,11.15,6.96,0.2,0.36,0.93,-5.56,-4.56,0.96,24.09,45.61,-10.13,0.72,0.41,0.57,-2.02,-9.79,6.97
1900-01-01 11:55:18.471,19.7,12.54,7.27,0.22,0.34,0.93,-2.72,-4.69,1.17,22.49,48.1,-9.08,0.74,0.38,0.55,0.05,-10.6,6.44
1900-01-01 11:55:18.520,19.39,12.58,7.6,0.23,0.34,0.95,-4.87,-7.52,1.98,21.71,50.29,-8.1,0.78,0.37,0.53,-1.19,-4.55,3.76
1900-01-01 11:55:18.612,18.6,13.78,8.07,0.24,0.33,0.94,-1.19,-7.0,1.81,22.55,50.36,-7.54,0.78,0.39,0.51,0.86,-3.55,1.16
1900-01-01 11:55:18.658,18.2,14.72,8.5,0.26,0.31,0.92,0.31,-6.92,2.46,22.06,51.12,-7.37,0.76,0.37,0.49,0.2,0.62,-2.08
1900-01-01 11:55:18.762,18.74,15.9,9.03,0.27,0.32,0.9,-0.76,-5.32,0.57,22.9,50.57,-7.69,0.75,0.38,0.49,-1.44,-0.08,-0.94
1900-01-01 11:55:18.817,18.98,17.11,9.28,0.3,0.33,0.91,-0.31,-4.3,0.11,23.59,50.07,-7.85,0.76,0.4,0.5,-0.95,-1.46,-0.5
1900-01-01 11:55:18.895,17.84,17.62,9.45,0.3,0.31,0.91,0.04,-3.05,-0.02,22.4,51.6,-7.93,0.77,0.37,0.48,-0.52,-0.65,-1.28
1900-01-01 11:55:19.000,19.53,16.4,9.61,0.28,0.33,0.89,0.35,-1.23,-0.86,23.8,50.2,-8.13,0.74,0.39,0.48,0.05,1.24,-2.28
1900-01-01 11:55:19.038,20.64,16.53,9.64,0.29,0.36,0.92,1.06,-1.37,-0.76,24.7,50.71,-8.49,0.78,0.42,0.48,-5.49,9.27,-7.5
1900-01-01 11:55:19.139,15.73,18.67,9.68,0.31,0.27,0.89,7.39,-2.41,-2.83,22.5,49.33,-9.64,0.73,0.37,0.51,2.05,3.62,-6.71
1900-01-01 11:55:19.227,18.38,18.02,9.41,0.31,0.31,0.89,0.6,1.16,-3.54,26.2,48.13,-10.67,0.73,0.43,0.49,-1.56,1.24,0.02
1900-01-01 11:55:19.274,19.91,16.49,9.03,0.28,0.34,0.9,-0.12,1.1,-1.22,25.52,47.57,-10.68,0.72,0.42,0.51,-0.58,2.63,-0.48
1900-01-01 11:55:19.369,19.02,17.3,9.0,0.3,0.33,0.92,-0.17,1.03,-1.12,24.04,48.45,-10.76,0.76,0.41,0.53,0.6,3.21,0.66
1900-01-01 11:55:19.418,20.69,17.51,8.99,0.31,0.36,0.91,0.08,0.23,-2.06,27.4,47.19,-10.67,0.74,0.46,0.5,0.47,1.88,1.99
1900-01-01 11:55:19.511,20.69,16.91,8.83,0.3,0.36,0.91,-1.25,0.97,-0.92,25.88,46.65,-10.37,0.72,0.43,0.53,-1.31,1.82,0.79
1900-01-01 11:55:19.604,19.32,17.23,8.85,0.3,0.34,0.91,-1.37,0.44,-0.41,24.94,47.39,-10.26,0.74,0.42,0.53,-2.89,3.43,-0.81
1900-01-01 11:55:19.652,20.26,16.15,8.94,0.28,0.35,0.91,-3.38,-0.65,1.73,25.4,47.19,-10.39,0.73,0.43,0.53,-6.18,5.31,-3.12
1900-01-01 11:55:19.746,22.68,14.52,9.37,0.25,0.39,0.9,-10.59,2.68,5.33,29.85,39.8,-10.88,0.69,0.54,0.63,-18.43,-24.61,14.68
1900-01-01 11:55:19.839,16.6,17.21,10.34,0.31,0.3,0.95,-8.44,0.2,10.33,22.62,56.15,-8.63,0.84,0.39,0.41,3.08,-26.57,21.46
1900-01-01 11:55:19.887,11.73,19.94,12.08,0.34,0.2,0.92,-2.6,-0.37,10.79,9.56,75.28,-5.35,0.96,0.17,0.19,30.54,26.5,24.08
1900-01-01 11:55:19.980,11.32,21.65,13.9,0.36,0.19,0.89,19.51,5.05,1.85,15.56,65.76,-1.67,0.71,0.21,0.24,44.61,86.37,2.56
1900-01-01 11:55:20.074,18.75,21.32,14.34,0.32,0.29,0.78,21.83,19.5,-9.01,22.59,17.87,-1.29,0.26,0.33,0.75,-2.64,93.24,-50.67
1900-01-01 11:55:20.121,19.66,7.43,13.11,0.12,0.32,0.9,2.92,38.47,-21.62,24.66,16.74,-9.09,0.32,0.46,0.95,-4.65,0.02,-20.15
1900-01-01 11:55:20.215,21.71,4.79,9.96,0.09,0.38,0.95,6.69,18.88,-17.92,26.23,25.35,-12.19,0.4,0.41,0.73,-8.62,25.69,-18.18
1900-01-01 11:55:20.261,27.32,-3.05,7.36,-0.07,0.64,1.24,19.31,4.75,-9.5,37.95,12.89,-14.99,0.39,1.06,1.31,24.21,-3.49,-16.21
1900-01-01 11:55:20.360,26.85,5.48,6.07,0.09,0.45,0.88,-2.02,4.48,0.3,31.88,19.18,-17.48,0.32,0.52,0.76,-13.64,-11.26,1.33
1900-01-01 11:55:20.450,19.96,1.61,6.27,0.03,0.33,0.91,0.12,0.2,-3.03,27.86,18.83,-17.28,0.31,0.44,0.78,0.75,-0.96,-2.77
1900-01-01 11:55:20.498,23.55,2.71,5.97,0.05,0.4,0.91,-2.75,-0.32,-1.01,30.12,18.89,-17.71,0.31,0.48,0.77,-1.02,1.18,0.69
1900-01-01 11:55:20.591,23.57,2.79,5.97,0.05,0.4,0.92,-2.47,-0.15,-1.33,29.88,18.8,-17.62,0.31,0.48,0.78,-1.24,0.93,0.07
1900-01-01 11:55:20.637,23.72,2.49,5.93,0.04,0.4,0.91,-0.04,-0.66,-0.89,29.34,18.78,-17.61,0.31,0.47,0.78,-0.21,1.09,0.0
1900-01-01 11:55:20.732,24.31,2.74,5.95,0.05,0.41,0.92,-0.68,-0.54,-1.0,30.66,18.42,-17.62,0.3,0.49,0.77,-1.27,1.47,0.35
1900-01-01 11:55:20.827,23.98,2.91,5.96,0.05,0.41,0.92,-0.73,-0.28,-1.01,30.57,18.67,-17.58,0.31,0.49,0.78,-0.85,1.45,0.28
1900-01-01 11:55:20.876,23.55,2.47,5.96,0.04,0.4,0.92,-0.97,0.11,-0.94,29.65,18.71,-17.54,0.31,0.48,0.78,-0.61,1.33,0.28
1900-01-01 11:55:20.968,24.08,2.77,5.98,0.05,0.41,0.92,-0.05,-0.03,-0.83,30.7,18.82,-17.51,0.31,0.5,0.77,-0.96,1.09,0.07
1900-01-01 11:55:21.061,23.5,2.61,6.01,0.05,0.4,0.92,-0.98,0.04,-1.12,30.02,18.72,-17.51,0.31,0.48,0.78,-1.22,1.1,-0.1
1900-01-01 11:55:21.109,23.73,2.29,6.0,0.04,0.4,0.91,-1.48,0.31,-1.07,30.27,18.66,-17.53,0.31,0.49,0.77,-1.9,1.18,0.23
1900-01-01 11:55:21.202,23.31,2.33,6.0,0.04,0.4,0.92,-1.79,0.0,-0.95,29.45,19.02,-17.5,0.31,0.47,0.77,-1.17,1.13,0.05
1900-01-01 11:55:21.249,23.59,2.45,6.01,0.04,0.4,0.91,-0.17,-0.19,-0.83,30.15,18.8,-17.51,0.31,0.48,0.77,-0.5,1.15,-0.14
1900-01-01 11:55:21.342,23.66,2.54,6.04,0.04,0.4,0.92,-0.46,-0.52,-0.83,30.6,18.95,-17.53,0.31,0.49,0.77,-1.14,1.05,0.07
1900-01-01 11:55:21.437,23.24,2.29,6.07,0.04,0.39,0.92,-0.6,-0.38,-0.98,30.03,18.78,-17.53,0.31,0.48,0.77,-1.09,1.05,-0.08
1900-01-01 11:55:21.484,23.61,2.29,6.08,0.04,0.4,0.92,-0.93,-0.5,-0.77,30.34,18.66,-17.55,0.31,0.49,0.77,-1.31,1.23,0.23
1900-01-01 11:55:21.578,23.6,2.52,6.12,0.04,0.41,0.93,-0.55,-0.21,-0.97,30.77,18.79,-17.53,0.31,0.49,0.77,-1.23,1.39,0.02
1900-01-01 11:55:21.671,23.59,2.4,6.13,0.04,0.4,0.92,-0.7,0.24,-1.57,30.22,18.78,-17.53,0.31,0.48,0.77,-0.97,1.18,-0.27
1900-01-01 11:55:21.717,23.11,2.55,6.05,0.04,0.39,0.92,-1.07,-0.04,-1.18,29.86,19.23,-17.58,0.32,0.48,0.77,-1.27,1.24,-0.11
1900-01-01 11:55:21.811,22.92,2.41,6.03,0.04,0.39,0.92,-0.68,-0.11,-0.6,29.98,18.91,-17.61,0.31,0.48,0.77,-0.84,1.02,0.1
1900-01-01 11:55:21.858,23.17,2.71,6.1,0.05,0.39,0.92,-0.11,-0.52,-0.05,30.13,19.12,-17.6,0.32,0.48,0.77,-0.44,1.05,-0.02
1900-01-01 11:55:21.953,23.84,2.36,6.25,0.04,0.41,0.92,0.65,-0.68,-0.36,30.64,18.63,-17.61,0.31,0.49,0.77,-0.72,1.24,-0.4
1900-01-01 11:55:22.047,24.28,2.32,6.35,0.04,0.42,0.92,0.03,0.05,-1.28,30.72,18.63,-17.68,0.31,0.49,0.77,-1.41,1.65,-0.05
1900-01-01 11:55:22.092,23.69,2.44,6.31,0.04,0.4,0.92,-0.95,0.45,-1.78,30.41,18.78,-17.7,0.31,0.49,0.77,-1.11,1.35,0.02
1900-01-01 11:55:22.187,23.74,2.43,6.2,0.04,0.4,0.91,-1.89,0.17,-1.23,30.34,18.84,-17.7,0.31,0.49,0.77,-1.79,1.26,0.2
1900-01-01 11:55:22.281,23.11,2.3,6.17,0.04,0.39,0.92,-0.6,-0.44,-0.85,30.17,18.99,-17.68,0.31,0.48,0.77,-0.85,1.05,-0.01
1900-01-01 11:55:22.330,23.55,2.49,6.2,0.04,0.4,0.92,-0.53,-0.46,-0.46,30.45,18.93,-17.69,0.31,0.49,0.77,-0.96,0.77,0.02
1900-01-01 11:55:22.422,23.56,2.26,6.29,0.04,0.4,0.92,-0.71,-0.07,-0.26,30.21,18.89,-17.7,0.31,0.48,0.77,-1.53,1.31,0.27
1900-01-01 11:55:22.467,23.96,2.43,6.41,0.04,0.41,0.92,-0.6,0.03,-0.64,30.57,19.0,-17.66,0.31,0.49,0.77,-1.47,1.28,0.26
1900-01-01 11:55:22.562,23.84,2.31,6.47,0.04,0.41,0.92,-0.5,0.11,-1.27,30.55,18.91,-17.63,0.31,0.49,0.77,-1.58,1.51,-0.05
1900-01-01 11:55:22.656,23.68,2.47,6.44,0.04,0.4,0.92,-0.35,-0.23,-1.57,30.16,18.92,-17.65,0.31,0.48,0.77,-1.25,1.85,-0.46
1900-01-01 11:55:22.702,23.87,2.2,6.36,0.04,0.4,0.91,-0.73,-0.72,-0.88,30.58,18.7,-17.73,0.31,0.49,0.77,-1.59,1.59,0.2
1900-01-01 11:55:22.798,23.21,2.26,6.38,0.04,0.39,0.92,-0.44,0.14,-0.99,30.02,18.72,-17.71,0.31,0.48,0.77,-0.95,1.53,0.05
1900-01-01 11:55:22.891,23.81,1.68,6.39,0.03,0.4,0.9,-0.37,-1.02,-0.23,30.29,18.53,-17.71,0.31,0.48,0.77,-0.41,1.19,0.27
1900-01-01 11:55:22.939,24.31,2.75,6.51,0.05,0.42,0.92,-0.39,-1.47,-0.33,30.64,19.02,-17.67,0.32,0.49,0.77,-0.64,0.81,0.53
1900-01-01 11:55:23.032,23.75,2.62,6.62,0.05,0.4,0.92,0.03,-0.33,-1.03,30.16,18.87,-17.6,0.31,0.48,0.77,-1.22,1.34,0.01
1900-01-01 11:55:23.079,24.7,2.57,6.62,0.05,0.42,0.91,-0.02,-0.5,-1.56,31.67,18.44,-17.61,0.3,0.51,0.76,-0.77,1.4,-0.18
1900-01-01 11:55:23.173,24.32,2.59,6.54,0.05,0.41,0.91,-1.55,0.47,-2.0,30.67,18.78,-17.64,0.31,0.49,0.77,-1.82,1.34,-0.03
1900-01-01 11:55:23.268,23.59,2.54,6.4,0.04,0.4,0.92,-1.4,0.24,-1.81,30.19,18.96,-17.66,0.31,0.49,0.77,-1.53,1.06,-0.03
1900-01-01 11:55:23.315,23.14,2.41,6.28,0.04,0.39,0.91,-1.26,0.09,-1.14,29.64,19.16,-17.67,0.32,0.48,0.77,-1.76,1.11,0.16
1900-01-01 11:55:23.412,23.7,2.24,6.26,0.04,0.4,0.92,-0.79,-0.79,-0.47,30.6,18.93,-17.65,0.31,0.49,0.77,-0.7,0.94,0.21
1900-01-01 11:55:23.455,23.74,2.19,6.35,0.04,0.4,0.92,-0.4,-0.86,-0.56,30.34,18.94,-17.63,0.31,0.48,0.77,-0.8,0.92,0.03
1900-01-01 11:55:23.551,23.59,2.48,6.42,0.04,0.4,0.92,0.23,-1.14,-0.68,30.67,19.05,-17.63,0.32,0.49,0.77,-0.53,1.08,0.08
1900-01-01 11:55:23.645,24.3,2.46,6.48,0.04,0.41,0.92,-0.64,-0.54,-1.0,31.76,18.49,-17.63,0.31,0.51,0.76,-1.11,1.38,0.11
1900-01-01 11:55:23.692,23.65,2.63,6.48,0.05,0.4,0.91,-1.34,0.04,-1.29,30.4,18.95,-17.62,0.31,0.49,0.77,-1.63,1.4,0.02
1900-01-01 11:55:23.788,23.79,2.94,6.45,0.05,0.4,0.92,-0.85,-0.02,-1.42,30.55,19.13,-17.63,0.32,0.49,0.77,-1.17,1.24,-0.08
1900-01-01 11:55:23.878,23.17,2.33,6.39,0.04,0.39,0.92,-1.24,0.21,-1.34,29.88,19.23,-17.65,0.32,0.48,0.77,-1.63,1.25,0.01
1900-01-01 11:55:23.926,23.45,2.51,6.34,0.04,0.4,0.92,-0.73,-0.84,-0.7,30.92,19.13,-17.66,0.32,0.5,0.77,-0.95,0.98,0.19
1900-01-01 11:55:24.020,22.97,2.55,6.39,0.04,0.39,0.92,-0.73,-1.26,-0.49,30.19,19.27,-17.64,0.32,0.48,0.77,-0.63,0.92,0.19
1900-01-01 11:55:24.067,24.44,2.61,6.48,0.05,0.42,0.92,-0.06,-1.53,-0.02,31.65,18.86,-17.61,0.31,0.5,0.76,-1.02,0.99,0.5
1900-01-01 11:55:24.162,24.0,2.83,6.63,0.05,0.41,0.92,-1.11,-0.2,-1.08,30.69,19.05,-17.55,0.31,0.49,0.77,-1.33,1.18,0.45
1900-01-01 11:55:24.255,23.48,3.02,6.62,0.05,0.4,0.92,-1.05,-0.24,-1.44,30.89,19.42,-17.49,0.32,0.49,0.76,-0.63,1.27,0.01
1900-01-01 11:55:24.302,23.47,2.79,6.56,0.05,0.4,0.91,-0.82,-0.14,-1.32,30.94,19.04,-17.49,0.32,0.5,0.77,-1.29,1.27,-0.2
1900-01-01 11:55:24.398,22.74,2.84,6.52,0.05,0.39,0.92,-0.65,-0.68,-0.54,30.47,19.33,-17.53,0.32,0.49,0.77,-0.91,1.13,0.11
1900-01-01 11:55:24.492,23.44,2.84,6.6,0.05,0.4,0.92,-1.1,-0.49,-0.28,30.46,19.25,-17.53,0.32,0.49,0.77,-1.3,1.31,0.27
1900-01-01 11:55:24.539,23.52,3.19,6.71,0.06,0.4,0.92,-0.93,-0.31,-0.85,30.8,19.42,-17.49,0.32,0.5,0.77,-1.02,1.24,-0.07
1900-01-01 11:55:24.637,23.13,2.6,6.74,0.05,0.39,0.92,-1.23,-0.44,-0.84,30.54,19.15,-17.51,0.32,0.49,0.77,-1.06,1.22,0.15
1900-01-01 11:55:24.681,23.29,3.07,6.77,0.05,0.4,0.92,-1.38,-0.14,-0.95,30.77,19.44,-17.5,0.32,0.49,0.77,-1.29,1.26,0.05
1900-01-01 11:55:24.774,22.98,2.78,6.78,0.05,0.39,0.92,-1.06,-0.21,-1.02,30.28,19.39,-17.5,0.32,0.48,0.76,-1.13,1.24,-0.05
1900-01-01 11:55:24.869,23.07,3.13,6.78,0.05,0.39,0.92,-0.65,-0.43,-0.86,30.79,19.63,-17.51,0.32,0.49,0.76,-1.0,1.09,0.01
1900-01-01 11:55:24.918,23.99,2.92,6.81,0.05,0.41,0.92,-1.14,-0.09,-1.13,31.26,19.07,-17.52,0.32,0.5,0.76,-1.76,0.91,-0.12
1900-01-01 11:55:25.011,22.61,2.89,6.8,0.05,0.39,0.92,-1.15,-0.21,-1.26,30.54,19.42,-17.55,0.32,0.49,0.77,-1.37,1.13,-0.12
1900-01-01 11:55:25.059,23.03,2.82,6.76,0.05,0.39,0.92,-0.44,-0.24,-1.02,30.69,19.33,-17.58,0.32,0.49,0.76,-1.31,1.24,-0.1
1900-01-01 11:55:25.154,22.85,2.88,6.77,0.05,0.39,0.92,-0.78,-0.19,-0.9,30.82,19.44,-17.6,0.32,0.49,0.76,-1.21,1.36,-0.02
1900-01-01 11:55:25.247,23.12,2.91,6.79,0.05,0.39,0.92,-1.08,-0.19,-0.82,30.77,19.32,-17.61,0.32,0.49,0.77,-1.27,1.24,0.02
1900-01-01 11:55:25.294,22.83,2.69,6.82,0.05,0.39,0.92,-1.13,-0.22,-0.85,30.45,19.42,-17.62,0.32,0.49,0.77,-1.2,1.29,0.08
1900-01-01 11:55:25.387,22.77,2.93,6.85,0.05,0.39,0.93,-1.02,-0.4,-0.91,30.66,19.35,-17.61,0.32,0.49,0.77,-1.03,1.14,0.01
1900-01-01 11:55:25.489,22.89,2.95,6.87,0.05,0.39,0.93,-1.16,-0.22,-0.89,30.54,19.37,-17.62,0.32,0.49,0.77,-1.33,1.45,0.02
1900-01-01 11:55:25.532,22.79,2.86,6.89,0.05,0.39,0.92,-0.81,-0.22,-0.94,30.68,19.36,-17.63,0.32,0.49,0.77,-1.05,1.18,0.05
1900-01-01 11:55:25.625,22.47,2.82,6.91,0.05,0.38,0.93,0.43,-0.73,-0.4,30.99,19.28,-17.63,0.32,0.5,0.76,-1.21,1.33,-0.1
1900-01-01 11:55:25.672,23.36,3.29,7.0,0.06,0.4,0.92,0.47,-0.34,-0.7,31.03,19.25,-17.65,0.32,0.5,0.76,-0.82,1.12,-0.28
1900-01-01 11:55:25.766,22.84,2.92,7.06,0.05,0.39,0.92,-0.9,-0.45,-1.0,31.05,19.14,-17.7,0.32,0.5,0.76,-1.08,1.15,-0.08
1900-01-01 11:55:25.861,23.18,3.24,7.06,0.06,0.4,0.92,-1.11,-0.25,-0.76,30.87,19.39,-17.72,0.32,0.5,0.76,-1.32,1.11,0.15
1900-01-01 11:55:25.908,22.97,3.01,7.1,0.05,0.39,0.92,-0.79,-0.34,-0.89,31.22,19.4,-17.71,0.32,0.5,0.76,-1.18,1.11,0.13
1900-01-01 11:55:26.002,22.8,2.97,7.13,0.05,0.39,0.92,-1.31,-0.15,-0.92,30.61,19.41,-17.7,0.32,0.49,0.77,-1.08,1.23,0.08
1900-01-01 11:55:26.049,22.89,3.04,7.15,0.05,0.39,0.92,-1.01,-0.02,-0.95,30.58,19.43,-17.69,0.32,0.49,0.77,-1.24,1.27,0.08
1900-01-01 11:55:26.143,22.94,3.0,7.16,0.05,0.39,0.92,-0.84,-0.13,-0.93,30.74,19.43,-17.69,0.32,0.49,0.76,-1.33,1.27,0.09
1900-01-01 11:55:26.238,22.63,2.97,7.17,0.05,0.39,0.93,-0.99,-0.09,-1.01,30.77,19.54,-17.69,0.32,0.49,0.76,-1.28,1.24,0.04
1900-01-01 11:55:26.286,22.48,2.99,7.18,0.05,0.38,0.92,-0.9,-0.15,-0.81,30.49,19.55,-17.69,0.32,0.49,0.77,-1.21,1.05,0.08
1900-01-01 11:55:26.378,22.72,2.91,7.21,0.05,0.39,0.93,-0.5,-0.69,-0.51,30.71,19.63,-17.69,0.32,0.49,0.76,-1.12,1.02,0.09
1900-01-01 11:55:26.472,23.21,2.87,7.3,0.05,0.4,0.92,-0.35,-0.5,-1.05,30.91,19.31,-17.68,0.32,0.49,0.76,-1.36,1.34,-0.09
1900-01-01 11:55:26.518,22.69,3.76,7.29,0.07,0.39,0.93,-0.79,0.07,-1.86,30.71,20.29,-17.7,0.34,0.49,0.76,-1.74,1.16,-0.8
1900-01-01 11:55:26.614,22.72,2.63,7.17,0.05,0.38,0.91,-1.36,0.53,-1.39,31.05,18.64,-17.83,0.31,0.49,0.76,-2.56,1.57,-0.01
1900-01-01 11:55:26.661,22.59,2.84,7.11,0.05,0.38,0.92,-0.99,-0.09,-0.73,30.34,19.65,-17.84,0.32,0.49,0.77,-1.56,1.19,0.12
1900-01-01 11:55:26.754,22.36,2.59,7.16,0.05,0.38,0.92,-0.37,-0.37,-0.66,30.52,19.04,-17.83,0.31,0.49,0.77,-1.23,1.19,0.14
1900-01-01 11:55:26.849,22.65,3.33,7.22,0.06,0.39,0.93,-0.67,-0.35,-0.93,30.73,19.66,-17.82,0.33,0.5,0.77,-1.44,0.95,-0.13
1900-01-01 11:55:26.895,22.38,2.79,7.23,0.05,0.38,0.93,-0.88,-0.05,-0.81,30.07,19.33,-17.85,0.32,0.48,0.77,-1.9,1.16,-0.03
1900-01-01 11:55:26.990,22.87,2.67,7.27,0.05,0.39,0.92,-0.63,-0.34,-0.78,29.97,19.46,-17.86,0.32,0.48,0.77,-1.38,1.14,0.02
1900-01-01 11:55:27.083,22.81,2.93,7.31,0.05,0.39,0.93,-0.63,-0.37,-0.92,30.34,19.58,-17.87,0.32,0.49,0.77,-1.27,1.33,-0.02
1900-01-01 11:55:27.130,22.7,2.71,7.33,0.05,0.39,0.93,-0.83,-0.02,-1.37,30.55,19.25,-17.88,0.32,0.49,0.77,-1.53,1.31,-0.11
1900-01-01 11:55:27.227,22.57,2.78,7.28,0.05,0.38,0.92,-0.99,-0.06,-1.33,30.32,19.44,-17.9,0.32,0.49,0.77,-1.46,1.31,-0.11
1900-01-01 11:55:27.273,22.6,2.86,7.23,0.05,0.39,0.92,-0.66,-0.21,-1.03,30.31,19.46,-17.93,0.32,0.49,0.77,-1.18,1.13,-0.11
1900-01-01 11:55:27.367,22.47,2.75,7.23,0.05,0.38,0.92,-0.95,-0.23,-0.73,30.14,19.55,-17.95,0.32,0.48,0.77,-1.28,1.13,0.08
1900-01-01 11:55:27.460,23.0,2.52,7.28,0.04,0.39,0.92,-0.6,-0.25,-0.79,30.44,19.28,-17.95,0.32,0.49,0.77,-1.49,1.27,0.11
1900-01-01 11:55:27.507,22.58,2.94,7.32,0.05,0.39,0.93,-0.23,-0.4,-0.87,30.24,19.44,-17.94,0.32,0.49,0.77,-1.15,1.29,0.02
1900-01-01 11:55:27.601,22.35,2.91,7.34,0.05,0.38,0.93,-0.68,-0.17,-0.99,30.36,19.47,-17.95,0.32,0.49,0.77,-1.18,1.37,-0.14
1900-01-01 11:55:27.695,22.54,2.67,7.35,0.05,0.38,0.92,-0.76,-0.08,-0.94,30.17,19.37,-17.98,0.32,0.48,0.77,-1.16,1.43,0.02
1900-01-01 11:55:27.743,22.44,2.9,7.37,0.05,0.38,0.93,-1.11,-0.17,-0.8,30.27,19.54,-17.98,0.32,0.48,0.77,-1.24,1.2,0.07
1900-01-01 11:55:27.838,22.35,2.75,7.4,0.05,0.38,0.92,-0.87,-0.21,-0.5,30.18,19.47,-17.98,0.32,0.48,0.77,-1.29,1.29,0.26
1900-01-01 11:55:27.885,22.76,2.75,7.48,0.05,0.39,0.93,-0.75,-0.34,-0.66,30.65,19.31,-17.95,0.32,0.49,0.77,-1.31,1.35,0.24
1900-01-01 11:55:27.979,22.03,2.86,7.54,0.05,0.38,0.93,-1.53,-0.11,-0.74,29.45,19.71,-17.92,0.33,0.47,0.77,-1.92,1.34,0.31
1900-01-01 11:55:28.073,22.34,2.86,7.59,0.05,0.38,0.93,-1.01,-0.2,-1.2,29.76,19.68,-17.88,0.32,0.48,0.77,-1.72,1.2,-0.05
1900-01-01 11:55:28.121,22.29,2.72,7.56,0.05,0.38,0.93,-0.36,-0.24,-1.05,29.79,19.51,-17.9,0.32,0.48,0.77,-1.4,1.03,-0.08
1900-01-01 11:55:28.214,22.23,2.72,7.56,0.05,0.38,0.92,0.29,-0.67,-1.01,30.24,19.44,-17.92,0.32,0.49,0.77,-0.96,1.07,-0.21
1900-01-01 11:55:28.260,21.91,2.98,7.57,0.05,0.38,0.94,-1.05,0.26,-1.31,30.01,19.7,-17.96,0.32,0.48,0.77,-1.67,1.34,-0.15
1900-01-01 11:55:28.354,22.57,2.76,7.53,0.05,0.38,0.92,-0.22,-0.26,-0.84,30.49,19.13,-17.99,0.32,0.49,0.77,-0.81,1.05,-0.16
1900-01-01 11:55:28.450,22.31,2.98,7.56,0.05,0.38,0.93,-0.72,-0.47,-0.52,29.59,19.75,-18.02,0.33,0.48,0.77,-0.87,1.12,-0.03
1900-01-01 11:55:28.497,22.58,2.78,7.64,0.05,0.39,0.93,-0.85,0.22,-0.88,30.29,19.29,-18.04,0.32,0.49,0.77,-1.48,1.39,0.02
1900-01-01 11:55:28.591,22.01,2.52,7.66,0.04,0.37,0.92,-1.38,-0.18,-1.02,29.58,19.43,-18.04,0.32,0.47,0.77,-1.26,1.37,-0.02
1900-01-01 11:55:28.687,22.38,3.24,7.66,0.06,0.38,0.93,-0.88,-0.15,-0.98,30.23,19.66,-18.05,0.33,0.49,0.77,-1.44,1.34,-0.05
1900-01-01 11:55:28.731,22.35,2.35,7.67,0.04,0.38,0.92,-0.4,-0.24,-0.79,30.09,19.21,-18.07,0.32,0.48,0.77,-1.29,1.44,0.15
1900-01-01 11:55:28.826,22.19,2.75,7.71,0.05,0.38,0.93,-1.14,-0.08,-0.74,29.85,19.55,-18.05,0.32,0.48,0.77,-1.04,1.34,0.08
1900-01-01 11:55:28.873,22.27,2.79,7.75,0.05,0.38,0.93,-0.61,-0.32,-0.6,29.81,19.5,-18.05,0.32,0.48,0.77,-1.19,1.18,0.16
1900-01-01 11:55:28.970,22.06,2.78,7.82,0.05,0.38,0.93,-0.18,-0.5,-0.98,30.13,19.52,-18.03,0.32,0.48,0.77,-1.06,1.11,-0.15
1900-01-01 11:55:29.023,22.15,2.91,7.83,0.05,0.38,0.93,-0.48,-0.36,-1.17,30.22,19.45,-18.06,0.32,0.49,0.77,-1.07,1.22,-0.2
1900-01-01 11:55:29.110,22.15,2.71,7.81,0.05,0.38,0.93,-0.4,-0.37,-1.22,30.35,19.28,-18.1,0.32,0.49,0.77,-1.11,1.21,-0.22
1900-01-01 11:55:29.205,22.29,2.77,7.78,0.05,0.38,0.92,-0.44,-0.27,-1.15,29.91,19.5,-18.15,0.32,0.48,0.77,-1.01,1.13,-0.27
1900-01-01 11:55:29.252,22.45,2.86,7.77,0.05,0.38,0.93,-0.46,-0.39,-0.98,30.0,19.56,-18.2,0.32,0.48,0.77,-1.11,1.18,-0.1
1900-01-01 11:55:29.347,22.61,2.44,7.77,0.04,0.39,0.92,-1.07,-0.08,-0.77,29.94,19.34,-18.22,0.32,0.48,0.77,-1.32,1.27,0.1
1900-01-01 11:55:29.411,22.2,2.84,7.81,0.05,0.38,0.93,-0.87,-0.24,-0.87,30.08,19.71,-18.21,0.33,0.48,0.77,-1.13,1.33,0.02
1900-01-01 11:55:29.505,22.08,2.56,7.84,0.04,0.38,0.92,-0.65,-0.08,-0.77,29.63,19.51,-18.22,0.32,0.47,0.77,-0.92,1.22,-0.12
1900-01-01 11:55:29.555,22.79,2.91,7.88,0.05,0.39,0.93,-0.53,-0.22,-0.82,30.81,19.49,-18.24,0.32,0.5,0.77,-1.3,1.37,0.09
1900-01-01 11:55:29.647,22.34,2.54,7.92,0.04,0.38,0.93,-0.98,-0.09,-1.01,30.19,19.29,-18.24,0.32,0.48,0.77,-1.55,1.36,0.08
1900-01-01 11:55:29.742,22.3,2.66,7.92,0.05,0.38,0.93,-1.24,-0.11,-0.98,30.27,19.5,-18.23,0.32,0.49,0.77,-1.35,1.28,0.08
1900-01-01 11:55:29.790,21.94,2.65,7.93,0.05,0.37,0.93,-0.96,-0.02,-0.9,29.87,19.55,-18.23,0.32,0.48,0.77,-1.42,1.3,0.01
1900-01-01 11:55:29.883,22.17,2.54,7.95,0.04,0.38,0.93,-0.52,-0.32,-0.82,30.31,19.45,-18.24,0.32,0.49,0.77,-0.82,1.25,-0.05
1900-01-01 11:55:29.977,22.07,2.76,7.98,0.05,0.38,0.93,-0.93,-0.23,-0.93,30.23,19.39,-18.26,0.32,0.48,0.77,-1.37,1.32,-0.01
1900-01-01 11:55:30.024,22.24,2.81,8.0,0.05,0.38,0.93,-0.63,-0.4,-0.93,30.24,19.41,-18.27,0.32,0.49,0.77,-1.18,1.23,0.01
1900-01-01 11:55:30.122,22.05,2.7,8.02,0.05,0.38,0.93,-0.73,-0.2,-0.78,29.98,19.5,-18.27,0.32,0.48,0.77,-1.21,1.17,0.05
1900-01-01 11:55:30.166,22.32,2.71,8.06,0.05,0.38,0.93,-0.66,-0.24,-0.76,30.1,19.61,-18.27,0.32,0.48,0.77,-1.23,1.28,0.1
1900-01-01 11:55:30.258,22.22,2.53,8.1,0.04,0.38,0.93,-0.62,-0.26,-1.03,30.1,19.41,-18.27,0.32,0.48,0.77,-1.56,1.25,0.04
1900-01-01 11:55:30.353,22.07,2.69,8.1,0.05,0.38,0.93,-0.16,-0.47,-0.77,30.27,19.48,-18.27,0.32,0.49,0.77,-1.34,1.37,0.2
1900-01-01 11:55:30.399,22.58,2.74,8.14,0.05,0.39,0.93,-0.19,-0.36,-0.56,30.33,19.31,-18.25,0.32,0.49,0.77,-1.44,1.43,0.16
1900-01-01 11:55:30.493,22.46,3.25,8.21,0.06,0.39,0.93,-0.4,0.15,-1.44,29.62,19.99,-18.23,0.33,0.48,0.77,-2.11,1.62,-0.25
1900-01-01 11:55:30.589,22.6,1.97,8.15,0.03,0.39,0.92,-0.82,0.51,-1.69,29.83,18.96,-18.28,0.31,0.48,0.77,-1.2,1.58,-0.21
1900-01-01 11:55:30.636,21.97,2.84,8.05,0.05,0.37,0.93,-1.56,0.85,-1.85,29.85,19.48,-18.32,0.32,0.48,0.77,-1.83,1.5,-0.05
1900-01-01 11:55:30.715,22.43,2.21,7.93,0.04,0.38,0.92,-1.63,0.08,-0.91,30.27,19.29,-18.33,0.32,0.49,0.77,-1.68,1.16,0.31
1900-01-01 11:55:30.810,21.96,2.1,7.95,0.04,0.37,0.93,-1.59,-0.2,-0.27,29.84,19.16,-18.3,0.32,0.48,0.78,-1.35,1.13,0.44
1900-01-01 11:55:30.857,21.66,2.71,8.07,0.05,0.37,0.93,-0.35,-0.78,-0.66,29.65,19.55,-18.24,0.32,0.48,0.77,-0.63,0.88,-0.12
1900-01-01 11:55:30.954,22.13,2.42,8.13,0.04,0.38,0.93,-0.15,-0.17,-0.91,30.42,19.14,-18.26,0.32,0.49,0.77,-1.17,1.3,-0.08
1900-01-01 11:55:31.045,21.86,2.55,8.15,0.04,0.37,0.93,-0.87,0.02,-1.25,29.85,19.44,-18.29,0.32,0.48,0.77,-1.39,1.35,-0.12
1900-01-01 11:55:31.092,21.83,2.36,8.11,0.04,0.37,0.93,-0.54,-0.11,-1.09,29.72,19.5,-18.31,0.32,0.48,0.77,-1.18,1.24,-0.08
1900-01-01 11:55:31.185,21.75,2.17,8.11,0.04,0.37,0.93,-0.62,-0.27,-0.87,29.59,19.45,-18.33,0.32,0.48,0.78,-1.08,1.3,-0.04
1900-01-01 11:55:31.280,22.04,2.34,8.13,0.04,0.38,0.93,-0.37,-0.48,-0.74,29.78,19.46,-18.35,0.32,0.48,0.77,-1.02,1.11,0.08
1900-01-01 11:55:31.326,22.18,2.31,8.18,0.04,0.38,0.93,-0.53,-0.49,-0.7,30.0,19.51,-18.34,0.32,0.48,0.77,-0.89,1.2,0.06
1900-01-01 11:55:31.419,21.98,2.58,8.23,0.05,0.38,0.93,-0.79,-0.41,-0.8,29.64,19.5,-18.34,0.32,0.48,0.77,-1.22,1.09,-0.05
1900-01-01 11:55:31.467,21.86,2.21,8.26,0.04,0.37,0.93,-0.89,-0.21,-0.84,29.73,19.41,-18.36,0.32,0.48,0.77,-1.27,1.27,0.09
1900-01-01 11:55:31.560,22.15,2.54,8.29,0.04,0.38,0.93,-0.79,-0.26,-0.88,30.15,19.56,-18.35,0.32,0.49,0.77,-1.29,1.19,0.15
1900-01-01 11:55:31.654,22.19,2.23,8.32,0.04,0.38,0.93,-1.15,-0.08,-1.16,29.75,19.47,-18.34,0.32,0.48,0.77,-1.0,1.19,-0.18
1900-01-01 11:55:31.700,21.94,2.37,8.3,0.04,0.38,0.93,-0.9,0.08,-1.15,29.77,19.54,-18.38,0.32,0.48,0.77,-1.46,1.38,-0.11
1900-01-01 11:55:31.795,21.72,2.44,8.28,0.04,0.37,0.93,-1.47,0.01,-1.04,29.42,19.57,-18.4,0.32,0.47,0.77,-1.54,1.2,0.17
1900-01-01 11:55:31.841,21.99,2.28,8.28,0.04,0.38,0.93,-0.84,0.06,-0.94,30.28,19.59,-18.38,0.32,0.49,0.77,-1.28,1.24,0.02
1900-01-01 11:55:31.935,21.91,2.24,8.3,0.04,0.38,0.93,-0.48,-0.44,-1.02,30.23,19.27,-18.39,0.32,0.49,0.77,-0.94,1.12,-0.11
1900-01-01 11:55:32.030,21.59,2.28,8.3,0.04,0.37,0.93,-0.74,-0.29,-1.04,30.01,19.51,-18.41,0.32,0.48,0.77,-1.02,1.16,-0.11
1900-01-01 11:55:32.077,21.78,2.51,8.3,0.04,0.37,0.93,-0.76,-0.19,-0.85,29.77,19.66,-18.44,0.32,0.48,0.77,-1.02,1.15,0.03
1900-01-01 11:55:32.171,21.9,2.41,8.33,0.04,0.37,0.93,-0.25,-0.4,-0.74,30.1,19.62,-18.44,0.32,0.48,0.77,-1.08,1.16,0.05
1900-01-01 11:55:32.264,22.1,2.08,8.38,0.04,0.38,0.93,-0.81,0.03,-1.0,30.4,19.1,-18.44,0.32,0.49,0.77,-1.4,1.28,-0.1
1900-01-01 11:55:32.310,21.76,2.45,8.38,0.04,0.37,0.93,-1.01,-0.44,-1.19,29.53,19.66,-18.47,0.33,0.48,0.78,-0.98,1.09,-0.15
1900-01-01 11:55:32.403,21.44,2.42,8.36,0.04,0.37,0.93,0.01,-0.5,-0.56,29.64,19.61,-18.5,0.32,0.48,0.77,-0.99,1.13,0.02
1900-01-01 11:55:32.451,22.45,2.3,8.43,0.04,0.38,0.93,0.37,-0.62,-0.56,30.59,19.45,-18.5,0.32,0.49,0.77,-0.89,1.18,-0.08
1900-01-01 11:55:32.545,21.6,2.64,8.5,0.05,0.37,0.93,-0.46,-0.42,-0.78,29.65,19.62,-18.52,0.32,0.48,0.77,-1.36,1.31,-0.07
1900-01-01 11:55:32.637,21.96,2.68,8.54,0.05,0.37,0.93,0.15,-0.11,-0.81,29.82,19.77,-18.54,0.33,0.48,0.77,-0.98,1.18,-0.11
1900-01-01 11:55:32.686,22.37,2.33,8.58,0.04,0.38,0.93,0.31,-0.52,-0.75,30.21,19.39,-18.57,0.32,0.49,0.77,-0.75,1.15,-0.18
1900-01-01 11:55:32.782,22.39,2.55,8.62,0.04,0.38,0.93,-0.05,-0.08,-0.87,30.41,19.46,-18.6,0.32,0.49,0.77,-1.21,1.44,-0.16
1900-01-01 11:55:32.875,22.19,2.56,8.65,0.04,0.38,0.93,-0.96,-0.24,-0.87,30.3,19.44,-18.64,0.32,0.49,0.77,-1.39,1.31,0.0
1900-01-01 11:55:32.923,22.31,2.43,8.67,0.04,0.38,0.93,-0.4,0.15,-0.81,30.31,19.41,-18.64,0.32,0.49,0.77,-1.31,1.33,0.11
1900-01-01 11:55:33.013,22.53,2.37,8.71,0.04,0.38,0.93,-0.71,-0.18,-0.54,30.38,19.13,-18.64,0.32,0.49,0.77,-1.15,1.19,0.18
1900-01-01 11:55:33.105,21.44,2.72,8.79,0.05,0.37,0.94,-0.98,0.02,-0.85,28.85,20.26,-18.62,0.33,0.47,0.78,-1.22,1.24,-0.09
1900-01-01 11:55:33.152,22.18,2.55,8.81,0.04,0.38,0.93,-0.68,-0.24,-1.15,29.67,19.62,-18.64,0.32,0.48,0.77,-1.62,1.18,-0.16
1900-01-01 11:55:33.247,22.28,2.24,8.8,0.04,0.38,0.93,-0.8,-0.31,-0.73,29.64,19.84,-18.67,0.33,0.48,0.77,-1.31,1.18,0.09
1900-01-01 11:55:33.294,22.9,2.32,8.84,0.04,0.39,0.93,-0.88,-0.05,-0.47,30.55,19.16,-18.67,0.32,0.49,0.77,-1.41,1.43,0.34
1900-01-01 11:55:33.387,22.59,2.44,8.93,0.04,0.39,0.93,-0.57,-0.37,-0.9,30.74,19.39,-18.62,0.32,0.49,0.76,-1.5,1.32,0.16
1900-01-01 11:55:33.480,22.0,2.74,8.95,0.05,0.38,0.93,-0.44,-0.18,-1.18,30.62,19.52,-18.61,0.32,0.49,0.77,-1.15,1.24,-0.2
1900-01-01 11:55:33.527,21.81,2.11,8.93,0.04,0.37,0.93,-0.97,-0.05,-1.09,29.98,19.41,-18.65,0.32,0.48,0.77,-1.15,1.24,-0.09
1900-01-01 11:55:33.620,22.25,2.53,8.92,0.04,0.38,0.93,-0.69,-0.15,-0.91,30.19,19.63,-18.67,0.32,0.49,0.77,-1.12,1.26,0.02
1900-01-01 11:55:33.715,22.12,2.33,8.94,0.04,0.38,0.93,-0.72,-0.35,-0.89,29.75,19.68,-18.68,0.32,0.48,0.77,-1.37,1.21,-0.07
1900-01-01 11:55:33.762,22.24,2.19,8.96,0.04,0.38,0.93,-0.41,-0.15,-1.2,30.19,19.44,-18.69,0.32,0.49,0.77,-1.37,1.36,-0.04
1900-01-01 11:55:33.856,22.0,2.47,8.94,0.04,0.38,0.93,-1.16,-0.26,-0.98,30.08,19.68,-18.71,0.32,0.48,0.77,-1.4,1.22,0.03
1900-01-01 11:55:33.903,22.12,2.49,8.95,0.04,0.38,0.93,-1.02,-0.08,-0.76,30.02,19.56,-18.71,0.32,0.48,0.77,-1.37,1.23,0.15
1900-01-01 11:55:33.998,22.04,2.21,8.99,0.04,0.38,0.93,-1.72,-0.38,-0.81,30.09,19.71,-18.7,0.33,0.48,0.77,-1.34,1.21,0.06
1900-01-01 11:55:34.092,21.58,2.4,9.03,0.04,0.37,0.93,-0.72,0.11,-1.08,29.81,19.53,-18.7,0.32,0.48,0.77,-1.67,1.47,-0.07
1900-01-01 11:55:34.139,21.91,2.17,9.02,0.04,0.37,0.93,-0.24,-0.36,-0.89,30.09,19.36,-18.72,0.32,0.48,0.77,-1.16,1.18,-0.01
1900-01-01 11:55:34.233,22.1,2.56,9.04,0.04,0.38,0.93,-0.37,0.04,-0.93,30.22,19.77,-18.73,0.33,0.49,0.77,-1.14,1.27,-0.07
1900-01-01 11:55:34.327,21.98,2.17,9.06,0.04,0.37,0.93,-0.78,-0.04,-0.8,29.82,19.43,-18.74,0.32,0.48,0.77,-1.37,1.27,0.11
1900-01-01 11:55:34.373,21.85,2.58,9.1,0.05,0.37,0.93,-0.63,-0.15,-0.98,29.76,19.73,-18.74,0.33,0.48,0.77,-1.56,1.25,0.08
1900-01-01 11:55:34.469,21.57,2.38,9.1,0.04,0.37,0.93,-0.29,-0.24,-1.02,29.83,19.71,-18.73,0.33,0.48,0.77,-1.08,1.1,-0.15
1900-01-01 11:55:34.515,20.92,2.27,9.11,0.04,0.36,0.93,0.3,0.33,-0.79,29.65,19.13,-18.76,0.32,0.48,0.78,-0.08,0.26,1.01
1900-01-01 11:55:34.608,23.16,2.05,9.15,0.04,0.39,0.92,0.53,-0.44,-0.89,30.5,20.01,-18.62,0.33,0.49,0.76,0.79,-0.21,1.58
1900-01-01 11:55:34.702,23.51,2.45,9.17,0.04,0.39,0.91,0.21,1.46,-3.11,30.06,13.35,-18.39,0.24,0.52,0.87,-1.02,-17.28,2.89
1900-01-01 11:55:34.749,22.61,2.01,8.85,0.04,0.39,0.94,-1.21,0.61,-0.16,30.2,24.06,-17.95,0.4,0.49,0.74,1.22,-26.08,5.69
1900-01-01 11:55:34.843,21.46,0.51,8.99,0.01,0.37,0.95,-1.59,-1.27,-0.34,28.8,31.5,-17.09,0.5,0.46,0.68,-3.08,-25.11,4.88
1900-01-01 11:55:34.937,23.33,-5.86,9.09,-0.11,0.42,0.96,-3.68,-7.92,3.37,26.32,25.83,-16.36,0.53,0.53,0.94,-4.31,-38.83,17.7
1900-01-01 11:55:34.982,17.82,5.92,9.77,0.12,0.34,1.07,-16.88,-29.89,6.62,26.68,37.15,-13.65,0.75,0.56,0.82,-16.6,-86.47,52.81
1900-01-01 11:55:35.076,13.44,19.53,10.95,0.4,0.28,1.08,-32.54,-36.16,8.0,9.63,80.31,-5.52,1.19,0.2,-0.02,-31.56,-65.49,34.56
1900-01-01 11:55:35.122,12.17,23.69,12.34,0.39,0.21,0.87,-15.47,-24.56,10.49,9.7,79.37,-0.18,0.89,0.15,0.07,-32.6,60.25,-36.13
1900-01-01 11:55:35.216,5.52,19.65,14.12,0.25,0.07,0.69,7.8,2.15,1.42,19.82,25.01,-5.78,0.39,0.31,0.77,-14.36,27.27,-32.05
1900-01-01 11:55:35.311,7.26,13.41,14.5,0.2,0.11,0.84,-5.54,5.14,1.94,17.96,32.44,-10.68,0.47,0.27,0.69,-1.99,-0.89,-4.8
1900-01-01 11:55:35.357,4.28,17.87,14.95,0.33,0.08,1.02,-11.73,5.23,-1.25,12.64,48.08,-11.42,0.75,0.22,0.64,-7.98,1.03,7.14
1900-01-01 11:55:35.451,11.39,19.03,14.92,0.36,0.22,1.02,-6.87,8.21,6.95,21.86,45.78,-10.34,0.77,0.4,0.63,-3.02,-1.27,12.54
1900-01-01 11:55:35.545,8.36,13.33,16.14,0.23,0.15,0.97,-1.08,1.73,5.66,7.0,51.81,-8.43,0.79,0.12,0.61,12.38,-9.73,19.99
1900-01-01 11:55:35.592,4.35,11.49,17.16,0.2,0.08,0.97,-0.89,-3.33,-5.02,2.61,52.82,-5.4,0.84,0.05,0.64,10.54,-16.19,6.92
1900-01-01 11:55:35.686,11.15,14.7,16.55,0.27,0.21,1.01,1.25,-8.09,-6.5,8.13,57.2,-4.35,0.87,0.15,0.54,1.45,-12.5,-8.31
1900-01-01 11:55:35.731,7.54,15.09,15.72,0.25,0.13,0.93,1.27,-10.6,-3.55,15.79,53.53,-5.63,0.74,0.25,0.48,4.1,3.51,-10.46
1900-01-01 11:55:35.826,11.96,16.17,15.33,0.28,0.21,0.95,-1.79,-8.12,-1.35,16.5,52.17,-7.23,0.76,0.27,0.53,0.75,0.13,-4.86
1900-01-01 11:55:35.922,8.85,19.49,15.29,0.34,0.16,0.96,4.11,-7.54,-4.51,20.44,52.0,-7.99,0.77,0.34,0.5,5.82,-4.42,-6.02
1900-01-01 11:55:35.970,8.74,20.88,14.76,0.35,0.15,0.91,2.53,-1.44,-0.6,18.2,54.65,-8.91,0.76,0.29,0.46,-0.67,2.19,-3.6
1900-01-01 11:55:36.061,7.69,18.22,14.82,0.31,0.13,0.94,-1.15,1.73,-6.83,15.38,52.65,-9.47,0.81,0.27,0.55,-1.72,1.42,-5.51
1900-01-01 11:55:36.156,12.06,20.78,13.94,0.37,0.22,0.94,2.71,-0.5,-2.7,21.66,52.12,-10.32,0.79,0.37,0.49,-4.81,3.69,0.92
1900-01-01 11:55:36.202,10.03,19.56,13.69,0.35,0.18,0.96,0.84,0.03,-2.27,18.41,52.19,-10.19,0.81,0.32,0.54,-0.93,2.8,-1.78
1900-01-01 11:55:36.297,11.63,20.35,13.5,0.35,0.21,0.93,1.86,-0.8,-0.85,20.17,51.47,-10.47,0.78,0.34,0.52,1.24,1.11,-0.24
1900-01-01 11:55:36.344,11.33,19.87,13.53,0.35,0.2,0.95,1.05,-0.71,-1.41,19.95,51.76,-10.51,0.79,0.35,0.52,0.63,1.21,-0.86
1900-01-01 11:55:36.437,12.17,19.8,13.47,0.35,0.22,0.96,0.16,-1.56,-1.23,20.39,52.03,-10.65,0.81,0.36,0.52,-1.41,1.32,-0.35
1900-01-01 11:55:36.534,9.68,21.47,13.44,0.36,0.17,0.91,0.99,0.84,-1.89,20.95,53.56,-10.71,0.79,0.35,0.47,1.18,-3.73,0.98
1900-01-01 11:55:36.580,12.38,20.41,13.31,0.36,0.22,0.94,0.18,0.63,0.53,22.16,52.47,-10.57,0.8,0.38,0.48,-1.59,3.37,1.5
1900-01-01 11:55:36.675,11.7,20.4,13.55,0.36,0.21,0.94,-2.7,1.15,2.9,17.14,52.99,-10.35,0.8,0.29,0.52,-2.12,4.95,3.44
1900-01-01 11:55:36.724,11.49,20.34,14.15,0.36,0.21,0.95,-1.69,0.63,1.86,22.16,51.27,-9.84,0.79,0.38,0.51,-1.18,3.1,4.26
1900-01-01 11:55:36.817,9.45,19.78,14.59,0.34,0.17,0.94,-1.77,0.18,2.21,17.12,53.36,-9.2,0.81,0.3,0.52,-0.88,2.09,2.03
1900-01-01 11:55:36.910,9.38,19.49,15.09,0.34,0.16,0.94,-0.65,0.92,4.02,17.03,51.95,-8.9,0.79,0.29,0.54,-0.56,3.4,6.33
1900-01-01 11:55:36.958,8.69,19.53,15.86,0.34,0.15,0.95,2.24,-3.9,-0.51,16.01,52.05,-7.95,0.79,0.27,0.55,2.5,0.7,0.6
1900-01-01 11:55:37.054,10.56,18.32,15.94,0.31,0.18,0.93,-0.82,-2.79,-2.34,17.09,51.41,-7.86,0.78,0.29,0.55,0.82,-0.15,-0.53
1900-01-01 11:55:37.147,9.79,20.57,15.74,0.35,0.17,0.91,0.24,-1.01,-2.98,18.81,53.63,-7.95,0.77,0.31,0.48,1.45,-3.62,0.79
1900-01-01 11:55:37.195,9.89,19.38,15.44,0.34,0.17,0.94,-0.6,0.31,-2.41,17.78,53.8,-7.84,0.82,0.31,0.51,0.21,-0.29,1.24
1900-01-01 11:55:37.288,11.05,19.17,15.23,0.35,0.21,1.0,0.7,-3.86,0.06,18.78,53.57,-7.66,0.85,0.34,0.53,-2.21,6.76,-0.42
1900-01-01 11:55:37.337,10.66,20.89,15.4,0.34,0.18,0.87,0.24,-1.18,-0.68,18.83,53.23,-7.73,0.74,0.3,0.46,-0.44,0.75,-1.98
1900-01-01 11:55:37.432,9.29,20.88,15.46,0.35,0.16,0.9,-0.98,1.66,-2.22,18.07,52.77,-8.04,0.77,0.3,0.5,0.71,-1.89,-2.02
1900-01-01 11:55:37.527,7.53,21.58,15.28,0.38,0.14,0.96,0.24,-0.66,-2.79,22.73,53.47,-8.36,0.81,0.39,0.46,-0.93,-1.88,-7.76
1900-01-01 11:55:37.573,10.52,22.63,15.01,0.4,0.19,0.94,0.02,-0.08,-0.44,20.52,52.73,-9.56,0.79,0.35,0.49,-2.34,3.72,-2.5
1900-01-01 11:55:37.665,10.68,19.34,15.1,0.33,0.18,0.91,1.1,2.56,-1.85,22.33,50.23,-9.95,0.76,0.38,0.51,2.27,-0.07,-2.6
1900-01-01 11:55:37.714,10.27,19.28,14.98,0.35,0.19,0.97,0.54,0.41,-1.6,21.87,52.38,-10.35,0.82,0.38,0.5,0.74,1.69,-1.95
1900-01-01 11:55:37.808,11.34,20.88,14.89,0.36,0.2,0.94,3.53,-0.1,-1.41,22.16,52.36,-10.66,0.79,0.38,0.48,0.46,3.4,-0.5
1900-01-01 11:55:37.902,11.41,20.25,14.83,0.35,0.2,0.93,0.15,0.6,-1.85,21.07,52.53,-10.74,0.77,0.35,0.47,-0.9,1.63,-0.85
1900-01-01 11:55:37.949,10.85,18.53,14.71,0.33,0.2,0.96,-2.16,0.76,-1.08,20.51,52.91,-10.88,0.8,0.35,0.49,-1.08,3.98,-1.29
1900-01-01 11:55:38.043,11.35,19.68,14.7,0.35,0.21,0.97,-2.66,-0.47,-1.27,22.42,52.09,-11.09,0.81,0.39,0.5,-1.99,0.92,-0.82
1900-01-01 11:55:38.139,11.52,19.55,14.67,0.35,0.21,0.95,-0.05,-0.9,-1.09,22.05,52.32,-11.22,0.8,0.38,0.49,-2.82,6.05,-1.96
1900-01-01 11:55:38.185,11.86,19.74,14.66,0.34,0.21,0.92,0.02,-0.11,-1.79,22.23,50.85,-11.53,0.76,0.37,0.49,-1.66,1.73,-0.97
1900-01-01 11:55:38.279,12.65,19.58,14.54,0.34,0.22,0.93,0.35,0.19,-2.04,23.16,50.17,-11.69,0.77,0.39,0.5,-0.72,1.6,-0.67
1900-01-01 11:55:38.326,11.02,20.04,14.39,0.35,0.19,0.93,-0.08,0.88,-1.78,21.6,50.76,-11.8,0.77,0.36,0.51,-1.95,2.37,-1.31
1900-01-01 11:55:38.418,12.44,19.18,14.27,0.34,0.22,0.94,0.53,0.55,-1.18,22.82,50.02,-12.01,0.76,0.39,0.51,-2.43,3.36,-0.65
1900-01-01 11:55:38.514,12.34,19.45,14.25,0.34,0.22,0.95,0.84,-0.17,-2.17,22.73,50.36,-12.11,0.77,0.39,0.51,-1.0,1.58,-1.46
1900-01-01 11:55:38.561,12.59,19.14,14.08,0.34,0.22,0.94,0.32,0.0,-2.1,22.51,49.82,-12.35,0.76,0.38,0.52,-1.13,0.95,-0.76
1900-01-01 11:55:38.654,12.69,19.24,13.92,0.34,0.22,0.94,0.28,-0.5,-1.56,23.19,49.82,-12.47,0.76,0.39,0.51,-1.15,1.32,-0.92
1900-01-01 11:55:38.737,12.68,19.45,13.84,0.34,0.22,0.94,0.76,-0.37,-1.76,23.37,49.8,-12.62,0.76,0.4,0.51,-0.84,1.23,-0.89
1900-01-01 11:55:38.828,12.54,19.45,13.72,0.34,0.22,0.93,0.27,-0.67,-1.54,23.29,49.71,-12.76,0.76,0.39,0.51,-1.18,1.38,-0.95
1900-01-01 11:55:38.874,12.96,19.05,13.65,0.33,0.23,0.93,-0.11,-0.54,-1.47,23.05,49.63,-12.92,0.75,0.38,0.51,-1.27,1.11,-0.87
1900-01-01 11:55:38.968,13.15,19.28,13.58,0.34,0.23,0.94,-0.05,-0.49,-1.37,23.77,49.58,-13.06,0.77,0.41,0.51,-1.3,1.32,-0.55
1900-01-01 11:55:39.015,13.78,19.46,13.53,0.34,0.24,0.93,0.05,-0.44,-1.29,23.78,49.38,-13.15,0.75,0.4,0.51,-1.29,1.23,-0.48
1900-01-01 11:55:39.110,13.38,19.48,13.49,0.34,0.24,0.93,-0.06,-0.3,-1.14,23.57,49.55,-13.24,0.76,0.4,0.51,-1.15,1.37,-0.41
1900-01-01 11:55:39.203,13.53,19.31,13.47,0.34,0.24,0.93,-0.11,-0.42,-1.02,23.32,49.42,-13.31,0.75,0.39,0.51,-1.4,1.44,-0.3
1900-01-01 11:55:39.250,13.65,19.32,13.47,0.34,0.24,0.93,-0.31,-0.13,-1.16,23.8,49.32,-13.36,0.75,0.4,0.51,-1.57,1.19,0.03
1900-01-01 11:55:39.344,13.76,19.21,13.46,0.34,0.24,0.94,-0.24,-0.15,-1.09,23.59,49.28,-13.37,0.76,0.4,0.52,-1.44,1.3,-0.17
1900-01-01 11:55:39.437,13.72,19.3,13.45,0.34,0.24,0.93,-0.05,-0.33,-1.04,23.71,49.18,-13.4,0.75,0.4,0.51,-1.35,1.42,-0.21
1900-01-01 11:55:39.484,13.47,19.09,13.45,0.33,0.24,0.93,-0.75,-0.05,-0.98,23.48,49.23,-13.44,0.75,0.4,0.51,-1.52,1.39,0.12
1900-01-01 11:55:39.580,13.67,19.02,13.45,0.33,0.24,0.93,-1.27,0.05,-1.05,23.19,49.33,-13.43,0.75,0.39,0.52,-1.66,1.34,0.44
1900-01-01 11:55:39.627,13.6,19.14,13.45,0.33,0.24,0.93,-0.6,-0.09,-1.17,23.48,49.32,-13.37,0.75,0.4,0.51,-1.61,1.41,0.08
1900-01-01 11:55:39.721,13.53,19.41,13.43,0.34,0.24,0.93,-0.48,-0.23,-1.02,23.33,49.36,-13.37,0.75,0.39,0.51,-1.56,1.45,-0.21
1900-01-01 11:55:39.816,13.57,19.02,13.43,0.33,0.24,0.93,-0.6,-0.01,-0.85,22.92,49.39,-13.41,0.75,0.39,0.52,-1.5,1.44,0.27
1900-01-01 11:55:39.862,13.54,19.1,13.46,0.33,0.24,0.93,-0.82,0.37,-0.91,22.27,49.76,-13.38,0.76,0.38,0.52,-1.97,1.3,0.75
1900-01-01 11:55:39.955,13.68,18.87,13.48,0.33,0.24,0.94,-0.34,-0.07,-1.52,23.69,48.98,-13.27,0.75,0.4,0.52,-1.61,1.65,-0.24
1900-01-01 11:55:40.051,13.27,18.93,13.4,0.33,0.23,0.93,-0.43,0.02,-1.46,22.72,49.37,-13.32,0.76,0.39,0.52,-1.47,1.58,-0.56
1900-01-01 11:55:40.097,13.99,19.08,13.34,0.33,0.24,0.93,-0.6,0.5,-1.47,23.67,48.94,-13.41,0.75,0.4,0.51,-1.98,1.19,0.08
1900-01-01 11:55:40.191,13.45,18.59,13.27,0.32,0.24,0.94,-1.11,0.57,-1.76,22.64,49.3,-13.41,0.76,0.39,0.53,-1.74,2.02,-0.23
1900-01-01 11:55:40.284,13.98,18.69,13.16,0.33,0.25,0.94,-0.56,-0.39,-1.24,23.24,48.93,-13.45,0.76,0.4,0.53,-1.07,1.64,-0.7
1900-01-01 11:55:40.332,13.92,18.93,13.13,0.33,0.25,0.94,0.0,-1.13,-0.4,22.74,49.43,-13.57,0.76,0.39,0.52,-1.07,1.74,-0.65
1900-01-01 11:55:40.425,13.61,19.77,13.23,0.35,0.24,0.94,0.21,-0.93,-1.09,23.81,48.64,-13.68,0.76,0.41,0.53,-0.18,-0.66,-0.18
1900-01-01 11:55:40.474,14.15,19.59,13.22,0.35,0.26,0.95,0.57,-4.14,-0.63,22.96,49.19,-13.71,0.78,0.4,0.54,-0.85,-1.12,-0.12
1900-01-01 11:55:40.568,14.74,19.03,13.28,0.33,0.26,0.92,-0.71,-5.97,-0.46,23.28,49.26,-13.74,0.74,0.39,0.51,-0.46,-3.34,-1.92
1900-01-01 11:55:40.662,14.52,20.5,13.37,0.35,0.25,0.9,-1.66,-3.71,-1.06,23.87,49.5,-14.04,0.73,0.39,0.49,0.14,-4.4,-0.95
1900-01-01 11:55:40.709,13.83,19.9,13.36,0.35,0.24,0.93,-0.27,-3.15,-1.76,23.61,50.19,-14.2,0.78,0.41,0.51,-0.05,-4.06,-1.99
1900-01-01 11:55:40.788,14.31,21.97,13.25,0.38,0.25,0.91,0.02,-4.14,-1.82,24.04,52.38,-14.51,0.79,0.4,0.45,-0.44,-2.64,-2.85
1900-01-01 11:55:40.882,14.41,21.72,13.13,0.37,0.25,0.9,-1.1,-2.71,-1.55,24.34,51.6,-14.96,0.77,0.4,0.46,-0.89,-1.32,-1.02
1900-01-01 11:55:40.928,15.09,22.35,13.05,0.39,0.27,0.91,-0.6,-1.81,-1.55,25.35,51.42,-15.13,0.78,0.43,0.45,-0.75,-0.18,-0.44
1900-01-01 11:55:41.022,15.68,22.62,12.97,0.39,0.27,0.89,-0.98,0.4,-0.24,26.39,51.07,-15.2,0.76,0.43,0.43,-1.5,2.61,0.83
1900-01-01 11:55:41.119,13.92,22.42,13.09,0.39,0.25,0.91,-2.53,1.92,0.27,23.28,51.95,-15.08,0.8,0.4,0.48,-1.76,1.66,2.6
1900-01-01 11:55:41.165,14.43,22.14,13.29,0.39,0.26,0.92,-1.72,0.86,0.63,24.09,51.68,-14.7,0.8,0.41,0.47,-1.53,1.72,2.17
1900-01-01 11:55:41.259,13.76,21.66,13.55,0.37,0.24,0.9,-1.69,1.11,1.25,25.14,51.14,-14.37,0.76,0.41,0.45,-0.8,2.53,4.0
1900-01-01 11:55:41.358,14.46,22.53,13.9,0.39,0.26,0.91,-2.32,3.34,2.69,23.28,52.47,-13.77,0.79,0.4,0.46,-2.36,3.6,3.9
1900-01-01 11:55:41.401,12.33,21.9,14.47,0.37,0.21,0.9,-1.7,3.49,1.37,21.9,53.24,-13.19,0.78,0.36,0.45,-2.25,2.88,3.17
1900-01-01 11:55:41.495,11.79,19.86,14.83,0.34,0.21,0.92,-2.38,3.64,0.2,19.15,52.07,-12.71,0.8,0.33,0.53,-1.41,2.88,3.98
1900-01-01 11:55:41.543,13.57,20.56,15.02,0.36,0.24,0.94,-0.31,-0.27,-0.82,22.81,52.26,-12.11,0.79,0.39,0.47,-0.95,2.56,0.3
1900-01-01 11:55:41.636,12.5,19.62,15.05,0.34,0.22,0.93,-1.79,0.8,-0.94,19.81,52.36,-12.08,0.8,0.34,0.51,-0.37,1.85,0.63
1900-01-01 11:55:41.730,13.0,20.26,15.07,0.35,0.23,0.92,0.14,-1.11,-1.82,21.02,52.67,-11.99,0.76,0.34,0.47,-0.7,1.23,-0.05
1900-01-01 11:55:41.778,12.72,19.72,14.95,0.36,0.23,0.97,-2.98,-0.66,-2.47,19.55,55.47,-12.0,0.89,0.36,0.49,-5.17,4.49,-1.47
1900-01-01 11:55:41.872,9.44,24.19,14.73,0.44,0.18,0.97,2.51,-6.01,-2.97,19.98,54.15,-12.24,0.84,0.35,0.49,-6.56,17.43,-11.71
1900-01-01 11:55:41.965,14.66,23.26,14.43,0.39,0.25,0.87,4.0,-2.39,-3.53,30.11,41.65,-14.04,0.66,0.5,0.55,-2.93,13.75,1.1
1900-01-01 11:55:42.014,14.84,18.65,14.05,0.31,0.25,0.89,-2.31,0.6,-0.66,17.69,43.63,-13.88,0.67,0.3,0.64,-8.47,5.54,1.5
1900-01-01 11:55:42.106,12.34,20.5,14.11,0.36,0.22,0.94,-2.27,-0.07,-2.47,22.58,45.62,-13.66,0.72,0.39,0.59,-7.02,8.61,-3.23
1900-01-01 11:55:42.153,14.53,20.59,13.89,0.36,0.25,0.91,-1.08,0.15,-0.39,21.89,42.43,-14.17,0.66,0.36,0.62,-5.9,4.01,-0.69
1900-01-01 11:55:42.247,13.8,20.27,13.99,0.35,0.24,0.91,-1.24,-0.02,-0.02,20.37,45.14,-14.28,0.69,0.34,0.6,-1.13,2.34,-0.42
1900-01-01 11:55:42.340,16.97,18.7,14.14,0.31,0.29,0.89,3.15,-0.2,1.72,25.82,38.61,-14.36,0.62,0.43,0.64,2.06,-1.81,4.07
1900-01-01 11:55:42.386,12.0,21.04,14.56,0.35,0.21,0.9,-2.05,0.88,4.5,20.16,44.87,-13.74,0.68,0.33,0.59,4.02,-1.97,4.76
1900-01-01 11:55:42.482,9.97,25.12,15.41,0.45,0.18,0.94,-1.53,1.8,0.1,15.46,54.13,-13.03,0.8,0.26,0.52,4.18,0.89,-0.27
1900-01-01 11:55:42.575,17.19,19.76,15.58,0.36,0.32,0.95,-1.31,0.24,0.32,22.53,47.68,-13.08,0.75,0.39,0.56,-0.27,0.74,0.37
1900-01-01 11:55:42.621,16.21,18.94,15.79,0.33,0.28,0.91,1.69,0.98,1.44,25.18,43.39,-13.03,0.68,0.42,0.59,-0.34,-2.72,3.43
1900-01-01 11:55:42.715,12.04,22.29,16.17,0.39,0.21,0.93,-0.54,0.57,3.91,17.98,50.7,-12.51,0.76,0.3,0.54,-1.0,-0.39,0.23
1900-01-01 11:55:42.808,11.19,21.78,16.92,0.38,0.2,0.93,-1.33,0.19,1.74,18.29,52.47,-12.49,0.77,0.31,0.51,-0.79,1.45,-0.41
1900-01-01 11:55:42.855,12.68,20.92,17.35,0.37,0.22,0.93,-2.02,2.49,-1.43,21.89,48.62,-12.56,0.77,0.38,0.56,-1.11,-1.21,1.28
1900-01-01 11:55:42.951,12.4,21.75,17.29,0.38,0.22,0.94,-0.37,-0.91,-1.42,21.96,48.61,-12.37,0.77,0.38,0.56,-1.21,0.41,-0.02
1900-01-01 11:55:42.996,14.43,20.27,17.23,0.35,0.25,0.92,-0.76,-0.01,-1.84,22.91,49.53,-12.38,0.75,0.39,0.51,-0.43,-1.11,2.1
1900-01-01 11:55:43.092,12.2,21.99,17.11,0.38,0.22,0.93,0.08,-0.11,-2.73,22.0,49.05,-12.07,0.75,0.37,0.53,-2.35,1.56,-3.25
1900-01-01 11:55:43.184,11.68,21.27,16.85,0.37,0.21,0.94,-2.04,-0.06,-5.12,18.21,52.26,-12.57,0.78,0.31,0.52,-5.09,4.46,-5.56
1900-01-01 11:55:43.230,13.38,21.24,16.22,0.37,0.24,0.93,1.67,-0.85,-6.05,23.13,46.77,-13.44,0.73,0.4,0.56,-3.36,1.69,-2.34
1900-01-01 11:55:43.325,17.08,17.94,15.45,0.31,0.3,0.91,-1.53,-1.22,-2.56,25.57,42.89,-13.8,0.68,0.43,0.59,-3.9,1.6,0.24
1900-01-01 11:55:43.373,11.99,19.16,15.22,0.33,0.21,0.92,-3.61,0.59,-0.92,20.39,45.9,-13.78,0.71,0.34,0.6,-0.92,1.76,1.47
1900-01-01 11:55:43.467,13.71,19.36,15.23,0.34,0.25,0.94,-0.04,0.56,-1.21,22.33,46.52,-13.56,0.75,0.39,0.59,1.4,0.66,2.46
1900-01-01 11:55:43.562,13.24,20.52,15.21,0.36,0.24,0.94,0.66,-0.69,-0.79,21.92,48.29,-13.19,0.75,0.37,0.55,1.31,0.62,0.02
1900-01-01 11:55:43.609,13.85,20.22,15.25,0.36,0.25,0.94,2.84,-0.67,-1.15,24.52,47.58,-13.2,0.76,0.43,0.54,2.36,1.25,-1.06
1900-01-01 11:55:43.703,13.42,20.57,15.23,0.34,0.23,0.88,2.38,-0.24,-0.68,21.78,47.44,-13.37,0.68,0.34,0.52,1.76,-1.94,-3.04
1900-01-01 11:55:43.798,13.07,19.06,15.28,0.34,0.23,0.95,-2.74,1.58,-1.67,21.84,48.55,-13.84,0.78,0.39,0.57,-2.18,0.47,2.27
1900-01-01 11:55:43.845,12.97,20.39,15.19,0.37,0.24,0.97,-2.37,-2.17,-0.54,23.67,48.38,-13.5,0.78,0.42,0.55,-3.63,3.85,-0.09
1900-01-01 11:55:43.940,14.35,20.57,15.26,0.35,0.25,0.9,-0.18,-1.36,0.08,23.59,46.74,-13.53,0.69,0.38,0.53,-2.24,2.37,-0.47
1900-01-01 11:55:44.031,12.86,19.69,15.43,0.34,0.22,0.91,-1.36,0.97,-0.48,21.45,47.53,-13.61,0.72,0.36,0.55,-1.29,1.25,1.25
1900-01-01 11:55:44.079,13.34,20.92,15.52,0.37,0.24,0.93,-0.57,0.54,-0.64,23.0,47.54,-13.42,0.74,0.39,0.55,-1.69,1.83,-0.09
1900-01-01 11:55:44.173,12.99,19.75,15.58,0.34,0.23,0.92,-1.02,-0.05,-1.02,22.17,47.31,-13.45,0.72,0.37,0.55,-1.17,1.35,0.13
1900-01-01 11:55:44.218,13.48,20.19,15.58,0.35,0.24,0.92,0.32,0.59,-1.59,21.96,47.92,-13.44,0.74,0.37,0.56,-0.89,1.07,1.41
1900-01-01 11:55:44.314,13.55,19.9,15.5,0.35,0.24,0.94,-0.34,-0.1,-1.34,21.92,47.55,-13.23,0.73,0.37,0.55,-1.44,2.24,-0.25
1900-01-01 11:55:44.409,13.4,19.07,15.45,0.33,0.23,0.92,-1.79,1.37,-1.85,21.56,47.69,-13.28,0.74,0.37,0.56,-1.08,0.31,0.46
1900-01-01 11:55:44.456,13.35,20.53,15.32,0.37,0.24,0.95,-0.25,0.54,-0.45,22.59,48.29,-13.21,0.77,0.39,0.56,-0.83,1.73,0.29
1900-01-01 11:55:44.550,14.74,20.44,15.41,0.36,0.26,0.92,-0.43,0.16,0.4,25.7,46.76,-13.18,0.72,0.43,0.53,-0.8,1.34,1.58
1900-01-01 11:55:44.644,12.97,20.85,15.63,0.36,0.23,0.92,-3.05,3.24,4.03,21.78,49.11,-12.95,0.74,0.36,0.53,-0.17,5.47,5.06
1900-01-01 11:55:44.693,12.11,19.22,16.41,0.33,0.21,0.93,-2.51,4.23,3.42,21.32,47.08,-12.18,0.73,0.36,0.57,1.29,5.81,7.31
1900-01-01 11:55:44.786,10.54,19.58,17.09,0.34,0.18,0.93,-0.96,3.92,1.75,20.54,47.77,-11.08,0.72,0.34,0.56,-1.34,6.37,4.75
1900-01-01 11:55:44.833,11.17,17.58,17.51,0.31,0.2,0.97,-0.52,0.75,-0.56,19.64,47.23,-10.36,0.75,0.34,0.6,-0.34,2.37,1.35
1900-01-01 11:55:44.928,11.97,17.72,17.58,0.3,0.21,0.93,0.05,0.67,0.01,20.3,45.89,-10.16,0.7,0.34,0.58,-1.37,2.49,2.03
1900-01-01 11:55:45.022,11.11,16.9,17.74,0.29,0.2,0.95,-0.91,0.79,-0.08,20.25,47.52,-9.86,0.72,0.34,0.57,-2.08,3.34,2.18
1900-01-01 11:55:45.069,11.65,16.7,17.89,0.29,0.2,0.94,-0.77,0.69,-1.78,18.79,45.92,-9.54,0.7,0.32,0.6,-3.39,2.76,0.95
1900-01-01 11:55:45.164,11.91,19.31,17.78,0.34,0.21,0.95,-0.6,1.95,-1.44,20.56,47.68,-9.4,0.73,0.35,0.57,-2.76,4.05,1.15
1900-01-01 11:55:45.209,10.92,17.12,17.72,0.3,0.2,0.97,-0.79,2.28,-1.75,18.63,47.02,-9.24,0.74,0.32,0.61,-2.36,3.96,1.14
1900-01-01 11:55:45.304,11.67,16.58,17.61,0.29,0.2,0.94,0.24,0.66,-1.51,18.9,45.67,-9.07,0.7,0.32,0.6,-2.35,3.18,0.05
1900-01-01 11:55:45.397,11.62,17.04,17.54,0.3,0.21,0.97,0.57,0.76,-1.15,18.66,45.05,-9.08,0.73,0.33,0.65,-1.62,4.4,-0.76
1900-01-01 11:55:45.446,11.79,16.83,17.52,0.3,0.21,0.95,0.33,0.38,-3.19,21.13,46.29,-9.2,0.73,0.36,0.6,1.04,-1.69,1.19
1900-01-01 11:55:45.540,11.46,16.51,17.19,0.29,0.2,0.96,0.37,-1.51,-1.6,18.76,46.27,-9.03,0.73,0.32,0.61,-0.56,0.3,-0.93
1900-01-01 11:55:45.632,12.74,17.86,17.11,0.31,0.22,0.94,0.43,-2.89,-0.45,21.86,45.56,-9.18,0.7,0.36,0.58,-2.18,2.15,0.02
1900-01-01 11:55:45.679,12.2,16.5,17.2,0.29,0.22,0.96,-0.8,-0.68,-1.69,20.01,45.48,-9.18,0.73,0.35,0.62,-0.58,1.05,-0.56
1900-01-01 11:55:45.775,12.05,17.15,17.1,0.3,0.21,0.95,0.71,-2.44,-0.78,18.45,47.29,-9.28,0.72,0.31,0.59,-0.11,0.95,-0.46
1900-01-01 11:55:45.820,12.6,17.69,17.14,0.31,0.22,0.94,-1.66,-1.49,-1.5,19.37,48.0,-9.35,0.73,0.33,0.57,-1.37,-0.63,-1.7
1900-01-01 11:55:45.915,12.39,17.9,17.06,0.31,0.22,0.94,-0.96,-0.31,-2.01,20.3,46.75,-9.62,0.72,0.34,0.59,-1.82,0.43,-1.47
1900-01-01 11:55:46.009,12.84,17.73,16.91,0.31,0.23,0.95,-0.84,-0.52,-1.25,19.61,46.77,-9.86,0.73,0.34,0.6,-3.47,1.21,-1.32
1900-01-01 11:55:46.056,13.76,19.37,16.88,0.32,0.23,0.88,2.05,-0.84,-0.65,20.39,44.24,-10.07,0.64,0.32,0.57,4.33,-4.04,-2.1
1900-01-01 11:55:46.150,11.78,16.61,16.94,0.29,0.21,0.96,-1.82,1.34,-2.51,21.24,46.76,-10.4,0.75,0.37,0.6,0.49,0.91,0.53
1900-01-01 11:55:46.243,13.04,18.02,16.71,0.33,0.24,0.98,0.09,-1.63,-1.5,21.16,47.02,-10.33,0.77,0.38,0.61,-4.57,3.07,-1.05
1900-01-01 11:55:46.290,13.88,18.5,16.64,0.31,0.23,0.9,-0.01,-1.21,-0.08,19.97,46.83,-10.49,0.68,0.32,0.56,-2.07,1.37,-1.05
1900-01-01 11:55:46.384,11.96,16.2,16.79,0.28,0.21,0.93,-1.36,1.92,-2.7,19.17,48.51,-10.66,0.74,0.32,0.56,2.7,-5.79,1.21
1900-01-01 11:55:46.433,12.92,17.42,16.53,0.32,0.24,1.0,-0.33,-0.63,-1.32,21.66,47.6,-10.49,0.8,0.4,0.61,-3.63,4.16,-0.23
1900-01-01 11:55:46.526,13.05,20.22,16.49,0.34,0.22,0.89,2.62,-3.47,0.22,21.4,45.73,-10.53,0.62,0.32,0.52,0.82,0.63,-2.98
1900-01-01 11:55:46.622,12.05,15.81,16.68,0.27,0.21,0.95,-4.07,2.38,-2.63,20.51,47.42,-10.99,0.75,0.36,0.59,0.31,-0.87,0.98
1900-01-01 11:55:46.667,12.45,17.28,16.44,0.32,0.23,0.99,0.23,-2.82,-0.31,20.47,46.84,-10.85,0.76,0.36,0.61,-3.27,7.39,-1.44
1900-01-01 11:55:46.760,14.05,18.75,16.55,0.31,0.23,0.88,-1.47,0.71,-1.57,21.15,46.34,-11.08,0.68,0.34,0.55,0.93,-4.42,0.31
1900-01-01 11:55:46.853,12.97,16.89,16.47,0.3,0.23,0.97,-0.55,0.59,-2.06,20.78,47.58,-11.04,0.76,0.37,0.59,-0.94,0.94,0.05
1900-01-01 11:55:46.901,13.57,17.65,16.31,0.31,0.24,0.94,1.42,-1.4,-1.45,22.02,46.47,-11.04,0.72,0.37,0.58,-1.17,0.92,-0.5
1900-01-01 11:55:46.995,13.13,18.47,16.25,0.32,0.23,0.94,0.74,-1.89,-1.44,21.39,47.66,-11.13,0.73,0.36,0.56,-2.59,1.63,-1.79
1900-01-01 11:55:47.041,13.33,17.6,16.19,0.31,0.24,0.96,-0.89,-1.82,-1.31,20.53,47.86,-11.41,0.76,0.36,0.58,-2.69,0.37,-1.5
1900-01-01 11:55:47.133,13.78,17.55,16.14,0.3,0.24,0.91,-2.05,-0.08,-2.19,21.74,47.22,-11.65,0.72,0.36,0.56,1.88,-5.5,-0.33
1900-01-01 11:55:47.226,13.47,18.18,15.96,0.32,0.24,0.95,0.31,-0.14,-2.24,20.75,47.25,-11.71,0.74,0.36,0.59,-1.1,1.05,-1.18
1900-01-01 11:55:47.274,14.09,18.57,15.78,0.33,0.25,0.94,1.5,-2.06,-2.47,23.58,47.22,-11.9,0.74,0.4,0.55,-0.56,0.24,-2.46
1900-01-01 11:55:47.366,14.36,18.41,15.56,0.32,0.25,0.93,0.31,-1.43,-2.01,22.79,46.42,-12.28,0.72,0.39,0.57,-1.85,0.02,-2.44
1900-01-01 11:55:47.462,14.45,19.12,15.41,0.34,0.26,0.94,-0.13,-1.6,-1.24,23.13,48.04,-12.67,0.73,0.39,0.53,-1.68,0.63,-1.1
1900-01-01 11:55:47.510,14.5,18.84,15.38,0.33,0.26,0.93,-0.74,-0.51,-1.09,23.92,47.18,-12.84,0.73,0.41,0.55,-1.7,0.92,0.31
1900-01-01 11:55:47.604,14.17,18.8,15.37,0.33,0.25,0.92,-0.65,-0.23,-0.74,22.6,47.42,-12.81,0.72,0.38,0.55,-1.17,0.43,0.27
1900-01-01 11:55:47.696,13.82,18.98,15.42,0.33,0.24,0.93,0.04,-0.17,-1.15,22.72,47.87,-12.77,0.74,0.39,0.55,-0.32,0.68,-0.14
1900-01-01 11:55:47.743,14.46,18.56,15.4,0.32,0.25,0.92,0.11,-0.53,-1.76,23.63,47.04,-12.8,0.71,0.39,0.53,-1.48,-0.82,-0.94
1900-01-01 11:55:47.837,14.78,18.46,15.29,0.32,0.26,0.93,-1.55,0.92,-0.6,22.76,48.22,-12.95,0.75,0.39,0.54,-0.93,0.19,0.24
1900-01-01 11:55:47.884,13.73,18.57,15.35,0.32,0.24,0.94,-0.15,-0.62,-0.25,24.85,46.91,-12.93,0.72,0.41,0.53,1.02,0.8,2.77
1900-01-01 11:55:47.978,15.16,18.56,15.47,0.32,0.27,0.93,-2.04,2.47,2.78,22.53,48.72,-12.51,0.75,0.38,0.53,3.72,-6.59,-5.24
1900-01-01 11:55:48.072,13.24,18.04,16.06,0.32,0.24,0.95,-4.07,2.28,0.39,22.34,51.7,-13.32,0.78,0.38,0.48,3.53,-2.03,1.01
1900-01-01 11:55:48.119,16.78,17.65,16.27,0.31,0.3,0.93,-0.62,2.31,-1.58,23.04,50.66,-13.18,0.77,0.39,0.49,2.79,0.56,4.79
1900-01-01 11:55:48.212,14.99,15.55,16.19,0.28,0.27,0.97,1.76,0.08,-2.41,24.72,48.54,-12.45,0.77,0.43,0.53,1.37,3.63,2.4
1900-01-01 11:55:48.306,16.01,15.75,15.98,0.28,0.29,0.96,1.05,0.16,-2.86,24.05,51.93,-12.1,0.79,0.41,0.47,-6.47,11.86,1.24
1900-01-01 11:55:48.354,15.29,16.27,15.7,0.27,0.26,0.9,6.22,1.37,-4.15,23.83,46.12,-11.92,0.7,0.39,0.54,0.78,6.27,-5.18
1900-01-01 11:55:48.447,16.88,17.56,15.23,0.31,0.29,0.92,3.08,1.23,-3.28,25.38,47.12,-12.71,0.73,0.43,0.53,-0.45,7.21,-4.73
1900-01-01 11:55:48.495,15.36,16.73,14.89,0.3,0.28,0.96,0.86,1.79,-1.96,25.83,45.63,-13.45,0.75,0.45,0.57,-3.08,3.63,-3.02
1900-01-01 11:55:48.588,16.36,17.1,14.75,0.3,0.29,0.94,1.47,-0.18,-2.24,26.2,45.52,-13.92,0.71,0.44,0.54,-1.75,2.23,-3.4
1900-01-01 11:55:48.682,16.9,15.64,14.56,0.27,0.29,0.93,-0.59,-0.18,-1.35,25.3,44.53,-14.45,0.69,0.42,0.56,-1.89,1.65,-1.11
1900-01-01 11:55:48.729,16.72,16.31,14.51,0.29,0.29,0.93,0.22,-0.11,-1.11,26.15,44.88,-14.63,0.7,0.44,0.55,-2.6,2.83,-0.94
1900-01-01 11:55:48.824,17.15,16.32,14.5,0.28,0.3,0.92,-0.15,-0.15,-1.92,26.47,44.31,-14.78,0.69,0.44,0.55,-1.63,1.53,-1.37
1900-01-01 11:55:48.917,16.95,16.02,14.36,0.28,0.3,0.93,-0.48,0.51,-1.27,25.25,44.7,-15.0,0.7,0.42,0.56,-1.69,1.92,-0.37
1900-01-01 11:55:48.963,16.99,16.25,14.33,0.29,0.3,0.94,-0.27,-0.65,-1.69,26.47,44.24,-15.06,0.7,0.45,0.56,-1.81,1.6,-0.74
1900-01-01 11:55:49.058,17.31,15.73,14.23,0.27,0.3,0.92,-0.51,-0.45,-1.47,26.33,43.8,-15.18,0.68,0.44,0.56,-1.53,1.66,-0.76
1900-01-01 11:55:49.104,17.25,16.23,14.16,0.28,0.3,0.92,-0.8,-0.47,-1.21,26.4,44.02,-15.31,0.68,0.44,0.55,-1.74,1.76,-0.56
1900-01-01 11:55:49.199,17.18,15.98,14.13,0.28,0.3,0.93,-1.05,0.06,-1.27,25.92,44.0,-15.4,0.69,0.43,0.57,-1.69,1.99,-0.41
1900-01-01 11:55:49.292,17.19,15.79,14.1,0.28,0.3,0.93,0.01,-0.26,-1.46,26.33,43.67,-15.47,0.67,0.43,0.56,-1.44,2.05,-0.99
1900-01-01 11:55:49.338,17.6,16.28,14.03,0.28,0.31,0.92,-0.02,0.44,-1.38,26.68,43.56,-15.63,0.68,0.44,0.56,-1.65,1.57,-0.5
1900-01-01 11:55:49.432,17.2,15.73,13.98,0.28,0.3,0.94,-0.28,0.09,-1.08,26.47,43.49,-15.72,0.68,0.44,0.57,-1.72,1.85,-0.26
1900-01-01 11:55:49.525,17.43,15.49,13.97,0.27,0.3,0.92,-0.22,0.5,-1.17,25.94,43.31,-15.77,0.67,0.43,0.57,-1.72,2.13,-0.17
1900-01-01 11:55:49.573,17.31,15.45,13.95,0.27,0.3,0.93,-0.26,1.02,-1.55,26.04,43.44,-15.8,0.68,0.44,0.57,-1.49,2.18,-0.34
1900-01-01 11:55:49.666,17.59,15.53,13.87,0.27,0.31,0.93,-0.1,0.43,-1.59,26.43,43.02,-15.86,0.68,0.44,0.58,-1.54,2.38,-0.84
1900-01-01 11:55:49.762,17.21,15.35,13.79,0.27,0.3,0.93,-0.49,0.22,-1.36,26.12,42.8,-16.0,0.67,0.43,0.58,-1.37,2.22,-0.56
1900-01-01 11:55:49.809,17.33,15.17,13.74,0.27,0.3,0.93,-0.11,-0.56,-1.39,26.62,42.87,-16.1,0.68,0.45,0.58,-1.25,1.53,-0.74
1900-01-01 11:55:49.903,17.36,15.18,13.68,0.27,0.3,0.93,-0.24,-0.63,-1.73,26.19,42.79,-16.22,0.68,0.44,0.58,-1.22,1.47,-1.28
1900-01-01 11:55:49.953,17.08,15.35,13.58,0.27,0.3,0.92,-0.24,-0.72,-1.35,26.58,42.49,-16.42,0.67,0.44,0.58,-1.26,1.06,-0.55
1900-01-01 11:55:50.045,18.12,15.19,13.53,0.27,0.32,0.93,-0.11,-0.6,-1.34,27.6,42.02,-16.52,0.66,0.46,0.58,-1.49,1.29,-0.11
1900-01-01 11:55:50.141,17.96,15.15,13.48,0.26,0.31,0.92,-0.28,-0.4,-1.11,26.75,42.45,-16.54,0.67,0.44,0.58,-0.99,1.15,-0.22
1900-01-01 11:55:50.187,18.05,15.25,13.47,0.27,0.32,0.93,-0.39,-0.5,-0.83,26.51,42.51,-16.58,0.67,0.44,0.58,-1.22,1.32,-0.15
1900-01-01 11:55:50.283,17.83,15.42,13.5,0.27,0.31,0.93,-0.45,-0.64,-0.74,26.44,42.62,-16.62,0.67,0.44,0.58,-1.05,0.96,-0.15
1900-01-01 11:55:50.377,17.61,15.75,13.54,0.28,0.31,0.95,-0.46,-2.66,0.6,26.55,42.6,-16.65,0.7,0.46,0.61,1.31,-1.92,1.46
1900-01-01 11:55:50.424,18.14,17.79,13.79,0.32,0.33,0.95,-0.81,-4.85,2.18,27.77,43.73,-16.43,0.71,0.48,0.57,-0.02,-2.78,3.03
1900-01-01 11:55:50.518,17.94,17.03,14.28,0.29,0.31,0.9,0.17,-5.41,2.01,26.85,43.13,-15.98,0.65,0.43,0.55,1.08,-4.49,1.47
1900-01-01 11:55:50.565,18.08,16.31,14.75,0.28,0.31,0.89,-1.52,-3.3,1.5,26.93,44.14,-15.76,0.66,0.43,0.53,-0.15,-3.15,2.79
1900-01-01 11:55:50.659,17.04,17.83,15.14,0.32,0.3,0.93,-0.6,-2.25,2.05,26.78,45.41,-15.34,0.73,0.46,0.55,2.79,-3.6,2.63
1900-01-01 11:55:50.738,15.82,20.5,15.61,0.35,0.28,0.91,-1.08,-3.09,1.76,25.91,48.37,-14.95,0.73,0.43,0.49,1.83,-3.1,2.93
1900-01-01 11:55:50.833,16.58,19.04,16.04,0.33,0.29,0.91,-0.97,-2.27,0.26,25.12,48.79,-14.51,0.74,0.42,0.5,1.44,-3.02,2.53
1900-01-01 11:55:50.880,17.11,18.37,16.24,0.31,0.29,0.89,-1.21,-1.74,-0.42,27.26,46.2,-14.13,0.69,0.44,0.5,-1.03,-0.72,0.56
1900-01-01 11:55:50.974,16.27,19.87,16.33,0.34,0.28,0.91,-1.08,-1.36,-1.66,25.94,48.68,-14.05,0.75,0.44,0.49,-2.18,0.39,-0.19
1900-01-01 11:55:51.023,16.28,22.02,16.23,0.38,0.28,0.89,-0.92,1.47,0.18,28.35,47.45,-14.09,0.72,0.46,0.47,-2.78,1.75,1.84
1900-01-01 11:55:51.116,16.02,18.82,16.42,0.33,0.28,0.92,-2.44,0.29,1.11,24.06,49.26,-13.82,0.74,0.4,0.5,-2.52,2.11,0.61
1900-01-01 11:55:51.210,14.65,17.77,16.75,0.31,0.26,0.93,-7.67,-0.85,-1.41,23.71,50.49,-13.73,0.77,0.4,0.49,-7.6,7.52,2.39
1900-01-01 11:55:51.258,16.12,20.59,16.69,0.37,0.29,0.93,-6.6,0.27,-0.8,21.36,50.54,-13.37,0.77,0.36,0.52,-9.49,7.81,8.65
1900-01-01 11:55:51.351,15.48,19.31,16.72,0.34,0.27,0.92,-1.66,1.67,-1.37,23.48,47.51,-12.06,0.75,0.41,0.56,-2.95,1.87,1.34
1900-01-01 11:55:51.448,14.52,19.37,16.67,0.34,0.25,0.92,1.15,-0.01,-0.76,22.43,47.95,-11.87,0.73,0.38,0.54,-0.93,2.11,0.11
1900-01-01 11:55:51.493,15.08,19.15,16.71,0.33,0.26,0.91,0.58,0.27,-1.16,23.37,47.24,-11.86,0.72,0.39,0.54,-1.04,2.08,-0.72
1900-01-01 11:55:51.586,14.38,19.07,16.7,0.33,0.25,0.93,-0.88,0.62,-1.44,22.58,47.95,-11.98,0.74,0.38,0.55,-1.54,1.66,0.15
1900-01-01 11:55:51.636,14.8,19.12,16.63,0.33,0.26,0.93,0.04,0.66,-1.24,23.31,47.74,-11.96,0.74,0.4,0.55,-1.11,1.83,-0.02
1900-01-01 11:55:51.729,15.24,18.75,16.6,0.33,0.27,0.93,-0.83,0.35,-1.08,23.29,47.69,-11.97,0.74,0.4,0.55,-1.5,1.37,-0.18
1900-01-01 11:55:51.809,15.22,18.53,16.6,0.32,0.27,0.93,-0.82,0.23,-1.07,22.75,48.1,-12.01,0.75,0.39,0.54,-1.54,1.91,-0.55
1900-01-01 11:55:51.901,15.16,18.93,16.59,0.33,0.27,0.92,0.37,-1.16,-0.59,22.97,46.48,-12.1,0.7,0.38,0.55,-0.58,2.91,-1.97
1900-01-01 11:55:51.953,15.28,17.74,16.66,0.31,0.27,0.93,-0.93,1.89,-2.09,23.51,47.21,-12.41,0.75,0.41,0.56,0.06,-2.95,0.69
1900-01-01 11:55:52.044,15.57,20.37,16.5,0.38,0.3,0.99,-1.98,-0.23,2.55,24.63,49.03,-12.31,0.81,0.44,0.54,-2.36,2.82,3.68
1900-01-01 11:55:52.091,14.97,20.83,17.05,0.37,0.27,0.93,0.29,-0.19,4.63,24.21,48.28,-11.76,0.77,0.42,0.54,2.82,-0.99,-3.24
1900-01-01 11:55:52.185,14.45,17.54,17.91,0.29,0.24,0.9,-0.31,-1.05,5.27,23.77,46.64,-12.26,0.69,0.38,0.52,1.27,0.53,4.36
1900-01-01 11:55:52.279,13.85,18.57,18.88,0.31,0.24,0.9,-3.44,1.76,3.98,22.43,48.32,-11.61,0.71,0.36,0.52,1.17,0.92,5.26
1900-01-01 11:55:52.326,12.71,19.86,19.64,0.35,0.22,0.93,-1.44,2.95,2.99,22.65,48.57,-10.82,0.76,0.39,0.54,0.05,1.61,5.26
1900-01-01 11:55:52.421,12.71,18.7,20.25,0.33,0.22,0.94,-1.04,1.05,3.15,22.18,49.44,-10.02,0.75,0.37,0.52,1.5,2.91,4.61
1900-01-01 11:55:52.515,12.92,17.38,20.89,0.3,0.22,0.93,-0.75,1.72,1.84,21.11,49.69,-9.33,0.74,0.35,0.52,0.37,3.61,3.81
1900-01-01 11:55:52.561,11.62,17.06,21.33,0.29,0.2,0.93,-1.46,2.5,-0.41,19.59,49.85,-8.76,0.75,0.33,0.54,-0.38,5.0,2.79
1900-01-01 11:55:52.656,11.96,17.87,21.42,0.31,0.21,0.95,-0.45,1.57,-1.85,21.55,48.66,-8.34,0.76,0.37,0.55,-1.98,3.9,0.54
1900-01-01 11:55:52.702,12.23,18.12,21.3,0.32,0.21,0.94,0.34,0.65,-2.37,20.84,49.31,-8.27,0.75,0.35,0.54,-2.36,1.79,-0.59
1900-01-01 11:55:52.798,12.87,17.81,21.1,0.31,0.23,0.94,-1.21,1.11,-1.25,21.03,48.67,-8.37,0.74,0.35,0.55,-2.66,3.77,-0.09
1900-01-01 11:55:52.893,12.98,17.27,21.06,0.3,0.23,0.95,-1.57,0.93,-1.76,22.31,48.04,-8.39,0.74,0.38,0.55,-2.36,3.56,0.02
1900-01-01 11:55:52.940,12.5,17.51,20.95,0.31,0.22,0.95,-1.15,1.11,-1.05,20.33,48.64,-8.4,0.75,0.35,0.56,-1.91,3.41,0.29
1900-01-01 11:55:53.035,12.56,17.09,20.95,0.3,0.22,0.96,-0.47,0.56,-1.34,20.95,48.26,-8.36,0.75,0.36,0.56,-1.84,3.38,-0.34
1900-01-01 11:55:53.081,12.66,16.71,20.91,0.3,0.23,0.98,2.06,-2.4,-1.71,20.2,46.92,-8.42,0.74,0.35,0.6,0.25,1.63,-1.98
1900-01-01 11:55:53.178,12.04,16.56,20.8,0.28,0.2,0.91,-1.01,-1.76,-4.27,21.6,46.74,-8.73,0.72,0.36,0.57,2.39,-10.26,2.21
1900-01-01 11:55:53.273,14.62,15.87,20.31,0.28,0.26,0.95,1.0,-3.66,-4.07,21.04,47.79,-8.4,0.76,0.37,0.58,-3.54,-0.89,-3.99
1900-01-01 11:55:53.320,13.87,19.86,19.84,0.35,0.24,0.93,0.32,-3.11,-3.01,22.79,50.54,-9.02,0.75,0.38,0.49,-5.39,-4.3,-6.71
1900-01-01 11:55:53.415,14.13,18.53,19.54,0.32,0.25,0.93,-0.31,-0.1,-2.96,22.69,50.26,-10.06,0.77,0.38,0.51,-4.5,-1.17,-4.76
1900-01-01 11:55:53.462,13.35,17.85,19.24,0.31,0.23,0.93,1.16,-0.17,-3.56,22.34,48.61,-10.8,0.73,0.37,0.53,-2.63,1.01,-1.85
1900-01-01 11:55:53.556,15.24,17.88,18.86,0.31,0.27,0.93,1.52,0.16,-3.44,24.38,48.05,-11.09,0.74,0.41,0.52,-2.36,0.97,-2.39
1900-01-01 11:55:53.649,14.63,17.63,18.49,0.31,0.26,0.95,0.02,0.79,-2.32,22.46,48.55,-11.47,0.75,0.38,0.54,-2.56,2.25,-1.44
1900-01-01 11:55:53.696,14.66,18.01,18.29,0.31,0.26,0.93,0.03,0.48,-2.83,22.74,48.52,-11.69,0.74,0.38,0.53,-1.91,1.46,-2.25
