,Time,Roll1,Pitch1,Yaw1,AccX1,AccY1,AccZ1,RotX1,RotY1,RotZ1,Roll2,Pitch2,Yaw2,AccX2,AccY2,AccZ2,RotX2,RotY2,RotZ2
0,1900-01-01 17:15:45.670,41.28,18.67,0.49,0.32,0.66,0.68,-0.31,-0.34,-0.81,8.28,4.0,-0.12,0.07,0.14,0.95,-1.49,1.12,0.1
1,1900-01-01 17:15:45.670,41.29,18.61,0.52,0.32,0.66,0.68,-0.4,-0.05,-0.81,8.11,4.04,-0.11,0.07,0.14,0.95,-1.51,1.15,0.17
2,1900-01-01 17:15:45.721,41.29,18.65,0.56,0.32,0.66,0.68,-0.4,0.11,-1.01,8.06,4.06,-0.09,0.07,0.14,0.95,-1.35,1.38,0.12
3,1900-01-01 17:15:45.788,41.31,18.58,0.56,0.32,0.66,0.68,-0.44,-0.08,-1.05,8.2,4.1,-0.08,0.07,0.14,0.95,-1.37,1.39,0.11
4,1900-01-01 17:15:45.882,41.38,18.7,0.56,0.32,0.66,0.68,-0.28,-0.38,-0.86,8.05,4.04,-0.08,0.07,0.14,0.96,-1.36,1.14,0.04
5,1900-01-01 17:15:45.976,41.22,18.69,0.59,0.32,0.66,0.68,-0.06,-0.34,-0.59,8.03,4.14,-0.08,0.07,0.13,0.95,-1.43,1.11,0.06
6,1900-01-01 17:15:46.054,41.26,18.55,0.66,0.32,0.66,0.68,-0.36,-0.54,-0.65,7.98,4.05,-0.08,0.07,0.13,0.95,-1.32,1.08,0.02
7,1900-01-01 17:15:46.117,41.24,18.79,0.72,0.32,0.66,0.68,-0.57,-0.4,-1.02,7.98,4.08,-0.08,0.07,0.13,0.95,-1.27,1.08,-0.08
8,1900-01-01 17:15:46.212,41.39,18.66,0.72,0.32,0.66,0.68,-0.85,-0.23,-1.21,8.0,4.09,-0.1,0.07,0.13,0.95,-1.18,1.21,-0.02
9,1900-01-01 17:15:46.258,41.28,18.84,0.7,0.32,0.66,0.68,-0.42,-0.42,-1.04,8.11,4.17,-0.12,0.07,0.14,0.95,-1.0,1.28,0.0
10,1900-01-01 17:15:46.350,41.02,18.85,0.7,0.32,0.66,0.68,-0.43,-0.59,-0.74,7.8,4.15,-0.13,0.07,0.13,0.95,-1.17,1.2,0.08
11,1900-01-01 17:15:46.396,41.22,18.84,0.74,0.32,0.66,0.68,-0.43,-0.5,-0.8,8.12,4.2,-0.12,0.07,0.14,0.95,-1.15,1.27,0.02
12,1900-01-01 17:15:46.510,41.29,18.96,0.78,0.33,0.66,0.68,-0.62,-0.34,-1.01,8.14,4.16,-0.13,0.07,0.14,0.95,-1.2,1.24,-0.04
13,1900-01-01 17:15:46.565,41.16,18.8,0.79,0.32,0.66,0.68,-0.62,-0.44,-1.21,8.09,4.25,-0.14,0.07,0.14,0.95,-1.13,1.33,-0.16
14,1900-01-01 17:15:46.649,40.98,19.0,0.76,0.33,0.66,0.68,-0.64,-0.28,-1.16,8.05,4.39,-0.17,0.07,0.14,0.95,-1.27,1.28,-0.1
15,1900-01-01 17:15:46.741,40.93,18.69,0.74,0.32,0.65,0.68,-0.56,-0.3,-0.96,7.62,4.27,-0.2,0.07,0.13,0.95,-1.29,1.45,-0.16
16,1900-01-01 17:15:46.919,40.84,18.96,0.75,0.33,0.66,0.69,-0.6,-0.35,-1.13,7.61,4.57,-0.23,0.08,0.13,0.95,-1.25,1.66,-0.2
17,1900-01-01 17:15:46.985,41.33,18.62,0.74,0.32,0.66,0.68,-0.43,-0.47,-1.44,7.86,4.01,-0.27,0.07,0.13,0.95,-0.88,1.68,-0.29
18,1900-01-01 17:15:46.985,42.65,18.15,0.68,0.31,0.68,0.67,-0.51,0.15,-0.69,8.46,3.46,-0.32,0.06,0.14,0.95,-2.09,0.95,0.25
19,1900-01-01 17:15:47.094,41.76,18.91,0.73,0.33,0.67,0.67,-0.46,-0.48,-0.87,8.32,4.0,-0.29,0.07,0.14,0.96,-1.63,0.96,0.07
20,1900-01-01 17:15:47.130,41.79,18.68,0.76,0.32,0.67,0.67,-0.14,-0.23,-0.89,8.74,3.74,-0.29,0.06,0.15,0.95,-1.31,1.24,0.14
21,1900-01-01 17:15:47.175,41.09,18.93,0.78,0.33,0.66,0.68,0.05,-0.44,-1.27,8.8,4.0,-0.28,0.07,0.15,0.95,-0.76,1.5,-0.1
22,1900-01-01 17:15:47.275,40.89,18.95,0.75,0.32,0.65,0.68,-0.47,-0.85,-1.21,8.23,3.79,-0.3,0.06,0.14,0.95,-1.06,1.44,-0.18
23,1900-01-01 17:15:47.323,41.1,18.54,0.72,0.32,0.66,0.68,-0.87,-0.03,-1.27,7.76,4.07,-0.34,0.07,0.13,0.95,-1.17,1.36,-0.01
24,1900-01-01 17:15:47.390,41.21,19.01,0.69,0.33,0.66,0.68,-0.97,0.08,-1.02,8.3,3.97,-0.35,0.07,0.14,0.95,-1.56,1.26,-0.05
25,1900-01-01 17:15:47.485,41.35,18.37,0.69,0.31,0.66,0.68,-0.56,-0.13,-1.15,8.07,3.86,-0.36,0.06,0.14,0.95,-1.11,1.44,-0.06
26,1900-01-01 17:15:47.617,41.37,19.06,0.68,0.33,0.66,0.68,-0.5,-0.53,-0.89,8.81,3.98,-0.38,0.07,0.15,0.95,-1.28,1.09,-0.06
27,1900-01-01 17:15:47.633,41.11,18.67,0.7,0.32,0.66,0.68,-0.66,-0.31,-0.83,8.04,3.84,-0.4,0.06,0.13,0.95,-1.66,0.98,-0.02
28,1900-01-01 17:15:47.720,40.81,18.81,0.73,0.32,0.66,0.69,-0.39,0.14,-1.02,8.42,4.07,-0.41,0.07,0.14,0.95,-1.05,1.57,0.21
29,1900-01-01 17:15:47.766,41.59,18.26,0.74,0.31,0.66,0.68,-0.6,0.47,-0.89,8.13,3.53,-0.39,0.06,0.14,0.95,-1.5,1.34,0.22
30,1900-01-01 17:15:47.861,41.22,18.88,0.76,0.32,0.66,0.68,-0.25,-0.23,-0.98,8.41,4.04,-0.36,0.07,0.14,0.95,-1.3,1.34,0.08
31,1900-01-01 17:15:47.955,41.31,18.49,0.77,0.32,0.66,0.68,-0.08,0.24,-0.83,8.25,3.77,-0.36,0.06,0.14,0.95,-1.49,0.94,0.05
32,1900-01-01 17:15:48.002,41.21,18.51,0.81,0.32,0.66,0.68,-0.19,-0.32,-0.76,8.08,4.02,-0.36,0.07,0.14,0.95,-1.4,1.12,0.08
33,1900-01-01 17:15:48.098,41.2,18.64,0.85,0.32,0.66,0.68,-0.46,-0.15,-0.96,8.15,3.71,-0.35,0.06,0.14,0.95,-1.64,1.06,0.07
34,1900-01-01 17:15:48.157,41.47,18.52,0.86,0.32,0.66,0.68,-0.27,-0.08,-0.86,8.4,3.99,-0.35,0.07,0.14,0.95,-1.21,1.24,0.18
35,1900-01-01 17:15:48.246,41.39,18.59,0.89,0.32,0.66,0.68,-0.48,0.02,-0.93,8.19,3.96,-0.33,0.07,0.14,0.95,-1.49,1.31,0.15
36,1900-01-01 17:15:48.331,41.14,18.63,0.91,0.32,0.66,0.68,-0.18,-0.43,-1.02,8.03,3.92,-0.32,0.07,0.13,0.95,-1.11,1.36,0.0
37,1900-01-01 17:15:48.379,41.26,18.55,0.91,0.32,0.66,0.68,-0.47,-0.05,-0.84,8.01,3.88,-0.33,0.07,0.13,0.95,-1.35,1.23,0.1
38,1900-01-01 17:15:48.472,41.3,18.59,0.94,0.32,0.66,0.68,-0.44,-0.44,-0.76,8.13,3.97,-0.32,0.07,0.14,0.95,-1.14,1.25,0.02
39,1900-01-01 17:15:48.520,41.54,18.59,0.98,0.32,0.66,0.68,-0.45,-0.37,-0.78,8.14,3.93,-0.33,0.07,0.14,0.95,-1.26,1.12,-0.06
40,1900-01-01 17:15:48.614,41.26,18.71,1.02,0.32,0.66,0.68,-0.53,-1.04,-1.2,8.11,4.06,-0.34,0.07,0.14,0.95,-1.17,1.11,-0.28
41,1900-01-01 17:15:48.710,41.22,18.52,1.0,0.32,0.66,0.68,-0.87,-0.33,-1.37,7.93,4.15,-0.4,0.07,0.13,0.95,-1.18,1.34,-0.08
42,1900-01-01 17:15:48.759,41.54,18.68,0.95,0.32,0.66,0.68,-0.57,-0.21,-1.21,8.57,3.85,-0.42,0.06,0.14,0.95,-1.21,1.3,-0.05
43,1900-01-01 17:15:48.851,41.41,18.52,0.93,0.32,0.66,0.68,-0.72,-0.33,-0.98,8.2,4.05,-0.43,0.07,0.14,0.95,-1.45,1.1,-0.06
44,1900-01-01 17:15:48.899,41.39,18.55,0.93,0.32,0.66,0.68,-0.43,-0.46,-1.07,8.4,3.85,-0.45,0.06,0.14,0.95,-1.21,1.26,-0.11
45,1900-01-01 17:15:48.994,41.21,18.63,0.93,0.32,0.66,0.68,-0.62,-0.55,-1.24,8.16,3.95,-0.48,0.07,0.14,0.95,-1.31,1.26,-0.17
46,1900-01-01 17:15:49.090,41.35,18.64,0.9,0.32,0.66,0.68,-0.58,-0.48,-1.23,8.34,3.96,-0.51,0.07,0.14,0.95,-1.24,1.28,-0.13
47,1900-01-01 17:15:49.160,41.28,18.48,0.87,0.32,0.66,0.68,-0.31,-0.2,-1.2,8.18,3.96,-0.54,0.07,0.14,0.95,-1.27,1.37,-0.06
48,1900-01-01 17:15:49.231,41.33,18.47,0.85,0.32,0.66,0.68,-0.4,-0.26,-1.17,8.4,3.91,-0.56,0.07,0.14,0.95,-1.28,1.37,-0.09
49,1900-01-01 17:15:49.330,41.38,18.42,0.83,0.32,0.66,0.68,-0.26,-0.29,-1.28,8.21,3.86,-0.58,0.06,0.14,0.95,-1.14,1.44,-0.1
50,1900-01-01 17:15:49.380,41.47,18.63,0.79,0.32,0.66,0.68,-0.26,-0.38,-1.09,8.59,3.88,-0.6,0.07,0.14,0.95,-1.18,1.33,-0.01
51,1900-01-01 17:15:49.467,41.25,18.43,0.78,0.32,0.66,0.68,-0.3,-0.53,-1.1,8.29,3.96,-0.61,0.07,0.14,0.95,-1.05,1.32,-0.06
52,1900-01-01 17:15:49.520,41.26,18.56,0.78,0.32,0.66,0.68,-0.31,-0.57,-1.01,8.38,3.88,-0.63,0.07,0.14,0.95,-1.09,1.31,-0.03
53,1900-01-01 17:15:49.610,41.25,18.49,0.78,0.32,0.66,0.68,-0.47,-0.46,-0.93,8.15,3.87,-0.64,0.06,0.14,0.95,-1.19,1.26,-0.02
54,1900-01-01 17:15:49.703,41.31,18.62,0.8,0.32,0.66,0.68,-0.5,-0.35,-1.0,8.23,4.02,-0.65,0.07,0.14,0.95,-1.24,1.31,-0.01
55,1900-01-01 17:15:49.750,41.45,18.59,0.8,0.32,0.66,0.68,-0.62,-0.2,-1.04,8.48,3.7,-0.66,0.06,0.14,0.95,-1.47,1.26,0.01
56,1900-01-01 17:15:49.843,41.58,18.56,0.8,0.32,0.66,0.68,-0.64,-0.26,-0.87,8.43,3.97,-0.67,0.07,0.14,0.95,-1.5,1.02,0.02
57,1900-01-01 17:15:49.890,41.31,18.67,0.83,0.32,0.66,0.68,-0.53,-0.58,-0.95,8.42,3.94,-0.68,0.07,0.14,0.95,-1.44,1.05,-0.05
58,1900-01-01 17:15:49.984,41.39,18.37,0.85,0.32,0.66,0.68,-0.6,-0.11,-0.77,8.17,3.89,-0.69,0.07,0.14,0.95,-1.61,1.08,0.09
59,1900-01-01 17:15:50.077,41.32,18.74,0.89,0.32,0.66,0.68,-0.45,-0.08,-0.69,8.3,3.98,-0.69,0.07,0.14,0.95,-1.6,1.15,0.17
60,1900-01-01 17:15:50.124,41.36,18.23,0.94,0.31,0.66,0.68,-0.44,0.27,-0.95,8.03,3.85,-0.67,0.06,0.13,0.95,-1.42,1.3,0.24
61,1900-01-01 17:15:50.219,41.5,18.58,0.96,0.32,0.66,0.68,-0.46,0.22,-0.86,8.44,3.81,-0.64,0.06,0.14,0.95,-1.58,1.43,0.2
62,1900-01-01 17:15:50.269,41.24,18.41,0.98,0.32,0.66,0.68,-0.33,0.13,-0.98,8.07,3.99,-0.62,0.07,0.14,0.95,-1.38,1.47,0.11
63,1900-01-01 17:15:50.362,41.35,18.42,0.99,0.32,0.66,0.68,-0.6,0.19,-1.37,8.19,3.79,-0.61,0.06,0.14,0.95,-1.39,1.5,0.05
64,1900-01-01 17:15:50.456,41.31,18.28,0.94,0.31,0.66,0.68,-0.47,-0.15,-1.21,7.83,3.85,-0.61,0.06,0.13,0.95,-1.48,1.29,0.0
65,1900-01-01 17:15:50.503,41.4,18.39,0.92,0.32,0.66,0.68,-0.34,0.09,-0.72,8.35,3.79,-0.62,0.06,0.14,0.95,-1.55,1.26,0.18
66,1900-01-01 17:15:50.597,41.49,18.2,0.97,0.31,0.66,0.68,-0.35,-0.34,-0.55,8.13,3.77,-0.6,0.06,0.14,0.95,-1.29,1.02,0.05
67,1900-01-01 17:15:50.643,41.38,18.47,1.04,0.32,0.66,0.68,-0.47,-0.59,-0.82,8.26,3.72,-0.6,0.06,0.14,0.95,-1.4,0.98,-0.03
68,1900-01-01 17:15:50.739,41.33,18.32,1.08,0.31,0.66,0.68,-0.6,-0.49,-1.05,8.0,3.9,-0.62,0.07,0.13,0.95,-1.11,1.19,-0.04
69,1900-01-01 17:15:50.834,41.24,18.5,1.07,0.32,0.66,0.68,-0.54,-0.42,-0.86,8.2,3.91,-0.63,0.07,0.14,0.95,-1.12,1.18,0.07
70,1900-01-01 17:15:50.881,41.17,18.37,1.1,0.31,0.66,0.68,-0.68,-0.52,-0.76,7.99,3.95,-0.63,0.07,0.13,0.95,-1.01,1.13,0.04
71,1900-01-01 17:15:50.975,41.21,18.55,1.15,0.32,0.66,0.68,-0.49,-0.53,-0.74,8.26,4.01,-0.63,0.07,0.14,0.95,-1.23,1.09,0.07
72,1900-01-01 17:15:51.070,41.38,18.5,1.19,0.32,0.66,0.68,-0.52,-0.5,-0.73,8.21,3.97,-0.63,0.07,0.14,0.95,-1.24,1.09,0.02
73,1900-01-01 17:15:51.117,41.16,18.68,1.24,0.32,0.66,0.68,-0.3,-0.7,-0.85,8.21,4.01,-0.64,0.07,0.14,0.95,-1.21,1.11,-0.02
74,1900-01-01 17:15:51.211,41.19,18.58,1.27,0.32,0.66,0.68,-0.4,-0.46,-0.85,8.17,3.94,-0.65,0.07,0.14,0.95,-1.2,1.25,0.05
75,1900-01-01 17:15:51.258,41.18,18.75,1.3,0.32,0.66,0.68,-0.44,-0.28,-1.15,8.31,4.06,-0.65,0.07,0.14,0.95,-1.29,1.35,-0.01
76,1900-01-01 17:15:51.352,41.27,18.65,1.28,0.32,0.66,0.68,-0.47,-0.18,-1.05,8.3,3.91,-0.66,0.07,0.14,0.95,-1.18,1.36,0.04
77,1900-01-01 17:15:51.448,41.18,18.55,1.28,0.32,0.66,0.68,-0.29,-0.44,-0.94,8.29,4.08,-0.66,0.07,0.14,0.95,-1.07,1.31,0.05
78,1900-01-01 17:15:51.493,41.38,18.69,1.3,0.32,0.66,0.68,-0.28,-0.5,-0.84,8.36,3.89,-0.66,0.07,0.14,0.95,-1.31,1.18,0.04
79,1900-01-01 17:15:51.587,41.34,18.7,1.33,0.32,0.66,0.68,-0.25,-0.57,-0.77,8.26,3.98,-0.66,0.07,0.14,0.95,-1.26,1.15,0.02
80,1900-01-01 17:15:51.634,41.19,18.77,1.37,0.32,0.66,0.68,-0.4,-0.47,-0.82,8.37,4.01,-0.67,0.07,0.14,0.95,-1.22,1.15,0.05
81,1900-01-01 17:15:51.728,41.32,18.75,1.4,0.32,0.66,0.68,-0.53,-0.35,-0.99,8.23,4.02,-0.67,0.07,0.14,0.95,-1.3,1.22,-0.01
82,1900-01-01 17:15:51.822,41.19,18.74,1.41,0.32,0.66,0.68,-0.67,-0.08,-1.07,8.2,4.03,-0.68,0.07,0.14,0.95,-1.34,1.37,0.06
83,1900-01-01 17:15:51.868,41.32,18.7,1.41,0.32,0.66,0.68,-0.47,-0.19,-1.08,8.34,3.99,-0.68,0.07,0.14,0.95,-1.24,1.4,-0.02
84,1900-01-01 17:15:51.963,41.36,18.84,1.4,0.32,0.66,0.68,-0.53,-0.31,-0.97,8.23,4.02,-0.69,0.07,0.14,0.95,-1.39,1.22,0.0
85,1900-01-01 17:15:52.010,41.39,18.6,1.41,0.32,0.66,0.68,-0.68,-0.37,-0.99,8.23,3.98,-0.7,0.07,0.14,0.95,-1.34,1.24,-0.04
86,1900-01-01 17:15:52.106,41.28,18.78,1.42,0.32,0.66,0.68,-0.6,-0.24,-1.02,8.33,3.99,-0.71,0.07,0.14,0.95,-1.52,1.21,-0.06
87,1900-01-01 17:15:52.200,41.38,18.76,1.43,0.32,0.66,0.68,-0.47,-0.42,-1.18,8.49,3.91,-0.73,0.07,0.14,0.95,-1.31,1.37,-0.04
88,1900-01-01 17:15:52.246,41.04,18.72,1.41,0.32,0.66,0.68,-0.63,0.24,-1.0,8.23,3.98,-0.74,0.07,0.14,0.95,-1.41,1.5,0.08
89,1900-01-01 17:15:52.340,41.3,18.57,1.41,0.32,0.66,0.68,-0.6,0.09,-0.8,8.26,3.88,-0.74,0.07,0.14,0.95,-1.4,1.32,0.12
90,1900-01-01 17:15:52.434,41.08,18.75,1.45,0.32,0.66,0.68,-0.5,-0.47,-1.11,8.26,4.09,-0.73,0.07,0.14,0.95,-1.34,1.2,-0.06
91,1900-01-01 17:15:52.483,41.23,18.62,1.44,0.32,0.66,0.68,-0.42,-0.45,-0.53,7.98,3.87,-0.75,0.06,0.13,0.95,-1.5,1.09,0.07
92,1900-01-01 17:15:52.580,41.15,18.91,1.52,0.32,0.66,0.68,-0.15,-0.31,-0.63,8.06,4.04,-0.75,0.07,0.14,0.95,-1.13,1.37,0.18
93,1900-01-01 17:15:52.631,41.55,18.63,1.58,0.32,0.66,0.68,-0.39,-0.03,-1.31,8.15,4.0,-0.73,0.07,0.14,0.95,-1.55,1.41,0.04
94,1900-01-01 17:15:52.720,41.43,18.64,1.54,0.32,0.66,0.68,-0.08,-0.29,-0.77,8.18,3.97,-0.73,0.07,0.14,0.95,-1.46,1.15,0.16
95,1900-01-01 17:15:52.832,41.48,19.26,1.58,0.33,0.66,0.67,-0.83,-1.02,0.63,8.64,4.06,-0.71,0.07,0.15,0.95,-1.71,0.05,0.39
96,1900-01-01 17:15:52.896,41.15,19.09,1.83,0.33,0.66,0.68,-0.74,-0.8,0.36,8.0,4.21,-0.66,0.07,0.13,0.95,-2.21,0.09,0.07
97,1900-01-01 17:15:52.966,41.14,18.86,2.05,0.32,0.66,0.68,-0.21,-1.08,-0.37,7.96,3.96,-0.66,0.07,0.13,0.95,-0.72,1.05,0.01
98,1900-01-01 17:15:53.014,40.96,19.49,2.15,0.33,0.66,0.68,-0.5,-1.1,-0.9,7.93,4.64,-0.67,0.08,0.13,0.95,-0.82,1.24,-0.21
99,1900-01-01 17:15:53.099,40.81,19.59,2.17,0.34,0.65,0.68,-0.82,-0.79,-1.05,8.08,4.34,-0.71,0.07,0.14,0.95,-1.18,1.1,-0.02
100,1900-01-01 17:15:53.148,40.92,19.4,2.17,0.33,0.66,0.68,-0.39,-0.47,-0.43,7.98,4.6,-0.72,0.08,0.13,0.95,-1.07,1.17,0.24
101,1900-01-01 17:15:53.241,41.3,19.61,2.26,0.34,0.66,0.67,-0.4,-0.33,-0.51,8.53,4.34,-0.69,0.07,0.14,0.95,-1.34,1.25,0.29
102,1900-01-01 17:15:53.342,41.39,19.44,2.34,0.33,0.66,0.67,-0.44,-0.4,-0.79,8.47,4.24,-0.66,0.07,0.14,0.95,-1.24,1.15,0.06
103,1900-01-01 17:15:53.390,41.15,19.58,2.38,0.34,0.66,0.68,-0.37,-0.68,-1.31,8.44,4.12,-0.66,0.07,0.14,0.96,-0.42,1.66,0.29
104,1900-01-01 17:15:53.484,41.2,19.37,2.34,0.33,0.66,0.68,-0.42,-0.6,-1.41,8.35,4.11,-0.62,0.07,0.14,0.95,-1.04,1.4,-0.26
105,1900-01-01 17:15:53.538,40.79,19.91,2.29,0.34,0.65,0.68,-0.5,-0.79,-1.45,8.6,4.51,-0.67,0.08,0.14,0.95,-1.27,1.3,-0.34
106,1900-01-01 17:15:53.628,40.72,19.38,2.22,0.33,0.65,0.68,-0.82,0.0,-1.02,8.08,4.37,-0.73,0.07,0.14,0.95,-1.15,1.3,0.02
107,1900-01-01 17:15:53.706,41.11,19.57,2.23,0.34,0.66,0.68,-0.82,-0.31,-0.92,8.23,4.37,-0.73,0.07,0.14,0.95,-1.31,1.18,-0.02
108,1900-01-01 17:15:53.767,41.17,19.54,2.25,0.34,0.66,0.68,-0.56,-0.47,-1.15,8.72,4.36,-0.74,0.07,0.15,0.95,-1.21,1.19,-0.08
109,1900-01-01 17:15:53.865,40.87,19.58,2.23,0.33,0.65,0.68,-0.7,-0.05,-0.95,8.28,4.35,-0.76,0.07,0.14,0.95,-1.4,1.29,-0.02
110,1900-01-01 17:15:53.910,40.99,19.44,2.24,0.33,0.66,0.68,-0.47,-0.45,-0.82,8.41,4.48,-0.78,0.08,0.14,0.95,-1.19,1.05,0.06
111,1900-01-01 17:15:54.008,40.82,19.54,2.28,0.33,0.65,0.68,-0.42,-0.4,-1.0,8.44,4.19,-0.78,0.07,0.14,0.95,-1.2,1.34,0.02
112,1900-01-01 17:15:54.100,40.84,19.59,2.29,0.34,0.66,0.68,-0.5,-0.36,-0.81,8.23,4.52,-0.78,0.08,0.14,0.96,-1.32,1.21,0.2
113,1900-01-01 17:15:54.147,40.82,19.58,2.32,0.34,0.65,0.68,-0.57,-0.24,-0.92,8.32,4.47,-0.76,0.07,0.14,0.95,-1.34,1.27,-0.06
114,1900-01-01 17:15:54.246,41.08,19.67,2.34,0.34,0.66,0.68,-0.37,-0.39,-0.79,8.66,4.33,-0.78,0.07,0.15,0.95,-1.52,1.05,0.1
115,1900-01-01 17:15:54.290,40.89,19.55,2.38,0.34,0.66,0.68,-0.39,-0.23,-1.08,8.49,4.23,-0.77,0.07,0.14,0.95,-1.53,1.25,0.01
116,1900-01-01 17:15:54.387,40.7,19.69,2.37,0.34,0.65,0.68,-0.4,-0.03,-1.13,8.28,4.48,-0.78,0.08,0.14,0.95,-1.37,1.41,-0.02
117,1900-01-01 17:15:54.481,40.8,19.56,2.36,0.33,0.65,0.68,-0.69,-0.14,-1.17,8.13,4.33,-0.79,0.07,0.14,0.95,-1.5,1.27,-0.1
118,1900-01-01 17:15:54.537,40.79,19.63,2.34,0.34,0.66,0.68,-0.68,-0.03,-1.02,8.33,4.52,-0.81,0.08,0.14,0.95,-1.5,1.25,0.09
119,1900-01-01 17:15:54.641,40.86,19.32,2.35,0.33,0.66,0.68,-0.69,0.47,-1.14,8.17,4.37,-0.81,0.07,0.14,0.95,-1.41,1.54,0.11
120,1900-01-01 17:15:54.690,40.97,19.42,2.33,0.33,0.66,0.68,-0.69,0.57,-1.19,8.44,4.25,-0.8,0.07,0.14,0.95,-1.54,1.52,0.13
121,1900-01-01 17:15:54.782,40.91,19.27,2.31,0.33,0.66,0.68,-0.64,0.23,-1.4,8.23,4.29,-0.79,0.07,0.14,0.95,-1.53,1.47,-0.11
122,1900-01-01 17:15:54.839,40.86,19.03,2.26,0.33,0.65,0.68,-0.68,0.08,-1.52,8.28,4.27,-0.81,0.07,0.14,0.95,-1.37,1.45,-0.2
123,1900-01-01 17:15:54.928,40.78,18.95,2.18,0.32,0.65,0.68,-0.72,0.18,-1.51,8.05,4.1,-0.85,0.07,0.14,0.95,-1.27,1.54,-0.13
124,1900-01-01 17:15:54.974,40.81,18.98,2.11,0.32,0.65,0.68,-0.54,0.3,-1.4,8.39,4.18,-0.88,0.07,0.14,0.95,-1.17,1.54,0.03
125,1900-01-01 17:15:55.067,40.98,18.71,2.06,0.32,0.65,0.68,-0.75,-0.21,-1.3,8.0,3.94,-0.88,0.07,0.13,0.95,-1.21,1.4,-0.13
126,1900-01-01 17:15:55.155,40.68,18.96,2.02,0.32,0.65,0.68,-0.68,-0.25,-1.34,8.27,4.04,-0.91,0.07,0.14,0.95,-1.01,1.48,-0.07
127,1900-01-01 17:15:55.196,40.75,18.97,1.98,0.33,0.66,0.69,-0.63,-0.01,-0.95,8.26,4.24,-0.93,0.07,0.14,0.95,-1.18,1.37,0.05
128,1900-01-01 17:15:55.291,40.86,18.56,1.99,0.32,0.65,0.68,-0.52,-0.16,-0.83,7.99,3.97,-0.93,0.07,0.13,0.95,-1.38,1.18,0.08
129,1900-01-01 17:15:55.393,40.73,19.0,2.02,0.33,0.65,0.69,-0.23,-0.94,-0.94,8.82,4.12,-0.93,0.07,0.15,0.95,-0.81,1.18,0.04
130,1900-01-01 17:15:55.435,40.63,18.7,2.04,0.32,0.65,0.69,-0.39,-0.6,-0.8,8.06,3.98,-0.93,0.07,0.13,0.95,-1.25,1.21,0.05
131,1900-01-01 17:15:55.526,40.67,18.93,2.08,0.32,0.65,0.68,-0.18,-0.1,-0.66,8.85,4.06,-0.93,0.07,0.15,0.96,-0.73,1.18,0.57
132,1900-01-01 17:15:55.627,42.33,19.06,2.13,0.33,0.68,0.67,0.05,-0.88,0.9,10.21,4.66,-0.86,0.08,0.17,0.92,-1.82,0.24,0.36
133,1900-01-01 17:15:55.677,41.33,16.94,2.43,0.29,0.66,0.69,1.29,-0.21,-1.76,7.93,3.45,-0.81,0.06,0.13,0.94,-0.96,1.48,-0.13
134,1900-01-01 17:15:55.764,40.55,19.48,2.32,0.33,0.65,0.68,1.13,-1.73,-0.72,9.8,3.76,-0.84,0.06,0.16,0.95,0.24,1.26,0.4
135,1900-01-01 17:15:55.825,40.45,19.94,2.37,0.34,0.65,0.68,0.07,-0.28,-0.99,9.77,3.8,-0.78,0.06,0.17,0.96,-1.58,1.15,0.08
136,1900-01-01 17:15:55.892,40.31,18.48,2.38,0.32,0.64,0.69,-0.79,0.53,-1.5,7.35,3.97,-0.78,0.07,0.12,0.95,-1.26,1.86,-0.1
137,1900-01-01 17:15:55.984,41.13,18.88,2.31,0.32,0.65,0.68,-0.34,-1.01,-0.86,8.58,4.21,-0.81,0.07,0.14,0.95,-0.26,1.29,0.02
138,1900-01-01 17:15:56.076,40.97,20.14,2.34,0.35,0.66,0.68,-0.82,-0.52,-1.41,9.41,4.32,-0.81,0.07,0.16,0.95,-2.02,1.02,-0.36
139,1900-01-01 17:15:56.135,40.3,18.53,2.28,0.32,0.64,0.69,-0.5,0.09,-1.04,7.72,3.93,-0.87,0.07,0.13,0.95,-1.22,1.36,0.11
140,1900-01-01 17:15:56.186,40.94,19.55,2.28,0.34,0.66,0.68,-0.32,-0.31,-0.94,9.05,4.29,-0.87,0.07,0.15,0.95,-1.14,1.38,0.05
141,1900-01-01 17:15:56.286,40.85,19.04,2.3,0.33,0.65,0.68,-0.49,-0.21,-1.22,8.4,4.07,-0.87,0.07,0.14,0.95,-1.75,1.1,-0.2
142,1900-01-01 17:15:56.332,40.82,19.14,2.27,0.33,0.66,0.68,-0.5,-0.2,-1.04,8.4,4.31,-0.9,0.07,0.14,0.95,-1.53,1.2,0.02
143,1900-01-01 17:15:56.429,40.98,18.88,2.27,0.32,0.66,0.68,-0.38,-0.04,-1.15,8.56,4.01,-0.91,0.07,0.14,0.95,-1.36,1.35,-0.03
144,1900-01-01 17:15:56.520,40.93,19.25,2.25,0.33,0.66,0.68,-0.4,0.12,-0.95,8.78,4.14,-0.92,0.07,0.15,0.95,-1.66,1.25,0.11
145,1900-01-01 17:15:56.567,40.84,18.76,2.27,0.32,0.65,0.68,-0.32,-0.18,-0.98,8.29,3.86,-0.91,0.06,0.14,0.95,-1.31,1.31,-0.02
146,1900-01-01 17:15:56.662,40.85,19.09,2.28,0.33,0.66,0.68,-0.36,-0.21,-1.08,8.47,4.28,-0.93,0.07,0.14,0.95,-1.33,1.39,0.03
147,1900-01-01 17:15:56.714,40.91,18.76,2.27,0.32,0.65,0.68,-0.5,0.13,-1.08,8.37,3.88,-0.93,0.06,0.14,0.95,-1.37,1.44,0.08
148,1900-01-01 17:15:56.809,40.91,19.06,2.27,0.33,0.65,0.68,-0.57,-0.01,-0.85,8.3,4.22,-0.93,0.07,0.14,0.95,-1.4,1.24,0.1
149,1900-01-01 17:15:56.901,40.9,18.71,2.3,0.32,0.65,0.68,-0.4,-0.19,-1.16,8.55,4.02,-0.92,0.07,0.14,0.95,-1.28,1.24,0.01
150,1900-01-01 17:15:56.948,40.97,18.85,2.28,0.32,0.66,0.68,-0.73,-0.21,-0.98,8.31,4.17,-0.93,0.07,0.14,0.95,-1.45,1.14,0.01
151,1900-01-01 17:15:57.043,40.99,18.82,2.29,0.32,0.66,0.68,-0.63,-0.21,-1.02,8.51,3.92,-0.93,0.07,0.14,0.95,-1.26,1.26,-0.02
152,1900-01-01 17:15:57.090,40.91,18.93,2.29,0.32,0.65,0.68,-0.46,-0.34,-0.93,8.35,4.17,-0.94,0.07,0.14,0.95,-1.28,1.18,-0.02
153,1900-01-01 17:15:57.187,40.75,18.75,2.31,0.32,0.65,0.68,-0.47,-0.64,-1.09,8.37,4.05,-0.96,0.07,0.14,0.95,-1.04,1.24,-0.07
154,1900-01-01 17:15:57.280,40.82,19.11,2.3,0.33,0.66,0.68,-0.64,-0.37,-0.92,8.47,4.33,-0.97,0.07,0.14,0.95,-1.2,1.22,0.03
155,1900-01-01 17:15:57.328,41.09,18.74,2.32,0.32,0.66,0.68,-0.56,-0.43,-1.06,8.52,3.91,-0.98,0.07,0.14,0.95,-1.33,1.23,-0.03
156,1900-01-01 17:15:57.423,40.7,19.09,2.32,0.33,0.65,0.69,-0.53,-0.28,-1.05,8.49,4.31,-0.99,0.07,0.14,0.95,-1.2,1.31,-0.02
157,1900-01-01 17:15:57.522,41.01,18.78,2.32,0.32,0.65,0.68,-0.59,0.04,-1.08,8.54,3.95,-1.0,0.07,0.14,0.95,-1.37,1.35,0.04
158,1900-01-01 17:15:57.574,40.76,18.85,2.31,0.32,0.65,0.69,-0.34,-0.23,-1.29,8.65,4.16,-1.0,0.07,0.15,0.95,-1.16,1.48,-0.11
159,1900-01-01 17:15:57.626,40.93,18.71,2.28,0.32,0.65,0.68,-0.41,-0.35,-1.26,8.44,3.86,-1.03,0.06,0.14,0.95,-1.24,1.4,-0.15
160,1900-01-01 17:15:57.713,40.88,18.92,2.24,0.32,0.65,0.68,-0.28,-0.53,-1.17,8.57,4.18,-1.06,0.07,0.14,0.95,-1.15,1.33,-0.18
161,1900-01-01 17:15:57.799,40.87,18.69,2.22,0.32,0.65,0.69,-0.69,-0.29,-0.9,8.47,3.95,-1.1,0.07,0.14,0.95,-1.37,1.12,-0.02
162,1900-01-01 17:15:57.898,41.08,18.77,2.24,0.32,0.66,0.68,-0.74,-0.47,-1.08,8.4,3.94,-1.11,0.07,0.14,0.95,-1.27,1.18,-0.12
163,1900-01-01 17:15:57.946,40.72,18.87,2.24,0.32,0.65,0.69,-0.53,-0.38,-1.15,8.51,4.11,-1.13,0.07,0.14,0.95,-1.21,1.31,-0.02
164,1900-01-01 17:15:58.042,40.79,18.77,2.22,0.32,0.65,0.69,-0.44,0.01,-1.05,8.5,4.07,-1.14,0.07,0.14,0.95,-1.24,1.41,0.05
165,1900-01-01 17:15:58.083,40.96,18.61,2.22,0.32,0.66,0.69,-0.6,-0.4,-1.11,8.41,3.99,-1.15,0.07,0.14,0.95,-1.4,1.19,-0.1
166,1900-01-01 17:15:58.178,40.64,18.74,2.21,0.32,0.65,0.69,-0.56,-0.38,-1.15,8.41,4.04,-1.17,0.07,0.14,0.95,-1.15,1.35,-0.07
167,1900-01-01 17:15:58.272,40.87,18.75,2.2,0.32,0.66,0.69,-0.61,-0.24,-1.1,8.42,4.01,-1.19,0.07,0.14,0.95,-1.34,1.26,-0.03
168,1900-01-01 17:15:58.322,40.79,18.71,2.19,0.32,0.65,0.69,-0.64,-0.23,-1.15,8.33,4.07,-1.2,0.07,0.14,0.95,-1.37,1.28,-0.03
169,1900-01-01 17:15:58.415,40.95,18.73,2.17,0.32,0.66,0.68,-0.67,0.0,-1.08,8.51,3.98,-1.22,0.07,0.14,0.95,-1.35,1.36,0.08
170,1900-01-01 17:15:58.463,41.08,18.62,2.17,0.32,0.66,0.68,-0.46,-0.29,-1.08,8.71,3.96,-1.21,0.07,0.15,0.95,-1.44,1.18,-0.01
171,1900-01-01 17:15:58.577,40.84,18.79,2.16,0.32,0.65,0.68,-0.49,-0.44,-0.85,8.59,4.01,-1.22,0.07,0.14,0.95,-1.47,1.04,0.01
172,1900-01-01 17:15:58.627,40.56,18.65,2.19,0.32,0.65,0.69,-0.48,-0.31,-0.93,8.34,4.09,-1.23,0.07,0.14,0.95,-1.35,1.15,0.01
173,1900-01-01 17:15:58.717,40.78,18.81,2.21,0.32,0.65,0.68,-0.53,-0.17,-0.89,8.31,4.05,-1.24,0.07,0.14,0.95,-1.67,1.11,0.1
174,1900-01-01 17:15:58.762,40.87,18.65,2.23,0.32,0.65,0.69,-0.56,-0.07,-0.95,8.45,3.96,-1.23,0.07,0.14,0.95,-1.31,1.29,0.11
175,1900-01-01 17:15:58.864,40.81,18.78,2.25,0.32,0.65,0.69,-0.44,0.02,-0.79,8.45,4.09,-1.22,0.07,0.14,0.95,-1.45,1.27,0.14
176,1900-01-01 17:15:58.973,40.94,18.56,2.29,0.32,0.66,0.68,-0.27,-0.27,-0.87,8.33,4.08,-1.21,0.07,0.14,0.95,-1.36,1.19,0.04
177,1900-01-01 17:15:59.020,40.65,18.71,2.31,0.32,0.65,0.69,-0.43,-0.18,-0.85,8.3,4.01,-1.21,0.07,0.14,0.95,-1.41,1.24,0.09
178,1900-01-01 17:15:59.070,40.96,18.52,2.34,0.32,0.66,0.68,-0.35,-0.2,-0.84,8.48,3.96,-1.21,0.07,0.14,0.95,-1.36,1.23,0.1
179,1900-01-01 17:15:59.157,40.72,18.78,2.37,0.32,0.65,0.69,-0.24,-0.56,-0.97,8.28,4.19,-1.2,0.07,0.14,0.95,-1.31,1.24,-0.04
180,1900-01-01 17:15:59.233,40.87,18.45,2.38,0.32,0.66,0.69,-0.47,-0.31,-0.91,8.09,4.14,-1.21,0.07,0.14,0.95,-1.34,1.12,0.02
181,1900-01-01 17:15:59.321,40.91,18.72,2.4,0.32,0.66,0.69,-0.33,-0.6,-0.99,8.37,4.2,-1.22,0.07,0.14,0.95,-1.21,1.18,-0.05
182,1900-01-01 17:15:59.412,40.92,18.5,2.41,0.32,0.65,0.68,-0.57,-0.41,-0.89,8.12,3.99,-1.23,0.07,0.14,0.95,-1.33,1.11,0.06
183,1900-01-01 17:15:59.467,41.06,18.79,2.44,0.32,0.66,0.68,-0.34,-0.26,-0.92,8.7,4.11,-1.23,0.07,0.15,0.95,-1.22,1.25,0.11
184,1900-01-01 17:15:59.559,40.98,18.54,2.45,0.32,0.66,0.68,-0.3,-0.47,-0.85,8.34,3.98,-1.22,0.07,0.14,0.95,-1.09,1.18,0.04
185,1900-01-01 17:15:59.603,40.77,18.91,2.48,0.32,0.65,0.69,-0.39,-0.57,-0.95,8.56,4.1,-1.23,0.07,0.14,0.95,-1.2,1.2,0.01
186,1900-01-01 17:15:59.699,40.55,18.72,2.5,0.32,0.65,0.69,-0.64,-0.18,-0.95,8.08,4.1,-1.23,0.07,0.14,0.95,-1.37,1.21,-0.01
187,1900-01-01 17:15:59.778,40.64,18.92,2.51,0.32,0.65,0.69,-0.65,-0.08,-1.05,8.18,4.19,-1.24,0.07,0.14,0.95,-1.48,1.26,-0.01
188,1900-01-01 17:15:59.829,40.71,18.63,2.51,0.32,0.65,0.69,-0.84,-0.32,-1.15,8.2,4.07,-1.25,0.07,0.14,0.95,-1.38,1.17,-0.15
189,1900-01-01 17:15:59.923,40.71,18.73,2.5,0.32,0.65,0.69,-0.85,-0.11,-1.27,8.3,4.16,-1.28,0.07,0.14,0.95,-1.37,1.28,-0.02
190,1900-01-01 17:15:59.987,40.69,18.73,2.46,0.32,0.65,0.69,-0.5,-0.33,-1.07,8.22,4.14,-1.3,0.07,0.14,0.95,-1.31,1.24,-0.02
191,1900-01-01 17:16:00.097,40.56,18.81,2.46,0.32,0.65,0.69,-0.5,-0.17,-1.02,8.33,4.17,-1.31,0.07,0.14,0.95,-1.29,1.32,0.0
192,1900-01-01 17:16:00.142,40.77,18.49,2.46,0.32,0.65,0.68,-0.6,-0.4,-1.0,8.21,3.99,-1.31,0.07,0.14,0.95,-1.08,1.25,-0.02
193,1900-01-01 17:16:00.234,40.68,18.72,2.47,0.32,0.65,0.69,-0.54,-0.55,-0.94,8.32,4.1,-1.33,0.07,0.14,0.95,-1.22,1.21,-0.04
194,1900-01-01 17:16:00.289,40.56,18.8,2.48,0.32,0.65,0.69,-0.8,0.16,-1.02,8.37,4.15,-1.34,0.07,0.14,0.95,-1.24,1.35,0.05
195,1900-01-01 17:16:00.376,40.82,18.68,2.49,0.32,0.65,0.69,-0.62,-0.48,-1.07,8.42,4.15,-1.34,0.07,0.14,0.95,-1.33,1.16,-0.08
196,1900-01-01 17:16:00.473,40.72,18.58,2.48,0.32,0.65,0.69,-0.57,-0.82,-1.55,8.32,4.07,-1.36,0.07,0.14,0.95,-1.39,1.24,-0.39
197,1900-01-01 17:16:00.522,40.5,18.61,2.41,0.32,0.65,0.69,-0.6,-0.12,-1.54,8.28,3.97,-1.43,0.07,0.14,0.95,-1.36,1.56,-0.26
198,1900-01-01 17:16:00.616,40.58,18.62,2.33,0.32,0.65,0.69,-0.66,-0.18,-1.39,8.38,4.0,-1.48,0.07,0.14,0.95,-1.22,1.44,-0.13
199,1900-01-01 17:16:00.660,40.67,18.52,2.28,0.32,0.65,0.69,-0.53,-0.27,-1.14,8.33,3.99,-1.51,0.07,0.14,0.95,-1.2,1.36,-0.08
200,1900-01-01 17:16:00.756,40.59,18.64,2.26,0.32,0.65,0.69,-0.64,-0.02,-1.03,8.37,4.01,-1.53,0.07,0.14,0.95,-1.28,1.36,0.01
201,1900-01-01 17:16:00.858,40.63,18.53,2.26,0.32,0.65,0.69,-0.52,-0.22,-1.11,8.27,3.98,-1.53,0.07,0.14,0.95,-1.09,1.39,-0.02
202,1900-01-01 17:16:00.897,40.63,18.61,2.25,0.32,0.65,0.69,-0.41,-0.42,-1.0,8.44,3.99,-1.55,0.07,0.14,0.95,-1.42,1.13,-0.02
203,1900-01-01 17:16:00.993,40.67,18.42,2.26,0.32,0.65,0.69,-0.39,-0.22,-0.79,8.46,3.85,-1.56,0.06,0.14,0.95,-1.34,1.13,0.13
204,1900-01-01 17:16:01.045,40.52,18.56,2.3,0.32,0.65,0.69,-0.45,-0.6,-0.89,8.21,4.01,-1.55,0.07,0.14,0.95,-1.27,1.11,0.01
205,1900-01-01 17:16:01.135,40.56,18.57,2.32,0.32,0.65,0.69,-0.5,-0.5,-0.79,8.21,4.07,-1.55,0.07,0.14,0.95,-1.31,1.08,0.02
206,1900-01-01 17:16:01.237,40.56,18.59,2.36,0.32,0.65,0.69,-0.52,-0.14,-0.79,8.27,4.07,-1.56,0.07,0.14,0.95,-1.5,1.18,0.14
207,1900-01-01 17:16:01.278,40.61,18.62,2.4,0.32,0.65,0.69,-0.47,-0.03,-0.89,8.25,4.01,-1.55,0.07,0.14,0.95,-1.47,1.22,0.12
208,1900-01-01 17:16:01.379,40.73,18.56,2.42,0.32,0.65,0.69,-0.43,-0.37,-0.84,8.27,4.01,-1.53,0.07,0.14,0.95,-1.53,1.11,0.1
209,1900-01-01 17:16:01.422,40.56,18.54,2.45,0.32,0.65,0.69,-0.27,-0.28,-0.76,8.31,4.12,-1.53,0.07,0.14,0.95,-1.31,1.16,0.13
210,1900-01-01 17:16:01.512,40.64,18.61,2.5,0.32,0.65,0.69,-0.28,-0.29,-0.85,8.38,4.06,-1.52,0.07,0.14,0.95,-1.22,1.26,0.11
211,1900-01-01 17:16:01.605,40.63,18.61,2.52,0.32,0.65,0.69,-0.31,-0.26,-0.85,8.21,4.11,-1.51,0.07,0.14,0.95,-1.28,1.27,0.11
212,1900-01-01 17:16:01.654,40.61,18.73,2.55,0.32,0.65,0.69,-0.22,-0.23,-0.78,8.38,4.13,-1.5,0.07,0.14,0.95,-1.21,1.28,0.15
213,1900-01-01 17:16:01.746,40.65,18.43,2.59,0.32,0.65,0.69,-0.3,-0.53,-0.83,7.87,4.08,-1.49,0.07,0.13,0.95,-1.17,1.21,0.02
214,1900-01-01 17:16:01.839,40.93,18.68,2.63,0.32,0.66,0.68,-0.37,-0.26,-0.82,8.41,4.04,-1.49,0.07,0.14,0.95,-1.41,1.21,0.12
215,1900-01-01 17:16:01.889,40.56,18.71,2.66,0.32,0.65,0.69,-0.4,-0.36,-0.75,8.08,4.1,-1.48,0.07,0.14,0.95,-1.04,1.21,0.02
216,1900-01-01 17:16:01.979,40.8,18.81,2.71,0.32,0.65,0.68,-0.59,-0.55,-0.73,8.12,4.09,-1.49,0.07,0.14,0.95,-1.28,1.04,0.05
217,1900-01-01 17:16:02.028,40.73,18.8,2.75,0.32,0.65,0.69,-0.58,-0.86,-0.88,8.31,4.11,-1.49,0.07,0.14,0.95,-1.08,1.07,-0.11
218,1900-01-01 17:16:02.121,40.46,18.94,2.78,0.32,0.65,0.69,-0.55,-0.53,-0.83,8.21,4.23,-1.51,0.07,0.14,0.95,-1.32,1.1,0.02
219,1900-01-01 17:16:02.215,40.66,18.9,2.81,0.32,0.65,0.69,-0.6,-0.46,-0.68,8.39,4.14,-1.52,0.07,0.14,0.95,-1.18,1.02,0.12
220,1900-01-01 17:16:02.262,40.55,18.95,2.87,0.33,0.65,0.69,-0.6,-0.43,-0.92,8.16,4.25,-1.51,0.07,0.14,0.95,-1.31,1.19,-0.03
221,1900-01-01 17:16:02.359,40.52,19.04,2.89,0.32,0.65,0.68,-0.58,-0.44,-1.21,8.53,4.03,-1.52,0.07,0.14,0.96,-1.18,1.28,-0.07
222,1900-01-01 17:16:02.408,40.51,18.97,2.86,0.32,0.65,0.69,-0.71,-0.44,-1.35,8.25,4.21,-1.54,0.07,0.14,0.95,-1.21,1.34,-0.16
223,1900-01-01 17:16:02.496,40.61,19.0,2.81,0.33,0.65,0.69,-0.5,-0.04,-1.24,8.69,4.14,-1.57,0.07,0.15,0.95,-1.26,1.49,-0.02
224,1900-01-01 17:16:02.580,40.62,18.82,2.78,0.32,0.65,0.69,-0.6,0.1,-1.24,8.21,4.21,-1.58,0.07,0.14,0.95,-1.33,1.5,-0.08
225,1900-01-01 17:16:02.668,40.58,18.38,2.75,0.31,0.65,0.69,-0.49,-0.02,-1.32,8.16,3.87,-1.61,0.06,0.14,0.95,-1.12,1.53,0.05
226,1900-01-01 17:16:02.718,40.79,19.89,2.71,0.34,0.66,0.68,-0.98,-0.93,0.18,9.53,4.52,-1.61,0.08,0.16,0.96,-1.56,0.26,0.15
227,1900-01-01 17:16:02.811,40.35,18.21,2.89,0.31,0.65,0.69,-0.79,-0.41,-1.39,7.25,4.01,-1.59,0.07,0.12,0.95,-1.65,1.25,-0.29
228,1900-01-01 17:16:02.857,40.63,18.88,2.84,0.32,0.65,0.69,-0.03,0.02,-2.02,8.26,4.0,-1.65,0.07,0.14,0.95,-0.69,2.3,-0.25
229,1900-01-01 17:16:02.951,40.42,19.49,2.69,0.33,0.64,0.68,-0.15,-0.6,-1.04,9.08,4.55,-1.69,0.08,0.15,0.96,-0.67,1.21,0.05
230,1900-01-01 17:16:03.060,40.73,18.83,2.69,0.32,0.66,0.69,-1.53,-0.16,-0.8,8.1,4.15,-1.69,0.07,0.14,0.95,-2.66,0.27,-0.19
231,1900-01-01 17:16:03.102,40.53,18.26,2.73,0.31,0.65,0.69,0.25,-0.53,-1.18,7.66,3.89,-1.73,0.07,0.13,0.95,-0.89,1.76,-0.04
232,1900-01-01 17:16:03.190,40.68,19.28,2.71,0.33,0.65,0.68,-0.06,-0.6,-0.69,9.27,4.52,-1.74,0.08,0.16,0.95,-0.11,1.44,0.29
233,1900-01-01 17:16:03.238,40.76,18.96,2.76,0.33,0.65,0.68,-1.0,-0.28,-1.11,8.06,4.33,-1.71,0.07,0.13,0.95,-2.4,0.68,-0.24
234,1900-01-01 17:16:03.330,40.39,18.41,2.75,0.31,0.64,0.69,-0.27,-0.5,-0.61,8.02,3.96,-1.75,0.07,0.13,0.95,-1.0,1.11,0.27
235,1900-01-01 17:16:03.424,40.66,19.4,2.82,0.33,0.66,0.69,-0.27,-0.54,-0.63,8.68,4.37,-1.72,0.07,0.15,0.95,-1.19,1.28,0.04
236,1900-01-01 17:16:03.522,40.23,19.11,2.88,0.33,0.65,0.69,-0.56,0.08,-1.11,8.21,4.28,-1.72,0.07,0.14,0.95,-1.79,1.18,0.04
237,1900-01-01 17:16:03.577,40.45,18.74,2.87,0.32,0.65,0.69,-0.5,-0.18,-0.83,8.11,4.11,-1.73,0.07,0.14,0.95,-1.19,1.33,0.13
238,1900-01-01 17:16:03.627,40.61,19.09,2.9,0.33,0.65,0.69,-0.37,-0.07,-1.15,8.41,4.32,-1.72,0.07,0.14,0.95,-1.36,1.43,0.0
239,1900-01-01 17:16:03.715,40.58,18.99,2.89,0.33,0.65,0.69,-0.77,-0.02,-1.05,8.24,4.23,-1.72,0.07,0.14,0.95,-1.53,1.15,0.07
240,1900-01-01 17:16:03.807,40.63,18.68,2.89,0.32,0.65,0.69,-0.36,-0.26,-0.94,8.16,4.16,-1.72,0.07,0.14,0.95,-1.28,1.24,0.05
241,1900-01-01 17:16:03.855,40.52,18.9,2.9,0.32,0.65,0.69,-0.39,-0.18,-1.1,8.25,4.24,-1.72,0.07,0.14,0.95,-1.35,1.4,0.02
242,1900-01-01 17:16:03.949,40.58,18.78,2.89,0.32,0.65,0.69,-0.44,-0.28,-1.02,8.08,4.21,-1.73,0.07,0.14,0.95,-1.31,1.22,-0.05
243,1900-01-01 17:16:03.996,40.54,18.9,2.9,0.32,0.65,0.69,-0.55,-0.17,-0.9,8.21,4.15,-1.74,0.07,0.14,0.95,-1.37,1.25,0.09
244,1900-01-01 17:16:04.089,40.64,18.69,2.92,0.32,0.65,0.69,-0.52,-0.14,-0.98,8.09,4.13,-1.74,0.07,0.14,0.95,-1.25,1.34,0.05
245,1900-01-01 17:16:04.182,40.68,18.93,2.93,0.33,0.65,0.69,-0.48,-0.15,-0.93,8.26,4.25,-1.74,0.07,0.14,0.95,-1.34,1.25,0.05
246,1900-01-01 17:16:04.228,40.55,18.77,2.95,0.32,0.65,0.69,-0.4,-0.51,-1.0,8.32,4.11,-1.74,0.07,0.14,0.95,-1.14,1.2,-0.02
247,1900-01-01 17:16:04.322,40.58,18.73,2.95,0.32,0.65,0.69,-0.55,-0.48,-0.9,8.21,4.11,-1.75,0.07,0.14,0.95,-1.25,1.13,0.01
248,1900-01-01 17:16:04.415,40.43,18.98,2.98,0.33,0.65,0.69,-0.39,-0.27,-1.14,8.22,4.35,-1.76,0.07,0.14,0.95,-1.14,1.34,-0.05
249,1900-01-01 17:16:04.461,40.52,18.81,2.96,0.32,0.65,0.69,-0.53,-0.26,-1.03,8.2,4.09,-1.77,0.07,0.14,0.95,-1.35,1.29,-0.01
250,1900-01-01 17:16:04.556,40.34,18.82,2.96,0.32,0.65,0.69,-0.63,-0.07,-1.18,8.21,4.2,-1.78,0.07,0.14,0.95,-1.27,1.37,-0.03
251,1900-01-01 17:16:04.602,40.58,18.85,2.94,0.32,0.65,0.69,-0.56,-0.04,-0.85,8.14,4.13,-1.8,0.07,0.14,0.95,-1.41,1.25,0.05
252,1900-01-01 17:16:04.697,40.43,18.68,2.97,0.32,0.65,0.69,-0.37,-0.47,-0.88,8.13,4.03,-1.8,0.07,0.14,0.95,-1.05,1.2,0.03
253,1900-01-01 17:16:04.790,40.66,18.92,3.0,0.32,0.65,0.69,-0.57,-0.5,-1.08,8.21,4.36,-1.8,0.07,0.14,0.95,-1.19,1.22,-0.08
254,1900-01-01 17:16:04.839,40.5,18.68,2.99,0.32,0.65,0.69,-0.68,-0.43,-1.08,8.31,4.1,-1.82,0.07,0.14,0.95,-1.31,1.11,-0.1
255,1900-01-01 17:16:04.934,40.4,18.94,2.98,0.32,0.65,0.69,-0.6,-0.25,-0.95,8.37,4.25,-1.84,0.07,0.14,0.95,-1.4,1.21,0.01
256,1900-01-01 17:16:05.025,40.57,18.74,3.0,0.32,0.65,0.69,-0.5,-0.25,-0.95,8.28,4.15,-1.85,0.07,0.14,0.95,-1.23,1.19,0.06
257,1900-01-01 17:16:05.072,40.61,18.9,3.01,0.32,0.65,0.69,-0.53,-0.54,-1.01,8.32,4.3,-1.85,0.07,0.14,0.95,-1.37,1.08,-0.14
258,1900-01-01 17:16:05.166,40.58,18.71,3.02,0.32,0.65,0.69,-0.64,-0.22,-1.29,8.13,4.1,-1.88,0.07,0.14,0.95,-1.34,1.45,-0.16
259,1900-01-01 17:16:05.257,40.48,18.83,2.98,0.32,0.65,0.69,-0.61,-0.18,-1.42,8.2,4.28,-1.91,0.07,0.14,0.95,-1.31,1.48,-0.18
260,1900-01-01 17:16:05.304,40.52,18.74,2.92,0.32,0.65,0.69,-0.57,-0.07,-1.36,8.38,4.03,-1.95,0.07,0.14,0.95,-1.44,1.33,-0.08
261,1900-01-01 17:16:05.399,40.52,18.67,2.87,0.32,0.65,0.69,-0.53,-0.21,-1.24,8.34,4.16,-1.97,0.07,0.14,0.95,-1.34,1.27,-0.05
262,1900-01-01 17:16:05.446,40.72,18.49,2.84,0.32,0.65,0.69,-0.35,-0.23,-1.05,8.48,3.9,-1.99,0.07,0.14,0.95,-1.37,1.23,0.02
263,1900-01-01 17:16:05.539,40.45,18.79,2.84,0.32,0.65,0.69,-0.39,-0.39,-1.11,8.37,4.17,-1.99,0.07,0.14,0.95,-1.14,1.25,0.02
264,1900-01-01 17:16:05.632,40.61,18.38,2.83,0.31,0.65,0.69,-0.53,-0.36,-0.85,8.0,4.04,-2.0,0.07,0.13,0.95,-1.4,1.03,0.04
265,1900-01-01 17:16:05.680,40.36,18.76,2.86,0.32,0.65,0.69,-0.39,-0.47,-0.79,8.48,4.19,-2.0,0.07,0.14,0.95,-1.23,1.13,0.07
266,1900-01-01 17:16:05.772,40.52,18.59,2.9,0.32,0.65,0.69,-0.58,-0.12,-0.85,8.16,4.06,-2.0,0.07,0.14,0.95,-1.39,1.18,0.12
267,1900-01-01 17:16:05.819,40.56,18.78,2.93,0.32,0.65,0.69,-0.38,-0.3,-0.9,8.22,4.2,-1.99,0.07,0.14,0.95,-1.39,1.21,0.04
268,1900-01-01 17:16:05.912,40.49,18.66,2.95,0.32,0.65,0.69,-0.5,-0.09,-0.91,8.14,4.14,-1.99,0.07,0.14,0.95,-1.44,1.25,0.09
269,1900-01-01 17:16:06.007,40.32,18.71,2.97,0.32,0.65,0.69,-0.43,-0.1,-0.82,8.2,4.12,-1.99,0.07,0.14,0.95,-1.31,1.32,0.14
270,1900-01-01 17:16:06.056,40.54,18.62,3.0,0.32,0.65,0.69,-0.4,-0.07,-0.9,8.18,4.04,-1.97,0.07,0.14,0.95,-1.45,1.26,0.14
271,1900-01-01 17:16:06.147,40.57,18.7,3.03,0.32,0.65,0.69,-0.42,0.0,-1.06,8.25,4.16,-1.96,0.07,0.14,0.95,-1.46,1.27,0.04
272,1900-01-01 17:16:06.195,40.33,18.44,3.02,0.32,0.65,0.69,-0.44,-0.11,-1.09,8.04,4.09,-1.96,0.07,0.13,0.95,-1.29,1.25,-0.03
273,1900-01-01 17:16:06.288,40.4,18.6,3.02,0.32,0.65,0.69,-0.47,-0.09,-1.21,7.99,4.2,-1.98,0.07,0.13,0.95,-1.47,1.28,-0.04
274,1900-01-01 17:16:06.382,40.6,18.49,2.99,0.32,0.65,0.69,-0.63,-0.02,-1.05,8.11,4.02,-1.99,0.07,0.14,0.95,-1.47,1.21,-0.01
275,1900-01-01 17:16:06.429,40.41,18.53,2.99,0.32,0.65,0.69,-0.58,-0.19,-1.17,8.18,4.24,-2.0,0.07,0.14,0.95,-1.37,1.26,-0.08
276,1900-01-01 17:16:06.525,40.36,18.42,2.97,0.32,0.65,0.69,-0.44,-0.27,-0.94,7.83,4.16,-2.02,0.07,0.13,0.95,-1.31,1.21,0.02
277,1900-01-01 17:16:06.617,40.57,18.47,2.99,0.32,0.65,0.69,-0.44,-0.37,-1.08,8.03,4.17,-2.03,0.07,0.13,0.95,-1.26,1.27,-0.04
278,1900-01-01 17:16:06.663,40.56,18.48,2.98,0.32,0.65,0.69,-0.6,-0.36,-1.16,8.08,4.07,-2.04,0.07,0.14,0.95,-1.36,1.27,-0.09
279,1900-01-01 17:16:06.756,40.52,18.44,2.96,0.32,0.65,0.69,-0.56,-0.33,-1.09,7.93,4.11,-2.06,0.07,0.13,0.95,-1.31,1.28,-0.06
280,1900-01-01 17:16:06.850,40.57,18.44,2.96,0.32,0.65,0.69,-0.57,-0.38,-1.02,8.11,4.13,-2.08,0.07,0.14,0.95,-1.25,1.24,-0.05
281,1900-01-01 17:16:06.896,40.52,18.51,2.96,0.32,0.65,0.69,-0.65,-0.44,-0.98,7.87,4.12,-2.1,0.07,0.13,0.95,-1.31,1.15,-0.06
282,1900-01-01 17:16:06.990,40.47,18.44,2.97,0.32,0.65,0.69,-0.6,-0.33,-0.89,8.04,4.13,-2.11,0.07,0.14,0.95,-1.09,1.21,0.04
283,1900-01-01 17:16:07.043,40.57,18.53,2.99,0.32,0.65,0.69,-0.6,-0.47,-0.96,8.17,4.18,-2.12,0.07,0.14,0.95,-1.18,1.16,-0.02
284,1900-01-01 17:16:07.132,40.36,18.47,3.01,0.32,0.65,0.69,-0.47,-0.44,-0.95,8.08,4.07,-2.13,0.07,0.14,0.95,-1.21,1.15,0.03
285,1900-01-01 17:16:07.224,40.29,18.76,3.02,0.32,0.65,0.69,-0.42,-0.19,-0.76,8.31,4.25,-2.13,0.07,0.14,0.95,-1.2,1.22,0.14
286,1900-01-01 17:16:07.274,40.5,18.28,3.06,0.31,0.65,0.69,-0.65,-0.42,-0.92,8.02,4.07,-2.12,0.07,0.13,0.95,-1.27,1.07,0.02
287,1900-01-01 17:16:07.367,40.37,18.73,3.08,0.32,0.65,0.69,-0.5,-0.34,-0.87,8.2,4.34,-2.13,0.07,0.14,0.95,-1.24,1.28,0.05
288,1900-01-01 17:16:07.411,40.5,18.56,3.11,0.32,0.65,0.69,-0.62,-0.37,-0.92,8.28,4.14,-2.13,0.07,0.14,0.95,-1.21,1.11,0.06
289,1900-01-01 17:16:07.506,40.09,18.68,3.13,0.32,0.65,0.7,-0.37,-0.53,-0.97,8.12,4.44,-2.13,0.07,0.14,0.95,-1.33,1.24,0.07
290,1900-01-01 17:16:07.564,39.95,18.33,3.14,0.31,0.64,0.7,-0.44,1.08,-0.46,8.27,3.86,-2.12,0.06,0.14,0.95,-1.98,1.63,0.78
291,1900-01-01 17:16:07.645,39.84,18.42,3.23,0.32,0.65,0.71,-1.66,3.06,0.89,7.99,4.03,-2.02,0.07,0.13,0.95,-1.74,2.21,1.58
292,1900-01-01 17:16:07.740,40.49,17.86,3.52,0.31,0.66,0.7,-2.16,5.44,-1.36,7.74,3.92,-1.79,0.07,0.13,0.95,-1.14,4.03,0.83
293,1900-01-01 17:16:07.832,40.35,17.2,3.48,0.29,0.64,0.7,-0.25,2.66,-3.5,8.29,3.34,-1.67,0.06,0.14,0.95,-0.67,4.21,-0.21
294,1900-01-01 17:16:07.881,39.48,17.16,3.1,0.29,0.63,0.71,-1.6,4.38,-1.98,8.0,2.95,-1.71,0.05,0.13,0.95,-1.96,3.21,0.23
295,1900-01-01 17:16:07.974,40.28,16.18,2.96,0.27,0.64,0.7,-2.22,3.15,-0.98,8.19,2.74,-1.68,0.05,0.14,0.95,-0.79,2.2,0.46
296,1900-01-01 17:16:08.027,40.18,16.56,2.97,0.28,0.64,0.7,-0.23,-1.09,-0.79,8.44,2.77,-1.62,0.05,0.14,0.95,-1.69,0.32,-0.12
297,1900-01-01 17:16:08.112,39.58,15.73,3.01,0.27,0.63,0.71,0.29,-2.73,0.37,7.79,2.83,-1.65,0.05,0.13,0.95,-0.75,-0.5,0.05
298,1900-01-01 17:16:08.205,39.77,17.15,3.22,0.3,0.64,0.71,0.64,-2.68,1.31,8.28,3.08,-1.65,0.05,0.14,0.95,-1.05,-0.15,0.34
299,1900-01-01 17:16:08.259,40.04,17.57,3.58,0.3,0.64,0.7,1.72,-3.01,0.85,8.21,3.29,-1.61,0.06,0.14,0.95,-1.22,0.08,0.37
300,1900-01-01 17:16:08.352,39.96,18.35,3.87,0.32,0.64,0.7,2.07,-4.27,1.56,8.54,3.78,-1.56,0.06,0.14,0.95,-0.4,-0.21,0.49
301,1900-01-01 17:16:08.439,40.14,18.53,4.26,0.32,0.65,0.7,0.02,-3.77,2.04,7.83,3.95,-1.49,0.07,0.13,0.95,-1.57,-0.02,0.46
302,1900-01-01 17:16:08.493,39.95,19.33,4.73,0.33,0.65,0.7,0.73,0.28,0.97,8.37,4.01,-1.43,0.07,0.14,0.95,-1.36,1.5,0.88
303,1900-01-01 17:16:08.583,40.39,18.81,5.03,0.32,0.65,0.7,0.05,2.31,0.77,8.65,3.54,-1.31,0.06,0.14,0.94,-0.33,2.44,1.44
304,1900-01-01 17:16:08.628,40.61,18.78,5.31,0.32,0.65,0.68,-0.81,2.28,-0.34,8.17,3.81,-1.1,0.06,0.14,0.95,0.26,2.62,0.64
305,1900-01-01 17:16:08.722,41.17,19.61,5.41,0.34,0.66,0.68,-1.29,-0.99,-1.15,9.11,3.57,-1.01,0.06,0.15,0.95,-2.31,-0.08,-0.85
306,1900-01-01 17:16:08.817,39.31,18.32,5.4,0.31,0.63,0.7,-1.19,-2.33,-1.85,7.81,3.95,-1.15,0.07,0.13,0.95,-0.81,0.74,-0.79
307,1900-01-01 17:16:08.863,39.45,19.4,5.27,0.34,0.64,0.7,-1.37,0.34,-1.44,8.67,3.93,-1.28,0.07,0.15,0.95,-1.93,1.35,0.08
308,1900-01-01 17:16:08.957,40.07,18.91,5.21,0.33,0.65,0.7,-1.27,1.8,-1.73,8.51,3.65,-1.28,0.06,0.14,0.95,-1.76,1.79,0.05
309,1900-01-01 17:16:09.004,39.57,18.21,5.11,0.31,0.64,0.71,-2.16,3.17,-3.19,7.78,3.7,-1.28,0.06,0.13,0.95,-1.41,2.81,-0.21
310,1900-01-01 17:16:09.097,40.0,18.0,4.79,0.31,0.64,0.7,-1.69,2.47,-2.63,8.47,3.42,-1.32,0.06,0.14,0.95,-1.02,2.35,-0.25
311,1900-01-01 17:16:09.160,39.71,17.21,4.55,0.29,0.63,0.7,-1.02,-0.1,-1.92,8.19,3.18,-1.37,0.05,0.14,0.95,-0.96,1.18,-0.33
312,1900-01-01 17:16:09.255,39.15,17.78,4.41,0.3,0.63,0.71,-0.21,-2.06,-0.16,8.51,3.31,-1.42,0.06,0.14,0.95,-1.09,0.18,0.17
313,1900-01-01 17:16:09.349,38.99,17.69,4.55,0.3,0.63,0.72,-0.24,-1.3,1.95,8.4,3.58,-1.41,0.06,0.14,0.95,-0.89,0.37,1.04
314,1900-01-01 17:16:09.395,39.35,18.03,5.0,0.31,0.64,0.71,0.18,0.35,1.53,8.21,3.54,-1.26,0.06,0.14,0.95,-1.22,1.3,0.95
315,1900-01-01 17:16:09.488,39.69,18.51,5.39,0.32,0.64,0.7,-0.39,0.92,1.17,8.79,3.58,-1.12,0.06,0.15,0.95,-0.36,1.62,0.98
316,1900-01-01 17:16:09.533,39.45,18.59,5.72,0.32,0.64,0.71,0.05,-0.08,0.44,8.76,3.86,-0.99,0.06,0.15,0.95,-0.5,1.58,0.63
317,1900-01-01 17:16:09.627,39.58,18.29,5.95,0.31,0.64,0.7,-0.79,0.26,-0.96,8.04,3.52,-0.9,0.06,0.13,0.95,-1.85,1.11,-0.13
318,1900-01-01 17:16:09.726,39.71,18.9,5.96,0.32,0.64,0.7,0.24,-1.5,-0.37,9.27,3.63,-0.93,0.06,0.16,0.95,-1.4,0.55,0.02
319,1900-01-01 17:16:09.768,39.31,18.13,6.06,0.31,0.64,0.71,0.35,-0.77,-0.97,7.96,3.64,-0.93,0.06,0.13,0.95,-1.21,1.46,0.04
320,1900-01-01 17:16:09.862,39.68,18.94,6.07,0.33,0.64,0.7,1.19,0.32,-1.24,8.74,3.55,-0.94,0.06,0.15,0.95,-1.01,2.5,0.33
321,1900-01-01 17:16:09.955,39.97,18.01,6.05,0.31,0.64,0.7,-0.18,1.69,-2.78,8.27,2.93,-0.9,0.05,0.14,0.95,-0.48,3.11,0.11
322,1900-01-01 17:16:10.002,40.32,18.57,5.78,0.32,0.64,0.69,-0.07,-0.29,-1.78,9.43,3.5,-0.89,0.06,0.16,0.94,-0.99,1.11,0.25
323,1900-01-01 17:16:10.097,40.4,18.26,5.67,0.31,0.65,0.69,-0.04,-2.18,-0.64,8.8,3.23,-0.86,0.05,0.15,0.95,-1.66,0.13,-0.24
324,1900-01-01 17:16:10.143,39.84,18.3,5.73,0.31,0.64,0.7,0.37,-1.57,-1.03,8.53,3.39,-0.9,0.06,0.14,0.95,-1.72,0.68,-0.08
325,1900-01-01 17:16:10.237,39.91,18.22,5.73,0.31,0.64,0.7,-0.42,0.27,-1.19,8.49,3.32,-0.92,0.06,0.14,0.95,-1.14,1.52,0.15
326,1900-01-01 17:16:10.332,40.34,18.96,5.71,0.32,0.65,0.69,-0.13,-0.95,-0.96,9.13,3.41,-0.91,0.06,0.15,0.95,-1.2,0.98,0.05
327,1900-01-01 17:16:10.380,40.24,18.32,5.73,0.31,0.65,0.7,-0.49,-1.25,-1.19,8.76,3.45,-0.91,0.06,0.15,0.95,-1.06,0.9,-0.14
328,1900-01-01 17:16:10.472,40.28,19.2,5.7,0.33,0.65,0.69,-0.45,-1.32,-0.52,8.86,3.71,-0.94,0.06,0.15,0.95,-1.45,0.49,-0.06
329,1900-01-01 17:16:10.519,40.64,18.0,5.78,0.31,0.65,0.69,0.34,-3.83,-1.33,8.45,3.25,-0.96,0.05,0.14,0.95,-0.08,0.66,-0.3
330,1900-01-01 17:16:10.613,39.96,19.75,5.74,0.34,0.65,0.69,0.11,-2.84,-1.37,9.53,3.75,-1.01,0.06,0.16,0.95,-1.62,0.38,-0.26
331,1900-01-01 17:16:10.706,39.68,18.76,5.69,0.32,0.64,0.7,-0.86,1.07,-0.81,8.37,3.64,-1.06,0.06,0.14,0.95,-1.56,1.69,0.35
332,1900-01-01 17:16:10.753,40.18,19.28,5.72,0.33,0.65,0.7,-0.98,1.56,-0.74,8.97,3.7,-1.01,0.06,0.15,0.95,-1.58,2.13,0.37
333,1900-01-01 17:16:10.846,39.87,18.82,5.77,0.32,0.64,0.69,-0.78,2.26,-0.95,8.48,3.54,-0.97,0.06,0.14,0.95,-1.43,2.31,0.56
334,1900-01-01 17:16:10.893,40.76,19.05,5.79,0.33,0.65,0.68,-1.44,0.22,-0.42,9.27,3.5,-0.89,0.06,0.16,0.95,-1.37,0.83,0.07
335,1900-01-01 17:16:10.987,39.58,18.45,5.88,0.32,0.64,0.71,-1.28,0.56,-2.24,8.78,3.33,-0.89,0.06,0.15,0.95,-1.34,2.18,-0.27
336,1900-01-01 17:16:11.083,39.42,19.12,5.7,0.33,0.64,0.7,-1.48,3.1,-1.22,9.39,3.54,-0.94,0.06,0.16,0.95,-1.73,2.31,0.37
337,1900-01-01 17:16:11.132,40.34,17.78,5.67,0.3,0.65,0.7,-1.58,2.07,-0.15,8.09,3.14,-0.89,0.05,0.14,0.95,-1.71,1.67,0.33
338,1900-01-01 17:16:11.221,40.53,18.17,5.81,0.31,0.65,0.69,0.02,-0.45,-1.44,8.98,3.09,-0.85,0.05,0.15,0.95,-1.15,1.56,-0.19
339,1900-01-01 17:16:11.276,39.28,18.17,5.75,0.31,0.63,0.71,-0.52,-0.15,-1.49,8.79,3.19,-0.88,0.05,0.15,0.95,-1.18,1.47,-0.06
340,1900-01-01 17:16:11.360,40.11,17.79,5.68,0.3,0.64,0.7,-0.56,-0.24,-0.23,8.47,3.06,-0.9,0.05,0.14,0.95,-1.23,0.92,0.3
341,1900-01-01 17:16:11.455,39.79,18.43,5.8,0.32,0.65,0.71,-0.22,-0.74,-0.63,9.17,3.16,-0.86,0.05,0.15,0.95,-1.34,1.24,0.15
342,1900-01-01 17:16:11.549,39.71,17.77,5.87,0.3,0.64,0.71,-0.67,0.46,-0.93,8.47,3.05,-0.85,0.05,0.14,0.95,-0.86,2.04,0.21
343,1900-01-01 17:16:11.595,40.7,18.08,5.88,0.31,0.65,0.68,-0.29,-0.69,-1.89,9.24,2.68,-0.83,0.04,0.15,0.95,-1.0,1.33,-0.48
344,1900-01-01 17:16:11.687,39.51,18.22,5.76,0.31,0.63,0.7,-0.04,-2.72,-2.18,8.99,3.13,-0.91,0.05,0.15,0.95,-1.05,0.41,-0.68
345,1900-01-01 17:16:11.735,39.35,18.4,5.58,0.32,0.64,0.71,-0.8,-0.35,-2.02,8.8,3.36,-1.02,0.06,0.15,0.95,-1.4,1.57,-0.21
346,1900-01-01 17:16:11.827,40.56,18.02,5.43,0.31,0.65,0.69,-0.53,-0.15,-1.66,9.51,2.65,-1.06,0.04,0.16,0.95,-0.98,1.62,-0.18
347,1900-01-01 17:16:11.923,39.35,18.28,5.34,0.32,0.64,0.71,-0.95,-0.01,-1.66,8.73,3.34,-1.1,0.06,0.15,0.95,-1.61,1.66,-0.17
348,1900-01-01 17:16:11.969,40.18,17.88,5.24,0.31,0.65,0.7,-0.92,1.24,-0.83,8.95,2.99,-1.13,0.05,0.15,0.95,-1.48,1.63,0.31
349,1900-01-01 17:16:12.064,40.37,17.56,5.28,0.3,0.65,0.71,-0.89,1.92,-2.59,8.7,2.62,-1.09,0.04,0.15,0.95,-1.69,2.98,-0.12
350,1900-01-01 17:16:12.114,40.04,16.91,5.04,0.29,0.63,0.7,-0.04,0.11,-1.98,8.26,2.73,-1.12,0.05,0.14,0.95,-0.8,1.91,-0.12
351,1900-01-01 17:16:12.203,40.44,17.96,4.9,0.31,0.65,0.69,-1.28,-1.08,0.52,9.79,2.54,-1.15,0.04,0.16,0.95,-1.69,-0.5,0.32
352,1900-01-01 17:16:12.297,39.41,17.28,5.14,0.3,0.64,0.72,-0.18,-1.53,0.3,7.83,3.31,-1.11,0.06,0.13,0.95,-1.53,-0.32,0.08
353,1900-01-01 17:16:12.343,40.58,17.48,5.34,0.3,0.65,0.7,-0.15,-0.96,0.08,9.03,2.74,-1.1,0.05,0.15,0.95,-1.43,0.66,0.29
354,1900-01-01 17:16:12.438,39.91,17.71,5.51,0.31,0.64,0.71,0.01,-1.08,-0.92,9.15,3.23,-1.07,0.05,0.15,0.95,-0.3,1.46,-0.01
355,1900-01-01 17:16:12.530,39.96,18.02,5.53,0.31,0.64,0.7,-0.46,-0.36,-0.28,8.78,3.08,-1.08,0.05,0.15,0.95,-1.88,0.79,0.26
356,1900-01-01 17:16:12.577,39.93,17.86,5.65,0.31,0.64,0.7,-0.43,-0.42,-0.57,9.01,2.97,-1.05,0.05,0.15,0.95,-0.8,1.29,0.07
357,1900-01-01 17:16:12.679,39.8,18.34,5.72,0.31,0.64,0.7,-1.02,-0.5,-0.08,8.54,3.39,-1.04,0.06,0.14,0.95,-1.82,0.38,0.12
358,1900-01-01 17:16:12.717,39.77,18.24,5.87,0.31,0.64,0.7,-0.96,-0.85,-0.8,8.92,3.22,-1.03,0.05,0.15,0.95,-1.55,0.39,-0.26
359,1900-01-01 17:16:12.816,39.68,18.42,5.9,0.32,0.64,0.71,-0.93,-1.23,-0.99,8.63,3.5,-1.08,0.06,0.14,0.95,-1.64,0.63,-0.34
360,1900-01-01 17:16:12.905,39.66,18.26,5.91,0.31,0.64,0.71,-0.7,-0.11,-1.37,9.09,3.43,-1.14,0.06,0.15,0.95,-1.28,1.52,-0.03
361,1900-01-01 17:16:12.950,39.07,18.19,5.86,0.31,0.63,0.71,-0.95,1.67,-1.29,8.09,3.62,-1.16,0.06,0.14,0.95,-1.64,2.14,0.32
362,1900-01-01 17:16:13.048,39.98,18.2,5.82,0.31,0.64,0.69,-0.41,0.93,-0.71,9.55,2.91,-1.12,0.05,0.16,0.95,-1.19,1.65,0.4
363,1900-01-01 17:16:13.092,39.8,18.24,5.87,0.31,0.64,0.7,0.39,-1.89,0.0,8.7,3.51,-1.06,0.06,0.15,0.95,-0.7,0.68,0.17
364,1900-01-01 17:16:13.189,39.3,18.37,6.03,0.32,0.64,0.71,0.33,-1.22,-0.85,9.19,3.43,-1.05,0.06,0.15,0.95,-0.63,1.58,0.11
365,1900-01-01 17:16:13.280,39.56,18.11,6.06,0.31,0.64,0.7,-0.75,0.95,-0.45,8.34,3.34,-1.04,0.06,0.14,0.95,-1.21,1.9,0.46
366,1900-01-01 17:16:13.326,40.19,18.69,6.15,0.32,0.65,0.69,-0.08,-0.39,-0.95,9.21,3.37,-0.98,0.06,0.15,0.95,-1.11,1.37,0.09
367,1900-01-01 17:16:13.419,39.47,18.1,6.17,0.31,0.64,0.71,-0.32,-0.39,-1.22,8.41,3.33,-0.97,0.06,0.14,0.95,-1.35,1.31,-0.17
368,1900-01-01 17:16:13.474,39.75,18.72,6.14,0.32,0.64,0.7,-0.72,0.56,-0.48,9.16,3.42,-1.01,0.06,0.15,0.95,-1.61,1.29,0.32
369,1900-01-01 17:16:13.557,39.82,18.06,6.22,0.31,0.64,0.7,-0.47,0.01,-0.68,8.35,3.2,-0.97,0.05,0.14,0.95,-1.37,1.29,0.2
370,1900-01-01 17:16:13.650,39.9,18.34,6.28,0.32,0.64,0.7,0.08,-0.16,-1.25,8.87,3.28,-0.94,0.06,0.15,0.95,-1.24,1.69,0.03
371,1900-01-01 17:16:13.705,40.13,18.14,6.25,0.31,0.64,0.7,-0.26,0.58,-1.64,9.11,2.8,-0.95,0.05,0.15,0.95,-1.18,1.95,-0.09
372,1900-01-01 17:16:13.791,39.9,18.27,6.16,0.31,0.64,0.7,-0.44,0.27,-1.58,9.12,3.13,-0.97,0.05,0.15,0.95,-1.32,1.65,-0.09
373,1900-01-01 17:16:13.884,39.84,17.85,6.08,0.31,0.64,0.7,-0.48,-0.14,-1.44,8.79,2.91,-0.99,0.05,0.15,0.95,-1.27,1.39,-0.2
374,1900-01-01 17:16:13.932,40.12,17.97,6.02,0.31,0.64,0.7,-0.5,-0.26,-1.42,8.66,3.11,-1.03,0.05,0.14,0.95,-1.47,1.26,-0.19
375,1900-01-01 17:16:14.025,39.94,17.91,5.96,0.31,0.64,0.7,-0.47,-0.63,-1.42,8.92,2.91,-1.07,0.05,0.15,0.95,-1.1,1.24,-0.21
376,1900-01-01 17:16:14.118,40.02,18.08,5.9,0.31,0.64,0.7,-0.47,-0.83,-0.69,9.05,3.14,-1.11,0.05,0.15,0.95,-1.39,0.67,0.02
377,1900-01-01 17:16:14.163,40.02,17.92,5.95,0.31,0.64,0.7,-0.79,-0.3,-0.15,9.09,2.87,-1.11,0.05,0.15,0.95,-1.34,0.85,0.27
378,1900-01-01 17:16:14.258,39.92,18.03,6.09,0.31,0.64,0.7,-0.53,-0.42,-0.27,8.5,3.42,-1.08,0.06,0.14,0.95,-1.15,1.02,0.18
379,1900-01-01 17:16:14.353,40.22,18.0,6.21,0.31,0.65,0.7,-0.34,-0.18,-0.71,9.03,2.55,-1.06,0.04,0.15,0.96,-0.35,2.02,0.63
380,1900-01-01 17:16:14.400,39.87,18.44,6.26,0.32,0.64,0.7,-0.23,-0.01,-0.98,9.1,3.28,-0.98,0.06,0.15,0.95,-1.18,1.67,0.15
381,1900-01-01 17:16:14.492,40.45,17.83,6.27,0.31,0.65,0.7,-0.26,-0.25,-1.22,9.12,2.82,-0.96,0.05,0.15,0.95,-1.12,1.46,0.15
382,1900-01-01 17:16:14.540,39.83,18.43,6.24,0.32,0.64,0.7,-0.1,-0.79,-0.98,9.27,3.13,-0.95,0.05,0.16,0.95,-1.03,1.07,0.01
383,1900-01-01 17:16:14.633,40.06,18.41,6.25,0.32,0.64,0.7,-0.54,-0.99,0.31,9.4,3.23,-0.95,0.05,0.16,0.95,-1.44,0.29,0.4
384,1900-01-01 17:16:14.714,40.17,18.22,6.46,0.32,0.65,0.7,-0.67,-0.38,-1.04,8.99,3.03,-0.9,0.05,0.15,0.95,-1.5,1.13,-0.1
385,1900-01-01 17:16:14.807,40.05,18.17,6.46,0.31,0.64,0.7,0.06,-0.37,-2.32,8.74,3.16,-0.93,0.05,0.15,0.95,-0.77,2.21,-0.47
386,1900-01-01 17:16:14.852,39.7,18.53,6.26,0.31,0.63,0.69,-0.14,-1.26,-0.62,9.92,3.19,-1.01,0.05,0.17,0.95,-0.61,0.42,0.49
387,1900-01-01 17:16:14.945,39.82,18.81,6.33,0.33,0.65,0.71,-0.44,-0.73,0.35,9.31,3.52,-0.94,0.06,0.16,0.95,-2.15,0.12,0.38
388,1900-01-01 17:16:14.994,40.24,17.68,6.54,0.31,0.65,0.7,0.01,0.42,-1.72,8.41,2.99,-0.89,0.05,0.14,0.95,-1.05,2.44,-0.11
389,1900-01-01 17:16:15.094,40.43,18.16,6.44,0.31,0.65,0.69,-0.24,0.54,-2.43,9.43,2.87,-0.92,0.05,0.16,0.95,-0.46,3.26,-0.27
390,1900-01-01 17:16:15.186,40.06,19.04,6.23,0.32,0.64,0.69,-0.7,-0.31,-0.68,9.8,3.1,-0.97,0.05,0.16,0.95,-2.0,0.34,0.12
391,1900-01-01 17:16:15.232,40.07,17.6,6.28,0.3,0.65,0.71,-0.62,-0.08,-1.2,8.57,2.75,-0.96,0.05,0.14,0.95,-1.8,1.05,-0.15
392,1900-01-01 17:16:15.323,40.17,17.82,6.26,0.31,0.65,0.7,-0.5,0.7,-1.82,8.96,2.66,-0.99,0.04,0.15,0.95,-0.79,2.79,-0.03
393,1900-01-01 17:16:15.371,40.36,18.59,6.14,0.32,0.64,0.69,-0.56,0.21,-0.95,9.68,3.13,-1.0,0.05,0.16,0.95,-1.15,1.47,0.05
394,1900-01-01 17:16:15.465,40.56,17.6,6.16,0.3,0.65,0.7,-0.58,-0.52,-1.11,8.62,2.55,-1.0,0.04,0.14,0.95,-1.57,0.7,-0.25
395,1900-01-01 17:16:15.557,40.36,17.82,6.15,0.31,0.65,0.7,-0.17,-1.38,-1.28,9.13,2.95,-1.05,0.05,0.15,0.95,-0.93,1.09,-0.18
396,1900-01-01 17:16:15.609,40.04,18.27,6.11,0.31,0.64,0.7,-0.53,-0.6,-0.92,9.35,3.08,-1.08,0.05,0.16,0.95,-1.2,1.17,0.0
397,1900-01-01 17:16:15.697,40.65,17.74,6.13,0.3,0.65,0.69,-0.79,-0.29,-0.62,9.14,2.83,-1.09,0.05,0.15,0.95,-1.6,0.66,0.1
398,1900-01-01 17:16:15.749,40.34,18.19,6.19,0.31,0.65,0.69,-0.5,-0.7,-0.92,9.18,2.92,-1.08,0.05,0.15,0.95,-1.15,1.01,-0.02
399,1900-01-01 17:16:15.840,40.33,17.91,6.21,0.31,0.65,0.7,-0.49,-0.94,-0.76,9.31,2.93,-1.1,0.05,0.16,0.95,-1.11,0.92,0.02
400,1900-01-01 17:16:15.933,40.05,18.45,6.25,0.32,0.65,0.7,-0.68,-0.36,-0.25,9.36,3.2,-1.1,0.05,0.16,0.95,-1.55,0.82,0.21
401,1900-01-01 17:16:15.981,40.28,17.87,6.38,0.31,0.65,0.7,-0.69,-0.37,-0.58,8.79,3.0,-1.08,0.05,0.15,0.95,-1.46,0.86,0.08
402,1900-01-01 17:16:16.074,40.24,18.57,6.45,0.32,0.65,0.69,-0.38,-0.65,-0.92,9.44,3.14,-1.07,0.05,0.16,0.95,-1.13,1.22,-0.02
403,1900-01-01 17:16:16.168,39.95,18.14,6.46,0.31,0.64,0.7,-0.54,-0.4,-0.77,8.85,3.33,-1.08,0.06,0.15,0.95,-1.22,1.15,0.03
404,1900-01-01 17:16:16.215,40.21,18.39,6.5,0.32,0.65,0.7,-0.4,-0.12,-0.98,9.44,2.93,-1.09,0.05,0.16,0.95,-1.47,1.24,0.08
405,1900-01-01 17:16:16.308,39.81,18.48,6.51,0.32,0.64,0.7,-0.27,-0.53,-1.09,9.13,3.22,-1.08,0.05,0.15,0.95,-0.93,1.44,-0.11
406,1900-01-01 17:16:16.402,39.94,18.12,6.51,0.31,0.64,0.7,-0.54,-0.27,-0.88,8.74,3.2,-1.11,0.05,0.15,0.95,-1.21,1.18,0.07
407,1900-01-01 17:16:16.449,40.02,18.58,6.53,0.32,0.64,0.7,-0.5,-0.12,-0.59,9.1,3.11,-1.11,0.05,0.15,0.95,-1.41,1.2,0.15
408,1900-01-01 17:16:16.542,40.26,18.36,6.6,0.31,0.65,0.69,-0.56,-0.27,-0.68,8.89,3.3,-1.09,0.06,0.15,0.95,-1.42,1.06,0.07
409,1900-01-01 17:16:16.590,40.23,18.53,6.66,0.32,0.65,0.7,-0.45,-0.76,-0.92,9.37,3.31,-1.09,0.06,0.16,0.95,-1.29,1.04,-0.08
410,1900-01-01 17:16:16.684,40.16,18.41,6.67,0.32,0.65,0.7,-0.5,-0.38,-0.85,9.16,3.18,-1.11,0.05,0.15,0.95,-1.46,1.09,0.03
411,1900-01-01 17:16:16.777,40.2,18.62,6.7,0.32,0.65,0.7,-0.41,-0.15,-0.76,9.52,3.21,-1.12,0.05,0.16,0.95,-1.17,1.34,0.11
412,1900-01-01 17:16:16.829,40.09,18.33,6.75,0.31,0.64,0.7,-0.53,-0.36,-0.79,9.01,3.09,-1.11,0.05,0.15,0.95,-1.16,1.26,0.01
413,1900-01-01 17:16:16.918,39.92,18.78,6.79,0.32,0.64,0.7,-0.39,-0.61,-0.95,9.27,3.24,-1.11,0.05,0.16,0.95,-1.14,1.28,-0.05
414,1900-01-01 17:16:16.966,39.82,18.66,6.8,0.32,0.64,0.7,-0.69,-0.27,-1.0,8.9,3.48,-1.13,0.06,0.15,0.95,-1.31,1.24,-0.02
415,1900-01-01 17:16:17.061,40.14,18.29,6.81,0.31,0.65,0.7,-0.59,-0.16,-1.16,9.08,3.23,-1.14,0.05,0.15,0.95,-1.31,1.15,-0.05
416,1900-01-01 17:16:17.156,40.1,18.61,6.79,0.32,0.65,0.7,-0.79,-0.06,-1.42,9.25,3.31,-1.16,0.06,0.16,0.95,-1.37,1.21,-0.03
417,1900-01-01 17:16:17.203,40.2,18.38,6.73,0.31,0.64,0.69,-0.71,-0.13,-0.96,9.42,3.14,-1.17,0.05,0.16,0.95,-1.31,1.28,0.1
418,1900-01-01 17:16:17.295,40.06,18.59,6.74,0.32,0.64,0.7,-0.49,-0.5,-0.95,9.31,3.17,-1.16,0.05,0.16,0.94,-1.29,1.3,-0.01
419,1900-01-01 17:16:17.343,39.88,18.69,6.76,0.32,0.64,0.7,-0.28,-0.74,-0.99,9.35,3.4,-1.17,0.06,0.16,0.95,-1.26,1.09,0.0
420,1900-01-01 17:16:17.440,40.17,18.3,6.76,0.31,0.64,0.7,-0.59,-0.11,-0.91,9.31,2.9,-1.18,0.05,0.16,0.94,-1.34,1.31,0.06
421,1900-01-01 17:16:17.531,40.06,18.75,6.79,0.32,0.65,0.7,-0.33,-0.4,-0.85,9.4,3.51,-1.18,0.06,0.16,0.95,-1.25,1.23,0.05
422,1900-01-01 17:16:17.579,39.89,18.5,6.82,0.32,0.64,0.7,-0.27,-0.44,-0.99,9.02,3.12,-1.18,0.05,0.15,0.95,-1.34,1.23,-0.05
423,1900-01-01 17:16:17.673,39.73,18.49,6.82,0.32,0.64,0.7,-0.6,-0.05,-0.98,9.19,3.44,-1.2,0.06,0.15,0.95,-1.31,1.4,0.07
424,1900-01-01 17:16:17.766,40.02,18.68,6.83,0.32,0.64,0.69,-0.66,0.08,-0.31,9.39,3.28,-1.2,0.06,0.16,0.95,-1.54,0.87,0.37
425,1900-01-01 17:16:17.812,40.17,18.45,6.94,0.32,0.65,0.7,-0.64,-0.13,-0.83,8.91,3.39,-1.15,0.06,0.15,0.95,-1.71,1.06,-0.01
426,1900-01-01 17:16:17.906,40.19,18.16,6.98,0.31,0.65,0.7,-0.26,0.02,-1.99,9.07,2.99,-1.16,0.05,0.15,0.95,-1.15,2.08,-0.23
427,1900-01-01 17:16:17.955,39.89,19.03,6.83,0.33,0.64,0.69,-0.5,-0.12,-0.85,10.0,3.54,-1.2,0.06,0.17,0.95,-1.47,1.05,0.13
428,1900-01-01 17:16:18.051,39.95,18.02,6.86,0.31,0.65,0.71,-0.73,0.36,-0.82,8.67,3.08,-1.19,0.05,0.14,0.95,-1.76,1.27,0.01
429,1900-01-01 17:16:18.142,40.12,18.17,6.9,0.31,0.64,0.7,-0.39,-0.27,-1.13,9.14,3.1,-1.2,0.05,0.15,0.95,-0.95,1.4,0.02
430,1900-01-01 17:16:18.192,40.08,18.55,6.88,0.32,0.65,0.7,-0.45,-0.61,-0.83,9.05,3.28,-1.2,0.06,0.15,0.95,-1.58,1.06,-0.03
431,1900-01-01 17:16:18.282,39.96,18.05,6.91,0.31,0.64,0.7,-0.33,-0.34,-1.35,8.96,3.1,-1.22,0.05,0.15,0.95,-1.29,1.35,-0.11
432,1900-01-01 17:16:18.328,40.09,18.36,6.87,0.32,0.65,0.7,-0.75,-0.03,-1.11,9.0,3.11,-1.24,0.05,0.15,0.95,-1.13,1.42,-0.08
433,1900-01-01 17:16:18.421,40.1,18.32,6.86,0.31,0.64,0.7,-0.42,-0.4,-1.27,8.97,3.05,-1.26,0.05,0.15,0.95,-1.15,1.46,-0.13
434,1900-01-01 17:16:18.516,40.09,18.44,6.82,0.32,0.64,0.7,-0.45,-0.53,-0.96,9.05,3.18,-1.29,0.05,0.15,0.95,-1.27,1.08,-0.05
435,1900-01-01 17:16:18.563,40.12,18.14,6.83,0.31,0.64,0.7,-0.44,-0.73,-0.85,9.07,3.09,-1.31,0.05,0.15,0.95,-1.13,0.95,-0.03
436,1900-01-01 17:16:18.655,39.98,18.63,6.86,0.32,0.64,0.7,-0.44,-0.76,-0.63,9.19,3.33,-1.32,0.06,0.15,0.95,-1.22,0.98,0.04
437,1900-01-01 17:16:18.748,40.0,18.43,6.93,0.32,0.64,0.7,-0.5,-0.63,-0.56,9.16,3.2,-1.33,0.05,0.15,0.95,-1.21,1.0,0.13
438,1900-01-01 17:16:18.796,40.01,18.49,7.0,0.32,0.64,0.7,-0.63,-0.38,-0.84,9.2,3.21,-1.31,0.05,0.15,0.95,-1.23,1.19,0.05
439,1900-01-01 17:16:18.889,39.99,18.46,7.03,0.32,0.64,0.7,-0.53,-0.57,-0.76,9.07,3.27,-1.32,0.05,0.15,0.95,-1.34,0.99,0.02
440,1900-01-01 17:16:18.983,39.88,18.75,7.07,0.32,0.64,0.7,-0.41,-0.61,-0.85,9.18,3.35,-1.32,0.06,0.15,0.95,-1.19,1.15,0.03
441,1900-01-01 17:16:19.030,39.86,18.59,7.1,0.32,0.64,0.7,-0.5,-0.1,-0.9,9.01,3.35,-1.33,0.06,0.15,0.95,-1.29,1.27,0.1
442,1900-01-01 17:16:19.124,39.98,18.7,7.12,0.32,0.64,0.7,-0.48,-0.24,-0.89,9.25,3.41,-1.32,0.06,0.16,0.95,-1.29,1.29,0.04
443,1900-01-01 17:16:19.174,39.82,18.64,7.15,0.32,0.64,0.7,-0.42,-0.45,-1.01,9.1,3.37,-1.32,0.06,0.15,0.95,-1.24,1.24,-0.03
444,1900-01-01 17:16:19.266,39.99,18.68,7.15,0.32,0.64,0.7,-0.42,-0.32,-1.08,9.28,3.35,-1.34,0.06,0.16,0.95,-1.24,1.33,-0.01
445,1900-01-01 17:16:19.314,39.88,18.57,7.15,0.32,0.64,0.7,-0.47,-0.38,-1.02,9.17,3.3,-1.34,0.06,0.15,0.95,-1.22,1.25,-0.03
446,1900-01-01 17:16:19.406,39.99,18.64,7.15,0.32,0.64,0.7,-0.54,-0.36,-0.99,9.27,3.33,-1.36,0.06,0.16,0.95,-1.29,1.19,-0.02
447,1900-01-01 17:16:19.502,40.05,18.56,7.16,0.32,0.64,0.7,-0.54,-0.38,-1.08,9.17,3.23,-1.37,0.05,0.15,0.95,-1.27,1.28,-0.08
448,1900-01-01 17:16:19.549,39.95,18.8,7.15,0.32,0.64,0.7,-0.53,-0.45,-1.13,9.28,3.3,-1.39,0.06,0.16,0.95,-1.34,1.27,-0.1
449,1900-01-01 17:16:19.645,39.91,18.65,7.14,0.32,0.64,0.7,-0.5,-0.21,-1.13,9.22,3.25,-1.41,0.05,0.15,0.95,-1.31,1.37,-0.02
450,1900-01-01 17:16:19.737,39.87,18.64,7.13,0.32,0.64,0.7,-0.48,-0.28,-0.86,9.18,3.33,-1.43,0.06,0.15,0.95,-1.43,1.18,0.05
451,1900-01-01 17:16:19.784,39.93,18.6,7.15,0.32,0.64,0.7,-0.47,-0.22,-0.73,9.2,3.33,-1.43,0.06,0.15,0.95,-1.49,1.1,0.11
452,1900-01-01 17:16:19.878,39.89,18.64,7.2,0.32,0.64,0.7,-0.58,0.02,-0.52,9.27,3.24,-1.42,0.05,0.16,0.95,-1.5,1.1,0.21
453,1900-01-01 17:16:19.925,40.24,19.04,7.28,0.33,0.65,0.69,-0.5,-0.12,-0.63,9.47,3.49,-1.39,0.06,0.16,0.95,-1.61,0.98,0.1
454,1900-01-01 17:16:20.019,40.24,18.01,7.35,0.31,0.65,0.7,-0.37,0.2,-2.69,8.28,2.97,-1.39,0.05,0.14,0.95,-1.55,2.23,-0.6
455,1900-01-01 17:16:20.114,40.12,18.85,7.09,0.32,0.65,0.7,0.08,-0.11,-2.86,9.59,3.12,-1.49,0.05,0.16,0.95,-1.4,2.47,-0.52
456,1900-01-01 17:16:20.161,39.64,19.07,6.82,0.32,0.63,0.69,-1.27,-0.47,0.31,9.69,3.58,-1.57,0.06,0.16,0.95,-1.63,-0.13,0.35
457,1900-01-01 17:16:20.257,40.33,18.02,7.02,0.31,0.65,0.7,-1.56,-0.03,0.16,8.31,3.15,-1.53,0.05,0.14,0.95,-2.56,-0.15,0.19
458,1900-01-01 17:16:20.303,40.23,18.18,7.21,0.31,0.65,0.7,-0.31,-0.69,-1.31,8.43,3.4,-1.51,0.06,0.14,0.95,-0.73,1.81,-0.21
459,1900-01-01 17:16:20.396,39.98,18.63,7.16,0.32,0.64,0.7,0.26,-0.81,-2.25,9.34,3.42,-1.55,0.06,0.16,0.95,-0.24,2.46,-0.44
460,1900-01-01 17:16:20.491,39.6,19.24,6.98,0.33,0.64,0.7,-1.27,-0.11,-0.24,9.3,3.58,-1.62,0.06,0.16,0.95,-2.15,0.32,0.21
461,1900-01-01 17:16:20.538,40.06,18.15,7.1,0.31,0.65,0.7,-1.18,0.06,-0.18,8.58,3.27,-1.6,0.05,0.14,0.95,-1.86,0.71,0.21
462,1900-01-01 17:16:20.631,40.2,18.04,7.24,0.31,0.64,0.7,-0.35,-0.44,-1.41,8.71,3.2,-1.58,0.05,0.15,0.95,-0.38,2.02,-0.14
463,1900-01-01 17:16:20.725,39.76,19.26,7.18,0.33,0.64,0.69,-0.12,-0.86,-0.88,9.89,3.61,-1.6,0.06,0.17,0.95,-0.67,1.35,0.01
464,1900-01-01 17:16:20.772,39.88,18.43,7.2,0.32,0.64,0.7,-0.79,-0.05,-0.46,8.83,3.34,-1.61,0.06,0.15,0.95,-1.82,0.73,0.2
465,1900-01-01 17:16:20.866,39.87,18.47,7.29,0.32,0.64,0.7,-0.21,-0.24,-0.66,8.78,3.32,-1.59,0.06,0.15,0.95,-1.11,1.33,0.16
466,1900-01-01 17:16:20.914,39.87,18.75,7.35,0.32,0.64,0.7,-0.33,-0.76,-0.7,9.23,3.51,-1.57,0.06,0.15,0.95,-0.91,1.35,0.05
467,1900-01-01 17:16:21.007,39.87,18.79,7.4,0.32,0.64,0.7,-0.47,-0.32,-0.86,9.08,3.55,-1.58,0.06,0.15,0.95,-1.55,1.08,0.04
468,1900-01-01 17:16:21.102,39.95,18.51,7.43,0.32,0.64,0.7,-0.54,-0.32,-0.98,8.88,3.36,-1.58,0.06,0.15,0.95,-1.23,1.31,-0.02
469,1900-01-01 17:16:21.149,39.87,18.74,7.44,0.32,0.64,0.7,-0.42,-0.37,-1.04,9.24,3.42,-1.59,0.06,0.15,0.95,-1.18,1.4,0.0
470,1900-01-01 17:16:21.243,39.93,18.78,7.44,0.32,0.64,0.7,-0.5,-0.36,-0.96,9.14,3.26,-1.6,0.05,0.15,0.95,-1.37,1.2,-0.03
471,1900-01-01 17:16:21.290,39.82,18.73,7.45,0.32,0.64,0.7,-0.57,-0.35,-1.18,9.0,3.4,-1.61,0.06,0.15,0.95,-1.21,1.26,-0.1
472,1900-01-01 17:16:21.384,39.85,18.68,7.43,0.32,0.64,0.7,-0.5,-0.21,-1.12,9.25,3.4,-1.64,0.06,0.15,0.95,-1.26,1.37,-0.05
473,1900-01-01 17:16:21.478,39.9,18.82,7.42,0.32,0.64,0.7,-0.56,-0.3,-0.99,9.09,3.4,-1.65,0.06,0.15,0.95,-1.37,1.23,-0.02
474,1900-01-01 17:16:21.525,39.87,18.71,7.43,0.32,0.64,0.7,-0.61,-0.19,-1.02,9.15,3.47,-1.66,0.06,0.15,0.95,-1.37,1.23,-0.01
475,1900-01-01 17:16:21.619,39.88,18.68,7.43,0.32,0.64,0.7,-0.52,-0.28,-1.05,9.14,3.37,-1.67,0.06,0.15,0.95,-1.44,1.19,-0.02
476,1900-01-01 17:16:21.676,39.93,18.65,7.43,0.32,0.64,0.7,-0.49,-0.24,-1.02,9.18,3.47,-1.68,0.06,0.15,0.95,-1.44,1.24,-0.02
477,1900-01-01 17:16:21.760,39.69,18.52,7.43,0.32,0.64,0.7,-0.5,0.28,-0.92,8.96,3.41,-1.69,0.06,0.15,0.95,-1.48,1.31,0.05
478,1900-01-01 17:16:21.863,39.81,18.54,7.45,0.32,0.64,0.7,-0.47,0.25,-1.12,8.95,3.32,-1.7,0.06,0.15,0.95,-1.4,1.57,0.06
479,1900-01-01 17:16:21.935,39.73,18.51,7.44,0.32,0.64,0.7,-0.61,0.07,-1.01,8.95,3.26,-1.7,0.05,0.15,0.95,-1.4,1.44,0.06
480,1900-01-01 17:16:21.982,39.85,18.49,7.45,0.32,0.64,0.7,-0.43,-0.1,-1.02,9.03,3.26,-1.69,0.05,0.15,0.95,-1.36,1.32,0.02
481,1900-01-01 17:16:22.076,39.93,18.46,7.45,0.32,0.64,0.7,-0.36,-0.33,-0.92,8.94,3.27,-1.7,0.05,0.15,0.95,-1.34,1.22,0.01
482,1900-01-01 17:16:22.123,39.84,18.39,7.47,0.32,0.64,0.7,-0.27,-0.35,-1.01,8.91,3.36,-1.71,0.06,0.15,0.95,-1.24,1.28,0.01
483,1900-01-01 17:16:22.217,39.87,18.45,7.47,0.32,0.64,0.7,-0.47,-0.3,-0.88,8.84,3.25,-1.72,0.05,0.15,0.95,-1.23,1.26,0.05
484,1900-01-01 17:16:22.311,39.87,18.45,7.5,0.32,0.64,0.7,-0.4,-0.47,-1.01,8.96,3.32,-1.72,0.06,0.15,0.95,-1.21,1.19,-0.06
485,1900-01-01 17:16:22.358,39.85,18.54,7.51,0.32,0.64,0.7,-0.46,-0.47,-0.84,8.9,3.34,-1.73,0.06,0.15,0.95,-1.18,1.15,0.02
486,1900-01-01 17:16:22.453,39.96,18.57,7.54,0.32,0.64,0.7,-0.41,-0.59,-0.99,9.07,3.3,-1.74,0.06,0.15,0.95,-1.22,1.12,-0.06
487,1900-01-01 17:16:22.501,39.81,18.56,7.54,0.32,0.64,0.7,-0.53,-0.38,-0.97,8.92,3.34,-1.76,0.06,0.15,0.95,-1.22,1.19,-0.02
488,1900-01-01 17:16:22.596,39.81,18.59,7.55,0.32,0.64,0.7,-0.55,-0.36,-0.98,9.11,3.4,-1.77,0.06,0.15,0.95,-1.29,1.21,-0.03
489,1900-01-01 17:16:22.689,39.77,18.64,7.56,0.32,0.64,0.7,-0.53,-0.5,-0.95,9.09,3.4,-1.78,0.06,0.15,0.95,-1.3,1.08,-0.04
490,1900-01-01 17:16:22.735,39.83,18.65,7.58,0.32,0.64,0.7,-0.73,-0.4,-0.91,9.04,3.35,-1.8,0.06,0.15,0.95,-1.27,1.12,-0.02
491,1900-01-01 17:16:22.829,39.78,18.61,7.6,0.32,0.64,0.7,-0.62,-0.29,-0.97,9.04,3.36,-1.81,0.06,0.15,0.95,-1.28,1.22,0.0
492,1900-01-01 17:16:22.923,39.76,18.66,7.61,0.32,0.64,0.7,-0.5,-0.43,-0.93,9.05,3.48,-1.82,0.06,0.15,0.95,-1.27,1.23,-0.01
493,1900-01-01 17:16:22.970,39.65,18.64,7.63,0.32,0.64,0.7,-0.47,-0.33,-1.05,9.07,3.38,-1.83,0.06,0.15,0.95,-1.19,1.33,-0.05
494,1900-01-01 17:16:23.067,39.72,18.63,7.62,0.32,0.64,0.7,-0.53,-0.3,-1.1,9.05,3.36,-1.84,0.06,0.15,0.95,-1.25,1.31,-0.05
495,1900-01-01 17:16:23.112,39.79,18.66,7.62,0.32,0.64,0.7,-0.44,-0.39,-1.02,9.11,3.36,-1.86,0.06,0.15,0.95,-1.22,1.27,-0.02
496,1900-01-01 17:16:23.206,39.83,18.63,7.62,0.32,0.64,0.7,-0.45,-0.44,-1.11,9.13,3.3,-1.87,0.06,0.15,0.95,-1.21,1.27,-0.07
497,1900-01-01 17:16:23.303,39.78,18.73,7.61,0.32,0.64,0.7,-0.5,-0.36,-1.08,9.08,3.37,-1.89,0.06,0.15,0.95,-1.27,1.27,-0.01
498,1900-01-01 17:16:23.349,39.9,18.63,7.6,0.32,0.64,0.7,-0.46,-0.38,-1.01,9.12,3.46,-1.9,0.06,0.15,0.95,-1.27,1.24,-0.02
499,1900-01-01 17:16:23.442,39.88,18.59,7.61,0.32,0.64,0.7,-0.52,-0.36,-1.05,9.12,3.34,-1.91,0.06,0.15,0.95,-1.29,1.17,-0.04
500,1900-01-01 17:16:23.540,39.81,18.77,7.61,0.32,0.64,0.7,-0.57,-0.42,-0.92,9.07,3.36,-1.92,0.06,0.15,0.95,-1.41,1.08,-0.02
501,1900-01-01 17:16:23.585,39.91,18.61,7.63,0.32,0.64,0.7,-0.49,-0.73,-0.92,9.09,3.49,-1.94,0.06,0.15,0.95,-1.41,1.02,-0.01
502,1900-01-01 17:16:23.680,39.61,18.71,7.64,0.32,0.64,0.7,-0.55,-0.27,-1.0,9.04,3.44,-1.94,0.06,0.15,0.95,-1.44,1.26,0.02
503,1900-01-01 17:16:23.726,39.66,18.67,7.65,0.32,0.64,0.7,-0.71,0.27,-0.79,8.91,3.47,-1.95,0.06,0.15,0.95,-1.43,1.41,0.13
504,1900-01-01 17:16:23.820,39.94,18.59,7.69,0.32,0.64,0.7,-0.31,0.15,-1.08,8.98,3.47,-1.94,0.06,0.15,0.95,-1.48,1.42,0.05
505,1900-01-01 17:16:23.868,39.86,18.44,7.68,0.32,0.64,0.7,-0.43,-0.07,-0.99,8.97,3.33,-1.94,0.06,0.15,0.95,-1.41,1.24,0.02
506,1900-01-01 17:16:23.961,39.66,18.52,7.69,0.32,0.64,0.7,-0.45,0.02,-1.0,9.0,3.44,-1.94,0.06,0.15,0.95,-1.4,1.35,0.08
507,1900-01-01 17:16:24.056,39.88,18.52,7.7,0.32,0.64,0.7,-0.35,-0.21,-0.82,8.93,3.23,-1.94,0.05,0.15,0.95,-1.34,1.28,0.1
508,1900-01-01 17:16:24.103,39.9,18.49,7.73,0.32,0.64,0.7,-0.3,-0.21,-0.98,8.98,3.3,-1.93,0.06,0.15,0.95,-1.27,1.34,0.05
509,1900-01-01 17:16:24.196,39.96,18.57,7.74,0.32,0.64,0.7,-0.38,-0.38,-0.97,9.0,3.33,-1.94,0.06,0.15,0.95,-1.29,1.27,0.0
510,1900-01-01 17:16:24.290,39.8,18.57,7.75,0.32,0.64,0.7,-0.37,-0.41,-1.04,8.99,3.43,-1.94,0.06,0.15,0.95,-1.24,1.25,-0.03
511,1900-01-01 17:16:24.336,39.88,18.47,7.75,0.32,0.64,0.7,-0.4,-0.47,-0.89,9.0,3.36,-1.96,0.06,0.15,0.95,-1.2,1.21,-0.01
512,1900-01-01 17:16:24.430,39.92,18.52,7.77,0.32,0.64,0.7,-0.4,-0.6,-0.97,9.0,3.41,-1.97,0.06,0.15,0.95,-1.18,1.12,-0.05
513,1900-01-01 17:16:24.476,39.82,18.6,7.79,0.32,0.64,0.7,-0.47,-0.76,-0.88,9.03,3.44,-1.98,0.06,0.15,0.95,-1.18,1.0,-0.04
514,1900-01-01 17:16:24.570,39.79,18.67,7.81,0.32,0.64,0.7,-0.49,-0.57,-0.98,9.09,3.48,-2.0,0.06,0.15,0.95,-1.26,1.16,-0.03
515,1900-01-01 17:16:24.665,39.71,18.63,7.82,0.32,0.64,0.7,-0.66,-0.04,-0.91,8.64,3.31,-2.01,0.06,0.14,0.95,-1.3,1.33,0.08
516,1900-01-01 17:16:24.711,39.92,19.06,7.84,0.33,0.64,0.69,-0.47,-0.35,-0.32,9.39,3.54,-2.01,0.06,0.16,0.95,-1.38,0.74,0.25
517,1900-01-01 17:16:24.805,39.97,18.8,7.95,0.33,0.65,0.7,-0.77,-0.32,-1.08,8.89,3.47,-1.98,0.06,0.15,0.95,-1.72,1.11,-0.22
518,1900-01-01 17:16:24.899,40.27,18.21,7.94,0.31,0.65,0.69,0.39,-0.79,-2.89,8.88,3.29,-2.02,0.06,0.15,0.95,-0.4,2.22,-0.77
519,1900-01-01 17:16:24.946,39.36,18.88,7.66,0.32,0.63,0.7,-0.21,-1.28,-1.6,8.75,3.6,-2.14,0.06,0.15,0.95,-1.34,0.65,-0.31
520,1900-01-01 17:16:25.040,39.49,19.38,7.58,0.33,0.64,0.7,-0.85,-0.73,0.86,9.36,4.03,-2.2,0.07,0.16,0.95,-2.38,-0.75,0.61
521,1900-01-01 17:16:25.086,40.33,17.85,7.87,0.31,0.65,0.7,-0.99,0.02,-0.39,7.74,3.31,-2.12,0.06,0.13,0.95,-1.82,1.02,0.12
522,1900-01-01 17:16:25.180,40.17,18.29,7.97,0.31,0.65,0.7,0.66,-0.68,-2.66,8.88,3.38,-2.11,0.06,0.15,0.95,0.35,3.2,-0.58
523,1900-01-01 17:16:25.273,39.39,19.97,7.72,0.34,0.63,0.69,-0.11,-0.98,-0.83,10.2,4.1,-2.2,0.07,0.17,0.95,-1.07,0.5,0.04
524,1900-01-01 17:16:25.320,39.68,18.73,7.75,0.32,0.64,0.7,-1.15,0.25,-0.34,8.22,3.42,-2.2,0.06,0.14,0.95,-2.74,0.46,0.24
525,1900-01-01 17:16:25.414,39.8,18.14,7.86,0.31,0.64,0.7,0.24,0.23,-1.27,8.33,3.2,-2.18,0.05,0.14,0.95,-0.05,2.85,0.2
526,1900-01-01 17:16:25.508,40.07,20.15,7.83,0.34,0.64,0.68,-0.2,-1.21,-0.5,10.55,4.13,-2.15,0.07,0.18,0.95,-0.72,0.81,0.05
527,1900-01-01 17:16:25.555,40.02,18.5,7.91,0.32,0.65,0.7,-1.47,-0.11,-0.92,8.38,3.4,-2.16,0.06,0.14,0.95,-2.44,0.45,-0.15
528,1900-01-01 17:16:25.648,40.03,18.4,7.93,0.32,0.65,0.7,-0.52,-0.14,-0.84,8.65,3.45,-2.19,0.06,0.14,0.95,-0.82,1.54,0.11
529,1900-01-01 17:16:25.696,39.97,19.53,7.96,0.34,0.65,0.69,-0.21,-0.27,-0.95,9.82,3.86,-2.18,0.07,0.17,0.95,-1.16,1.44,0.02
530,1900-01-01 17:16:25.790,39.96,18.46,7.97,0.32,0.64,0.7,-0.94,0.06,-1.23,8.63,3.36,-2.18,0.06,0.14,0.95,-1.79,1.19,-0.07
531,1900-01-01 17:16:25.883,39.95,18.63,7.95,0.32,0.64,0.7,-0.61,-0.08,-1.43,9.0,3.54,-2.2,0.06,0.15,0.95,-1.06,1.64,-0.14
532,1900-01-01 17:16:25.930,39.89,18.75,7.89,0.32,0.64,0.7,-0.43,-0.44,-1.25,9.22,3.52,-2.23,0.06,0.15,0.95,-1.13,1.44,-0.12
533,1900-01-01 17:16:26.023,39.64,18.83,7.85,0.32,0.64,0.7,-0.49,-0.13,-0.99,8.9,3.49,-2.26,0.06,0.15,0.95,-1.37,1.27,0.05
534,1900-01-01 17:16:26.071,39.82,18.53,7.86,0.32,0.64,0.7,-0.72,-0.05,-1.07,8.9,3.39,-2.26,0.06,0.15,0.95,-1.18,1.44,0.06
535,1900-01-01 17:16:26.165,39.84,18.78,7.86,0.32,0.64,0.7,-0.43,-0.28,-1.01,9.19,3.51,-2.26,0.06,0.15,0.95,-0.97,1.4,0.05
536,1900-01-01 17:16:26.263,39.91,18.64,7.86,0.32,0.64,0.7,-0.49,-0.34,-0.69,9.05,3.36,-2.26,0.06,0.15,0.95,-1.28,1.15,0.09
537,1900-01-01 17:16:26.305,39.85,18.68,7.92,0.32,0.64,0.7,-0.47,-0.45,-0.76,9.13,3.48,-2.25,0.06,0.15,0.95,-1.18,1.16,0.09
538,1900-01-01 17:16:26.400,39.98,18.66,7.96,0.32,0.64,0.7,-0.44,-0.44,-1.01,9.03,3.46,-2.25,0.06,0.15,0.95,-1.29,1.15,-0.03
539,1900-01-01 17:16:26.493,39.72,18.71,7.97,0.32,0.64,0.7,-0.5,-0.37,-0.96,9.13,3.55,-2.26,0.06,0.15,0.95,-1.26,1.24,-0.01
540,1900-01-01 17:16:26.540,39.83,18.77,7.98,0.32,0.64,0.7,-0.6,-0.24,-0.91,9.14,3.43,-2.27,0.06,0.15,0.95,-1.42,1.2,0.02
541,1900-01-01 17:16:26.632,39.88,18.77,8.0,0.32,0.64,0.7,-0.53,-0.35,-0.98,9.13,3.45,-2.28,0.06,0.15,0.95,-1.23,1.27,-0.04
542,1900-01-01 17:16:26.679,39.87,18.77,8.01,0.32,0.64,0.7,-0.54,-0.18,-1.0,9.18,3.54,-2.29,0.06,0.15,0.95,-1.44,1.11,-0.01
543,1900-01-01 17:16:26.772,39.85,18.7,8.02,0.32,0.64,0.7,-0.47,-0.28,-0.87,9.06,3.43,-2.3,0.06,0.15,0.95,-1.48,1.16,0.04
544,1900-01-01 17:16:26.866,39.74,18.61,8.04,0.32,0.64,0.7,-0.57,0.11,-1.05,8.94,3.41,-2.3,0.06,0.15,0.95,-1.47,1.42,0.06
545,1900-01-01 17:16:26.913,39.75,18.53,8.04,0.32,0.64,0.7,-0.64,0.6,-0.85,8.95,3.44,-2.3,0.06,0.15,0.95,-1.53,1.55,0.15
546,1900-01-01 17:16:27.006,39.89,18.65,8.07,0.32,0.64,0.7,-0.47,0.24,-1.0,9.02,3.34,-2.29,0.06,0.15,0.95,-1.46,1.48,0.11
547,1900-01-01 17:16:27.054,39.85,18.37,8.08,0.32,0.64,0.7,-0.63,0.37,-1.05,8.9,3.44,-2.28,0.06,0.15,0.95,-1.4,1.45,0.04
548,1900-01-01 17:16:27.148,39.71,18.39,8.08,0.32,0.64,0.7,-0.54,0.23,-1.03,8.97,3.36,-2.28,0.06,0.15,0.95,-1.43,1.47,0.06
549,1900-01-01 17:16:27.241,39.82,18.36,8.08,0.32,0.64,0.7,-0.53,-0.04,-1.03,8.86,3.27,-2.28,0.05,0.15,0.95,-1.4,1.35,0.02
550,1900-01-01 17:16:27.289,39.7,18.38,8.08,0.32,0.64,0.7,-0.52,-0.11,-0.98,8.87,3.31,-2.29,0.06,0.15,0.95,-1.34,1.3,0.01
551,1900-01-01 17:16:27.382,39.84,18.28,8.09,0.31,0.64,0.7,-0.5,-0.23,-1.02,8.8,3.28,-2.3,0.05,0.15,0.95,-1.35,1.24,-0.02
552,1900-01-01 17:16:27.474,39.94,18.26,8.09,0.31,0.64,0.7,-0.46,-0.4,-1.08,8.82,3.3,-2.31,0.06,0.15,0.95,-1.19,1.2,-0.12
553,1900-01-01 17:16:27.521,39.73,18.42,8.09,0.32,0.64,0.7,-0.54,-0.66,-1.01,8.89,3.27,-2.34,0.05,0.15,0.95,-1.35,1.07,-0.04
554,1900-01-01 17:16:27.616,39.79,18.46,8.09,0.32,0.64,0.7,-0.55,-0.53,-0.96,9.09,3.34,-2.35,0.06,0.15,0.95,-1.24,1.09,-0.01
555,1900-01-01 17:16:27.663,39.7,18.34,8.11,0.32,0.64,0.7,-0.62,-0.6,-0.82,8.88,3.37,-2.36,0.06,0.15,0.95,-1.1,1.11,-0.02
556,1900-01-01 17:16:27.757,39.72,18.49,8.14,0.32,0.64,0.7,-0.29,-0.89,-0.87,8.95,3.44,-2.37,0.06,0.15,0.95,-1.06,1.05,-0.04
557,1900-01-01 17:16:27.836,39.66,18.61,8.16,0.32,0.64,0.7,-0.42,-0.5,-0.82,8.89,3.45,-2.38,0.06,0.15,0.95,-1.15,1.2,0.04
558,1900-01-01 17:16:27.930,39.79,18.45,8.2,0.32,0.64,0.7,-0.48,-0.36,-0.92,8.91,3.39,-2.39,0.06,0.15,0.95,-1.21,1.27,0.02
559,1900-01-01 17:16:27.977,39.77,18.48,8.22,0.32,0.64,0.7,-0.51,-0.36,-0.96,8.94,3.44,-2.39,0.06,0.15,0.95,-1.2,1.21,-0.02
560,1900-01-01 17:16:28.071,39.76,18.5,8.23,0.32,0.64,0.7,-0.54,-0.41,-1.14,9.01,3.52,-2.4,0.06,0.15,0.95,-1.28,1.26,-0.09
561,1900-01-01 17:16:28.118,39.54,18.58,8.21,0.32,0.64,0.7,-0.52,-0.38,-1.03,8.96,3.43,-2.43,0.06,0.15,0.95,-1.29,1.24,0.02
562,1900-01-01 17:16:28.212,39.85,18.86,8.22,0.32,0.64,0.7,-0.51,-0.72,-0.3,9.3,3.58,-2.43,0.06,0.16,0.95,-1.36,0.67,0.18
563,1900-01-01 17:16:28.307,40.02,18.46,8.33,0.32,0.65,0.7,-0.56,-0.12,-1.48,8.71,3.5,-2.41,0.06,0.15,0.95,-1.69,1.47,-0.32
564,1900-01-01 17:16:28.353,39.72,18.08,8.26,0.31,0.64,0.7,0.22,-0.56,-2.46,8.72,3.25,-2.47,0.05,0.15,0.95,-0.25,2.35,-0.47
565,1900-01-01 17:16:28.447,39.31,19.06,8.05,0.32,0.63,0.7,-0.32,-0.82,-0.73,9.43,3.57,-2.55,0.06,0.16,0.95,-1.34,0.45,0.08
566,1900-01-01 17:16:28.541,39.71,19.11,8.1,0.33,0.65,0.7,-1.05,-0.47,0.49,9.24,3.73,-2.55,0.06,0.15,0.95,-2.52,-0.46,0.48
567,1900-01-01 17:16:28.587,39.84,17.77,8.33,0.3,0.64,0.7,-0.47,-0.12,-0.79,8.19,3.34,-2.48,0.06,0.14,0.95,-0.93,1.58,0.09
568,1900-01-01 17:16:28.681,40.1,18.6,8.37,0.32,0.64,0.7,-0.3,-0.84,-2.01,9.02,3.45,-2.48,0.06,0.15,0.95,-0.66,1.93,-0.55
569,1900-01-01 17:16:28.729,39.34,19.11,8.22,0.33,0.63,0.7,-0.09,-0.95,-1.86,9.6,3.57,-2.57,0.06,0.16,0.95,-1.19,1.31,-0.34
570,1900-01-01 17:16:28.823,39.52,18.35,8.1,0.32,0.64,0.71,-0.95,0.79,-0.82,8.75,3.41,-2.63,0.06,0.15,0.95,-1.73,1.44,0.24
571,1900-01-01 17:16:28.917,39.99,18.41,8.13,0.31,0.64,0.69,-0.56,0.17,-0.8,9.06,3.29,-2.6,0.06,0.15,0.95,-0.84,1.69,0.15
572,1900-01-01 17:16:28.964,39.83,18.52,8.17,0.32,0.64,0.7,-0.32,-0.97,-1.33,8.95,3.42,-2.58,0.06,0.15,0.95,-1.0,1.24,-0.27
573,1900-01-01 17:16:29.058,39.59,18.58,8.12,0.32,0.64,0.7,-0.48,-0.75,-0.94,9.11,3.4,-2.63,0.06,0.15,0.95,-1.38,0.93,-0.04
574,1900-01-01 17:16:29.105,39.58,18.55,8.14,0.32,0.64,0.7,-0.69,-0.02,-0.63,8.84,3.39,-2.65,0.06,0.15,0.95,-1.29,1.27,0.2
575,1900-01-01 17:16:29.200,39.91,18.57,8.2,0.32,0.64,0.7,-0.43,-0.27,-0.65,9.04,3.48,-2.63,0.06,0.15,0.95,-1.31,1.23,0.13
576,1900-01-01 17:16:29.294,39.82,18.75,8.26,0.32,0.64,0.7,-0.45,-0.38,-0.65,9.21,3.43,-2.62,0.06,0.15,0.95,-1.41,1.04,0.12
577,1900-01-01 17:16:29.341,39.68,18.56,8.32,0.32,0.64,0.7,-0.52,-0.37,-0.82,8.95,3.4,-2.61,0.06,0.15,0.95,-1.43,1.09,0.03
578,1900-01-01 17:16:29.434,39.6,18.65,8.36,0.32,0.64,0.7,-0.48,-0.04,-0.86,8.98,3.46,-2.61,0.06,0.15,0.95,-1.49,1.31,0.14
579,1900-01-01 17:16:29.529,39.61,18.61,8.38,0.32,0.64,0.7,-0.46,0.55,-1.04,8.91,3.44,-2.6,0.06,0.15,0.95,-1.46,1.56,0.11
580,1900-01-01 17:16:29.576,39.57,18.52,8.39,0.32,0.64,0.7,-0.65,0.23,-1.05,8.96,3.4,-2.59,0.06,0.15,0.95,-1.55,1.42,0.08
581,1900-01-01 17:16:29.669,39.61,18.41,8.39,0.32,0.64,0.7,-0.55,0.21,-1.08,8.86,3.4,-2.59,0.06,0.15,0.95,-1.45,1.47,0.06
582,1900-01-01 17:16:29.716,39.6,18.44,8.38,0.32,0.64,0.7,-0.44,0.23,-0.89,8.85,3.42,-2.59,0.06,0.15,0.95,-1.43,1.44,0.13
583,1900-01-01 17:16:29.811,39.72,18.29,8.4,0.31,0.64,0.7,-0.45,-0.01,-1.04,8.9,3.33,-2.57,0.06,0.15,0.95,-1.35,1.38,0.03
584,1900-01-01 17:16:29.905,39.73,18.33,8.41,0.32,0.64,0.7,-0.47,-0.16,-1.09,8.8,3.36,-2.58,0.06,0.15,0.95,-1.34,1.3,0.0
585,1900-01-01 17:16:29.953,39.58,18.33,8.4,0.32,0.64,0.7,-0.47,-0.19,-1.09,8.83,3.31,-2.59,0.06,0.15,0.95,-1.35,1.38,0.01
586,1900-01-01 17:16:30.049,39.69,18.27,8.39,0.31,0.64,0.7,-0.53,-0.17,-1.05,8.85,3.32,-2.59,0.06,0.15,0.95,-1.28,1.3,-0.02
587,1900-01-01 17:16:30.093,39.64,18.33,8.39,0.31,0.64,0.7,-0.46,-0.59,-0.97,8.82,3.32,-2.6,0.06,0.15,0.95,-1.18,1.0,-0.08
588,1900-01-01 17:16:30.187,39.58,18.41,8.4,0.32,0.64,0.7,-0.5,-0.75,-0.92,8.78,3.29,-2.63,0.06,0.15,0.95,-1.15,0.95,-0.06
589,1900-01-01 17:16:30.282,39.67,18.38,8.42,0.32,0.64,0.7,-0.52,-0.66,-0.91,8.99,3.39,-2.64,0.06,0.15,0.95,-1.2,1.02,-0.04
590,1900-01-01 17:16:30.329,39.55,18.44,8.44,0.32,0.64,0.7,-0.54,-0.37,-0.85,8.91,3.36,-2.66,0.06,0.15,0.95,-1.12,1.23,0.02
591,1900-01-01 17:16:30.421,39.69,18.39,8.47,0.32,0.64,0.7,-0.47,-0.34,-1.07,8.88,3.41,-2.66,0.06,0.15,0.95,-1.25,1.23,-0.07
592,1900-01-01 17:16:30.515,39.5,18.41,8.47,0.32,0.64,0.71,-0.6,-0.47,-0.99,8.88,3.38,-2.68,0.06,0.15,0.95,-1.24,1.19,-0.06
593,1900-01-01 17:16:30.562,39.61,18.28,8.47,0.32,0.64,0.71,-0.65,-0.18,-1.22,8.92,3.45,-2.7,0.06,0.15,0.95,-1.24,1.36,-0.08
594,1900-01-01 17:16:30.655,39.64,18.35,8.45,0.32,0.64,0.7,-0.7,0.01,-1.04,8.84,3.36,-2.72,0.06,0.15,0.95,-1.31,1.32,0.08
595,1900-01-01 17:16:30.702,39.64,18.43,8.45,0.32,0.64,0.7,-0.43,-0.43,-0.9,9.02,3.46,-2.72,0.06,0.15,0.95,-1.25,1.18,-0.01
596,1900-01-01 17:16:30.796,39.6,18.38,8.47,0.32,0.64,0.7,-0.47,-0.7,-1.17,8.93,3.31,-2.73,0.06,0.15,0.95,-1.15,1.21,-0.13
597,1900-01-01 17:16:30.889,39.48,18.34,8.45,0.32,0.64,0.71,-0.56,-0.31,-1.12,8.74,3.34,-2.75,0.06,0.15,0.95,-1.25,1.37,-0.06
598,1900-01-01 17:16:30.936,39.58,18.48,8.44,0.32,0.64,0.7,-0.38,-0.11,-1.1,8.99,3.48,-2.77,0.06,0.15,0.95,-1.22,1.5,-0.01
599,1900-01-01 17:16:31.030,39.75,18.15,8.43,0.31,0.64,0.7,-0.43,-0.14,-1.47,8.89,3.13,-2.78,0.05,0.15,0.95,-1.09,1.83,-0.04
600,1900-01-01 17:16:31.077,39.36,19.03,8.36,0.32,0.63,0.7,-0.49,-1.53,0.78,9.73,3.66,-2.8,0.06,0.16,0.95,-1.03,-0.12,0.61
601,1900-01-01 17:16:31.172,39.44,18.52,8.64,0.32,0.64,0.71,-1.04,0.27,0.01,8.65,3.55,-2.71,0.06,0.14,0.95,-2.42,0.56,0.29
602,1900-01-01 17:16:31.266,39.92,17.79,8.8,0.31,0.64,0.7,-0.54,0.58,-2.11,8.4,3.3,-2.68,0.06,0.14,0.95,-1.05,2.13,-0.37
603,1900-01-01 17:16:31.315,39.62,18.24,8.64,0.31,0.64,0.7,-0.05,-0.32,-3.56,9.22,3.35,-2.74,0.06,0.15,0.95,-0.56,2.89,-0.84
604,1900-01-01 17:16:31.408,39.01,18.33,8.25,0.31,0.63,0.71,-0.53,0.27,-1.7,9.08,3.2,-2.88,0.05,0.15,0.95,-1.8,1.55,-0.05
605,1900-01-01 17:16:31.454,39.52,18.32,8.15,0.32,0.64,0.71,-1.03,1.32,-0.47,9.11,3.2,-2.89,0.05,0.15,0.95,-2.13,1.17,0.45
606,1900-01-01 17:16:31.551,40.0,17.11,8.24,0.29,0.64,0.7,-0.81,0.53,-1.39,8.34,2.82,-2.83,0.05,0.14,0.95,-0.82,2.03,-0.1
607,1900-01-01 17:16:31.643,39.87,17.86,8.19,0.31,0.64,0.7,-0.08,-0.7,-1.98,9.09,3.0,-2.86,0.05,0.15,0.95,-1.03,1.6,-0.35
608,1900-01-01 17:16:31.689,39.24,17.92,8.05,0.31,0.63,0.71,-0.34,-0.55,-0.86,8.93,3.03,-2.92,0.05,0.15,0.95,-1.53,0.89,0.16
609,1900-01-01 17:16:31.784,39.57,17.63,8.07,0.3,0.64,0.71,-0.51,0.38,-0.33,8.83,2.98,-2.9,0.05,0.15,0.95,-1.52,1.11,0.4
610,1900-01-01 17:16:31.878,39.8,17.57,8.18,0.3,0.64,0.7,-0.09,-0.08,-0.4,8.73,2.8,-2.85,0.05,0.15,0.95,-1.11,1.24,0.31
611,1900-01-01 17:16:31.926,39.9,17.85,8.28,0.31,0.64,0.7,0.16,-1.16,-0.44,9.04,3.12,-2.81,0.05,0.15,0.95,-0.98,1.02,0.02
612,1900-01-01 17:16:32.020,39.66,17.8,8.37,0.31,0.64,0.71,-0.1,-1.21,-0.18,8.7,3.02,-2.82,0.05,0.15,0.95,-1.01,0.68,0.08
613,1900-01-01 17:16:32.067,39.92,18.45,8.51,0.32,0.64,0.7,-0.17,-2.01,-0.24,9.26,3.3,-2.81,0.06,0.15,0.95,-1.12,0.42,-0.02
614,1900-01-01 17:16:32.160,39.51,18.42,8.63,0.32,0.64,0.71,-0.59,-1.15,-0.44,8.96,3.36,-2.82,0.06,0.15,0.95,-1.28,0.69,-0.04
615,1900-01-01 17:16:32.254,39.64,18.64,8.72,0.32,0.64,0.7,-0.44,-0.48,-0.42,8.98,3.4,-2.84,0.06,0.15,0.95,-1.39,0.97,0.07
616,1900-01-01 17:16:32.301,39.78,18.51,8.81,0.32,0.64,0.7,-0.28,-0.77,-0.98,8.97,3.32,-2.84,0.06,0.15,0.95,-1.15,1.15,-0.06
617,1900-01-01 17:16:32.394,39.67,18.49,8.82,0.32,0.64,0.7,-0.4,-0.66,-1.03,8.93,3.46,-2.85,0.06,0.15,0.95,-1.01,1.13,-0.1
618,1900-01-01 17:16:32.487,39.77,18.56,8.83,0.32,0.64,0.7,-0.64,-0.53,-1.41,8.96,3.38,-2.88,0.06,0.15,0.95,-1.16,1.44,-0.12
619,1900-01-01 17:16:32.533,39.55,18.72,8.77,0.32,0.64,0.7,-0.57,-0.01,-1.35,9.22,3.32,-2.91,0.06,0.15,0.95,-1.26,1.53,-0.05
620,1900-01-01 17:16:32.626,39.67,18.6,8.72,0.32,0.64,0.7,-0.77,-0.48,-0.76,9.1,3.41,-2.92,0.06,0.15,0.95,-1.42,0.9,0.0
621,1900-01-01 17:16:32.673,39.62,18.66,8.77,0.32,0.64,0.7,-0.54,-1.24,-0.54,8.98,3.49,-2.93,0.06,0.15,0.95,-1.12,0.66,-0.06
622,1900-01-01 17:16:32.767,39.45,18.86,8.84,0.32,0.64,0.7,-0.54,-1.33,-0.68,8.93,3.61,-2.95,0.06,0.15,0.95,-1.22,0.79,0.02
623,1900-01-01 17:16:32.860,39.36,19.04,8.9,0.33,0.63,0.7,-1.22,-0.76,-0.08,9.1,3.63,-2.95,0.06,0.15,0.95,-1.4,0.57,0.3
624,1900-01-01 17:16:32.907,39.62,19.15,9.04,0.33,0.64,0.7,-1.03,-1.26,0.15,9.17,3.89,-2.92,0.07,0.15,0.95,-1.68,0.18,0.15
625,1900-01-01 17:16:33.001,39.39,18.94,9.22,0.33,0.64,0.71,-0.41,-0.7,-1.71,8.74,3.78,-2.9,0.06,0.15,0.95,-1.32,1.48,-0.37
626,1900-01-01 17:16:33.048,39.01,19.21,9.12,0.33,0.63,0.71,0.11,0.4,-2.01,9.01,3.77,-2.97,0.06,0.15,0.95,-0.85,2.42,-0.05
627,1900-01-01 17:16:33.142,39.4,19.11,8.98,0.33,0.63,0.7,-0.12,0.75,-0.98,9.21,3.58,-2.98,0.06,0.15,0.95,-1.23,1.74,0.31
628,1900-01-01 17:16:33.238,39.81,18.87,8.99,0.32,0.64,0.7,-0.09,-0.58,-0.44,8.96,3.55,-2.94,0.06,0.15,0.95,-1.49,0.96,0.2
629,1900-01-01 17:16:33.284,39.44,19.01,9.08,0.33,0.64,0.7,0.07,-0.71,-0.48,9.07,3.65,-2.92,0.06,0.15,0.95,-1.21,1.18,0.24
630,1900-01-01 17:16:33.377,39.59,19.17,9.16,0.33,0.64,0.7,-0.18,-0.42,-0.24,9.2,3.6,-2.9,0.06,0.15,0.95,-1.31,1.31,0.28
631,1900-01-01 17:16:33.472,39.56,19.15,9.29,0.33,0.64,0.7,-0.02,-0.66,-0.67,9.01,3.56,-2.86,0.06,0.15,0.95,-1.19,1.4,0.15
632,1900-01-01 17:16:33.517,39.77,19.39,9.34,0.33,0.64,0.69,0.14,-0.5,-0.57,9.06,3.56,-2.85,0.06,0.15,0.95,-1.31,1.15,0.11
633,1900-01-01 17:16:33.612,39.92,19.28,9.41,0.33,0.64,0.69,-0.15,-1.23,-0.98,8.89,3.53,-2.84,0.06,0.15,0.95,-1.12,0.99,-0.15
634,1900-01-01 17:16:33.658,39.68,19.4,9.42,0.33,0.64,0.7,-0.31,-1.11,-1.05,9.06,3.78,-2.87,0.06,0.15,0.95,-1.03,1.14,-0.13
635,1900-01-01 17:16:33.753,39.88,19.38,9.42,0.33,0.65,0.7,-0.5,0.11,-1.38,9.3,3.66,-2.9,0.06,0.16,0.95,-1.22,1.79,-0.06
636,1900-01-01 17:16:33.846,40.32,19.01,9.37,0.33,0.65,0.69,-0.41,1.42,-3.51,8.96,3.63,-2.92,0.06,0.15,0.95,-1.37,2.43,-0.48
637,1900-01-01 17:16:33.893,40.35,18.64,9.0,0.32,0.65,0.69,-0.95,-0.3,-6.08,9.4,3.25,-3.0,0.05,0.16,0.95,-0.71,3.6,-0.99
638,1900-01-01 17:16:33.986,40.02,17.93,8.23,0.31,0.64,0.7,-1.67,-0.65,-4.55,8.65,2.91,-3.16,0.05,0.14,0.95,-0.88,2.76,-0.78
639,1900-01-01 17:16:34.034,41.11,17.5,7.7,0.3,0.65,0.68,-2.77,-4.85,-3.02,9.62,2.76,-3.28,0.05,0.16,0.95,-0.58,0.54,-0.89
640,1900-01-01 17:16:34.126,40.22,19.66,7.4,0.34,0.66,0.7,-1.11,3.56,-8.17,9.7,2.87,-3.43,0.05,0.16,0.95,-1.56,-0.19,-1.11
641,1900-01-01 17:16:34.220,40.59,15.97,6.31,0.28,0.65,0.71,0.15,-2.51,-3.44,9.46,3.06,-3.61,0.05,0.16,0.95,-1.22,1.12,-0.56
642,1900-01-01 17:16:34.267,40.43,16.8,5.95,0.29,0.65,0.7,-0.73,2.02,-1.12,9.44,3.24,-3.7,0.05,0.16,0.95,-2.44,0.95,0.06
643,1900-01-01 17:16:34.362,40.95,16.43,5.94,0.28,0.66,0.7,-0.44,0.41,0.81,8.51,2.88,-3.7,0.05,0.14,0.95,-1.86,1.47,0.28
644,1900-01-01 17:16:34.456,40.65,17.27,6.22,0.3,0.65,0.69,0.53,1.55,1.42,9.28,3.08,-3.66,0.05,0.16,0.95,-1.53,0.9,0.5
645,1900-01-01 17:16:34.503,40.95,16.8,6.59,0.29,0.65,0.69,-1.35,-2.6,0.4,8.59,3.09,-3.6,0.05,0.14,0.95,-1.15,-0.4,0.18
646,1900-01-01 17:16:34.595,40.83,17.98,6.81,0.31,0.66,0.7,0.21,-4.23,0.45,9.56,3.7,-3.58,0.06,0.16,0.95,-0.73,-0.27,-0.39
647,1900-01-01 17:16:34.642,40.04,17.82,7.04,0.31,0.65,0.71,-0.3,-0.44,-0.19,8.79,3.62,-3.65,0.06,0.15,0.95,-1.88,0.89,-0.05
648,1900-01-01 17:16:34.735,40.75,18.08,7.17,0.31,0.66,0.69,-0.37,1.14,0.29,9.58,3.57,-3.66,0.06,0.16,0.95,-1.18,2.11,0.56
649,1900-01-01 17:16:34.828,40.99,18.31,7.37,0.31,0.65,0.68,-1.03,-0.78,0.77,9.03,3.55,-3.59,0.06,0.15,0.95,-1.38,0.8,0.36
650,1900-01-01 17:16:34.875,40.97,18.47,7.64,0.32,0.65,0.68,0.36,-2.86,1.08,9.29,3.62,-3.54,0.06,0.16,0.95,-1.22,-0.29,-0.19
651,1900-01-01 17:16:34.969,39.92,19.12,7.97,0.33,0.65,0.7,-0.83,-2.42,-0.34,9.09,3.98,-3.58,0.07,0.15,0.95,-1.37,0.18,0.03
652,1900-01-01 17:16:35.061,40.03,19.2,8.07,0.33,0.65,0.7,-0.97,-0.98,-0.5,9.42,4.06,-3.58,0.07,0.16,0.95,-1.17,0.98,0.33
653,1900-01-01 17:16:35.107,39.93,19.39,8.16,0.33,0.65,0.7,-1.12,0.45,-0.44,9.08,4.16,-3.54,0.07,0.15,0.95,-1.54,1.31,0.38
654,1900-01-01 17:16:35.201,40.38,19.17,8.25,0.33,0.65,0.69,0.1,0.32,-0.5,9.05,3.95,-3.49,0.07,0.15,0.95,-1.28,1.46,0.18
655,1900-01-01 17:16:35.247,40.53,19.45,8.33,0.33,0.65,0.68,0.73,-0.71,-1.11,9.51,3.93,-3.47,0.07,0.16,0.95,-0.9,1.42,-0.34
656,1900-01-01 17:16:35.342,40.28,19.22,8.32,0.33,0.65,0.69,0.3,-2.21,-1.27,9.26,3.84,-3.53,0.06,0.15,0.95,-0.94,0.99,-0.5
657,1900-01-01 17:16:35.435,39.81,19.66,8.29,0.34,0.64,0.69,-0.44,-1.49,-0.74,9.29,4.15,-3.62,0.07,0.16,0.95,-0.92,0.98,0.05
658,1900-01-01 17:16:35.482,40.22,19.69,8.33,0.34,0.65,0.69,-0.36,-0.46,-0.43,9.28,4.17,-3.62,0.07,0.16,0.95,-0.99,1.25,0.25
659,1900-01-01 17:16:35.575,40.47,19.85,8.43,0.34,0.65,0.68,-0.3,-0.55,-0.59,9.43,4.16,-3.59,0.07,0.16,0.95,-1.51,0.95,0.04
660,1900-01-01 17:16:35.669,40.25,19.94,8.5,0.34,0.65,0.68,-0.33,-1.48,0.21,9.08,4.1,-3.59,0.07,0.15,0.95,-1.54,0.55,0.06
661,1900-01-01 17:16:35.716,40.28,20.02,8.69,0.34,0.65,0.68,-0.53,-1.11,-0.56,9.39,4.22,-3.59,0.07,0.16,0.95,-1.15,0.98,0.01
662,1900-01-01 17:16:35.810,40.11,20.19,8.76,0.35,0.65,0.69,-0.59,-0.31,-1.11,9.23,4.37,-3.6,0.07,0.15,0.95,-1.59,1.25,-0.08
663,1900-01-01 17:16:35.856,40.02,19.94,8.75,0.34,0.65,0.69,-0.72,0.63,-1.09,9.18,4.16,-3.62,0.07,0.15,0.95,-1.57,1.44,0.23
664,1900-01-01 17:16:35.949,40.11,19.94,8.74,0.34,0.64,0.68,-0.87,0.98,-1.13,9.09,4.18,-3.59,0.07,0.15,0.95,-1.32,1.75,0.29
665,1900-01-01 17:16:36.044,40.34,19.94,8.73,0.34,0.65,0.68,-0.39,0.11,-1.04,9.25,4.15,-3.56,0.07,0.16,0.95,-1.19,1.57,0.11
666,1900-01-01 17:16:36.091,40.11,19.92,8.73,0.34,0.64,0.68,-0.11,-0.64,-0.89,9.18,4.18,-3.55,0.07,0.15,0.95,-1.12,1.31,0.04
667,1900-01-01 17:16:36.184,40.17,19.96,8.75,0.34,0.65,0.68,-0.28,-0.44,-0.66,9.21,4.08,-3.55,0.07,0.15,0.95,-1.37,1.19,0.16
668,1900-01-01 17:16:36.277,40.19,20.02,8.81,0.34,0.65,0.68,-0.41,-0.37,-0.76,9.09,4.18,-3.54,0.07,0.15,0.95,-1.37,1.24,0.09
669,1900-01-01 17:16:36.325,40.19,19.81,8.86,0.34,0.65,0.69,-0.18,-0.44,-1.08,9.28,4.04,-3.53,0.07,0.16,0.95,-1.06,1.42,0.04
670,1900-01-01 17:16:36.420,40.13,19.99,8.85,0.34,0.65,0.69,-0.19,-0.39,-0.73,9.37,4.14,-3.53,0.07,0.16,0.95,-1.11,1.31,0.17
671,1900-01-01 17:16:36.467,40.16,19.92,8.9,0.34,0.64,0.68,-0.28,-0.58,-0.64,9.18,4.06,-3.52,0.07,0.15,0.95,-1.14,1.17,0.11
672,1900-01-01 17:16:36.561,40.15,20.09,8.96,0.34,0.65,0.68,-0.44,-0.6,-0.75,9.18,4.23,-3.51,0.07,0.15,0.95,-1.08,1.21,0.06
673,1900-01-01 17:16:36.658,40.35,20.19,9.0,0.35,0.65,0.68,-0.56,-0.71,-0.84,9.3,4.21,-3.51,0.07,0.16,0.95,-1.1,1.18,-0.02
674,1900-01-01 17:16:36.704,40.29,20.34,9.03,0.35,0.65,0.68,-0.73,-0.54,-0.87,9.34,4.19,-3.52,0.07,0.16,0.95,-1.26,1.08,-0.03
675,1900-01-01 17:16:36.798,40.28,20.26,9.06,0.35,0.65,0.68,-0.53,-0.32,-0.98,9.38,4.12,-3.53,0.07,0.16,0.95,-1.35,1.16,0.0
676,1900-01-01 17:16:36.845,40.15,20.11,9.07,0.34,0.65,0.68,-0.66,-0.28,-1.21,9.32,4.16,-3.54,0.07,0.16,0.95,-1.34,1.31,-0.11
677,1900-01-01 17:16:36.939,40.15,20.09,9.04,0.34,0.65,0.69,-0.82,-0.03,-1.33,9.3,4.15,-3.57,0.07,0.16,0.95,-1.37,1.36,-0.13
678,1900-01-01 17:16:37.033,40.17,20.11,9.0,0.34,0.65,0.68,-0.74,-0.21,-1.25,9.47,4.15,-3.6,0.07,0.16,0.95,-1.33,1.34,-0.13
679,1900-01-01 17:16:37.079,40.11,20.12,8.97,0.34,0.64,0.68,-0.62,-0.17,-1.15,9.22,4.12,-3.62,0.07,0.15,0.95,-1.24,1.33,-0.07
680,1900-01-01 17:16:37.180,40.24,20.13,8.95,0.34,0.65,0.68,-0.66,-0.26,-1.15,9.3,4.13,-3.64,0.07,0.16,0.95,-1.26,1.31,-0.08
681,1900-01-01 17:16:37.223,40.06,20.08,8.94,0.34,0.65,0.69,-0.59,-0.24,-1.08,9.19,4.19,-3.66,0.07,0.15,0.95,-1.29,1.3,-0.04
682,1900-01-01 17:16:37.316,40.16,19.96,8.93,0.34,0.65,0.69,-0.56,-0.18,-1.0,9.26,4.13,-3.68,0.07,0.16,0.95,-1.23,1.3,-0.01
683,1900-01-01 17:16:37.411,40.17,20.06,8.94,0.34,0.65,0.68,-0.53,-0.27,-1.02,9.37,4.08,-3.69,0.07,0.16,0.95,-1.28,1.31,0.0
684,1900-01-01 17:16:37.458,40.09,19.89,8.94,0.34,0.65,0.69,-0.5,-0.26,-1.08,9.3,4.07,-3.7,0.07,0.16,0.95,-1.25,1.36,-0.02
685,1900-01-01 17:16:37.553,40.12,20.12,8.94,0.34,0.65,0.68,-0.45,-0.33,-0.94,9.29,4.2,-3.71,0.07,0.16,0.95,-1.23,1.27,0.01
686,1900-01-01 17:16:37.599,40.25,19.94,8.95,0.34,0.65,0.69,-0.57,-0.26,-0.99,9.3,4.12,-3.71,0.07,0.16,0.95,-1.26,1.27,0.02
687,1900-01-01 17:16:37.692,40.15,20.15,8.96,0.35,0.65,0.68,-0.56,-0.21,-0.99,9.28,4.06,-3.72,0.07,0.16,0.95,-1.35,1.27,0.0
688,1900-01-01 17:16:37.786,40.12,19.99,8.97,0.34,0.65,0.69,-0.37,-0.43,-1.09,9.48,3.99,-3.73,0.07,0.16,0.95,-1.19,1.29,-0.05
689,1900-01-01 17:16:37.832,40.12,20.0,8.96,0.34,0.65,0.68,-0.49,-0.16,-1.12,9.42,4.16,-3.74,0.07,0.16,0.95,-1.23,1.39,0.02
690,1900-01-01 17:16:37.925,40.23,19.9,8.95,0.34,0.65,0.68,-0.6,-0.24,-1.05,9.42,3.92,-3.75,0.07,0.16,0.95,-1.29,1.33,-0.02
691,1900-01-01 17:16:38.020,40.08,20.04,8.95,0.34,0.64,0.68,-0.55,-0.42,-0.95,9.29,4.14,-3.76,0.07,0.16,0.95,-1.3,1.13,-0.01
692,1900-01-01 17:16:38.066,40.05,20.01,8.96,0.34,0.64,0.68,-0.54,-0.47,-0.88,9.26,4.08,-3.77,0.07,0.15,0.95,-1.41,1.08,-0.04
693,1900-01-01 17:16:38.160,40.01,20.05,8.99,0.34,0.64,0.69,-0.55,-0.33,-0.99,9.12,4.12,-3.78,0.07,0.15,0.95,-1.4,1.17,-0.03
694,1900-01-01 17:16:38.208,40.15,20.05,8.99,0.34,0.65,0.68,-0.58,-0.02,-0.86,9.33,4.09,-3.8,0.07,0.16,0.95,-1.48,1.29,0.1
695,1900-01-01 17:16:38.307,40.06,19.99,9.02,0.34,0.64,0.69,-0.56,0.03,-1.02,9.13,4.07,-3.79,0.07,0.15,0.95,-1.48,1.31,0.05
696,1900-01-01 17:16:38.401,40.19,19.84,9.02,0.34,0.65,0.69,-0.53,-0.03,-0.98,9.14,4.04,-3.79,0.07,0.15,0.95,-1.45,1.29,0.07
697,1900-01-01 17:16:38.446,40.14,19.76,9.03,0.34,0.64,0.69,-0.34,-0.12,-0.96,9.36,4.1,-3.79,0.07,0.16,0.95,-1.36,1.29,0.05
698,1900-01-01 17:16:38.539,40.17,19.84,9.05,0.34,0.65,0.69,-0.41,-0.11,-0.85,9.19,4.06,-3.79,0.07,0.15,0.95,-1.38,1.31,0.08
699,1900-01-01 17:16:38.586,40.22,19.84,9.08,0.34,0.65,0.68,-0.33,-0.05,-1.0,9.17,4.1,-3.79,0.07,0.15,0.95,-1.36,1.34,0.08
700,1900-01-01 17:16:38.682,40.31,19.68,9.08,0.34,0.65,0.68,-0.43,0.0,-1.05,9.06,4.03,-3.78,0.07,0.15,0.95,-1.32,1.28,0.0
701,1900-01-01 17:16:38.776,40.17,19.75,9.08,0.34,0.65,0.69,-0.5,-0.27,-1.11,9.08,3.97,-3.79,0.07,0.15,0.95,-1.33,1.34,-0.02
702,1900-01-01 17:16:38.825,40.11,19.88,9.07,0.34,0.65,0.69,-0.54,-0.26,-0.83,9.15,4.04,-3.8,0.07,0.15,0.95,-1.3,1.24,0.05
703,1900-01-01 17:16:38.918,40.26,19.75,9.11,0.34,0.65,0.69,-0.47,-0.47,-0.94,9.15,4.04,-3.8,0.07,0.15,0.95,-1.19,1.18,-0.02
704,1900-01-01 17:16:38.966,40.17,19.87,9.12,0.34,0.65,0.68,-0.5,-0.69,-0.95,9.15,4.07,-3.82,0.07,0.15,0.95,-1.12,1.13,-0.08
705,1900-01-01 17:16:39.061,40.18,19.85,9.13,0.34,0.65,0.68,-0.47,-0.7,-0.95,9.31,4.02,-3.84,0.07,0.16,0.95,-1.06,1.12,-0.04
706,1900-01-01 17:16:39.152,40.09,20.0,9.15,0.34,0.64,0.69,-0.56,-0.43,-0.9,9.26,4.18,-3.85,0.07,0.15,0.95,-1.23,1.21,0.03
707,1900-01-01 17:16:39.200,40.15,19.89,9.17,0.34,0.65,0.69,-0.57,-0.24,-0.9,9.25,4.08,-3.85,0.07,0.15,0.95,-1.3,1.21,0.04
708,1900-01-01 17:16:39.295,40.11,19.9,9.19,0.34,0.64,0.68,-0.56,-0.3,-1.01,9.34,4.07,-3.86,0.07,0.16,0.94,-1.21,1.27,-0.02
709,1900-01-01 17:16:39.343,40.0,19.9,9.2,0.34,0.64,0.69,-0.59,-0.33,-1.09,9.28,4.06,-3.87,0.07,0.16,0.95,-1.29,1.28,-0.03
710,1900-01-01 17:16:39.440,39.94,20.0,9.19,0.34,0.64,0.69,-0.56,-0.18,-1.02,9.28,4.02,-3.88,0.07,0.16,0.95,-1.29,1.27,0.0
711,1900-01-01 17:16:39.528,40.09,19.88,9.19,0.34,0.64,0.69,-0.64,-0.25,-1.15,9.18,4.12,-3.89,0.07,0.15,0.95,-1.27,1.25,-0.08
712,1900-01-01 17:16:39.575,39.98,19.94,9.18,0.34,0.64,0.69,-0.5,-0.06,-1.05,9.23,4.11,-3.91,0.07,0.15,0.95,-1.28,1.33,-0.02
713,1900-01-01 17:16:39.674,40.01,19.79,9.17,0.34,0.64,0.69,-0.52,-0.18,-1.0,9.22,4.0,-3.92,0.07,0.15,0.95,-1.26,1.31,-0.02
714,1900-01-01 17:16:39.765,40.03,19.84,9.18,0.34,0.64,0.69,-0.46,-0.28,-1.12,9.3,4.07,-3.93,0.07,0.16,0.95,-1.26,1.27,-0.06
715,1900-01-01 17:16:39.812,40.08,19.7,9.17,0.34,0.64,0.69,-0.49,-0.41,-1.11,9.28,4.0,-3.95,0.07,0.16,0.95,-1.24,1.27,-0.08
716,1900-01-01 17:16:39.906,40.06,19.8,9.16,0.34,0.64,0.69,-0.54,-0.31,-1.1,9.23,3.96,-3.97,0.07,0.15,0.95,-1.27,1.3,-0.05
717,1900-01-01 17:16:39.954,39.98,19.8,9.15,0.34,0.64,0.69,-0.55,-0.2,-1.01,9.26,4.06,-3.99,0.07,0.15,0.95,-1.25,1.4,0.04
718,1900-01-01 17:16:40.049,40.18,19.81,9.15,0.34,0.65,0.69,-0.5,-0.05,-1.03,9.27,3.99,-3.99,0.07,0.16,0.95,-1.32,1.4,0.02
719,1900-01-01 17:16:40.142,40.03,19.74,9.16,0.34,0.64,0.69,-0.56,-0.19,-1.0,9.28,3.87,-4.0,0.06,0.16,0.95,-1.29,1.28,0.02
720,1900-01-01 17:16:40.189,40.05,19.75,9.16,0.34,0.65,0.69,-0.59,-0.24,-1.02,9.29,3.97,-4.0,0.07,0.16,0.95,-1.42,1.18,-0.02
721,1900-01-01 17:16:40.284,40.01,19.71,9.17,0.34,0.64,0.69,-0.56,-0.38,-0.96,9.27,3.94,-4.01,0.07,0.16,0.95,-1.47,1.03,-0.04
722,1900-01-01 17:16:40.378,39.87,19.7,9.18,0.34,0.64,0.69,-0.62,-0.26,-1.06,9.3,4.05,-4.03,0.07,0.16,0.95,-1.45,1.15,-0.05
723,1900-01-01 17:16:40.425,39.96,19.68,9.18,0.34,0.64,0.69,-0.62,0.02,-0.95,9.24,3.96,-4.04,0.07,0.15,0.95,-1.62,1.24,0.05
724,1900-01-01 17:16:40.517,40.07,19.62,9.19,0.34,0.65,0.69,-0.5,0.08,-0.94,9.12,4.17,-4.04,0.07,0.15,0.95,-1.48,1.36,0.07
725,1900-01-01 17:16:40.564,40.2,19.47,9.21,0.33,0.65,0.69,-0.6,0.18,-1.11,9.13,3.93,-4.04,0.07,0.15,0.95,-1.49,1.37,0.07
726,1900-01-01 17:16:40.656,40.0,19.63,9.2,0.34,0.64,0.69,-0.47,-0.09,-1.0,9.2,3.97,-4.04,0.07,0.15,0.95,-1.39,1.28,0.04
727,1900-01-01 17:16:40.751,40.12,19.57,9.2,0.34,0.64,0.69,-0.44,-0.15,-1.02,9.22,4.02,-4.04,0.07,0.15,0.95,-1.36,1.34,0.02
728,1900-01-01 17:16:40.796,40.01,19.54,9.21,0.33,0.64,0.69,-0.46,-0.31,-1.07,9.18,3.99,-4.05,0.07,0.15,0.95,-1.32,1.28,-0.02
729,1900-01-01 17:16:40.892,40.09,19.47,9.2,0.33,0.64,0.69,-0.39,-0.23,-1.03,9.08,3.89,-4.06,0.07,0.15,0.95,-1.34,1.27,0.01
730,1900-01-01 17:16:40.985,39.93,19.46,9.2,0.33,0.64,0.69,-0.53,-0.1,-1.01,9.0,3.97,-4.07,0.07,0.15,0.95,-1.32,1.37,0.03
731,1900-01-01 17:16:41.033,40.09,19.41,9.21,0.33,0.65,0.69,-0.5,-0.26,-1.11,9.05,3.95,-4.07,0.07,0.15,0.95,-1.21,1.37,-0.03
732,1900-01-01 17:16:41.123,40.0,19.52,9.2,0.33,0.64,0.69,-0.44,-0.36,-1.09,9.02,3.85,-4.08,0.06,0.15,0.95,-1.17,1.36,-0.05
733,1900-01-01 17:16:41.169,39.97,19.41,9.19,0.33,0.64,0.69,-0.53,-0.49,-1.02,9.09,3.95,-4.1,0.07,0.15,0.95,-1.15,1.23,-0.05
734,1900-01-01 17:16:41.266,39.9,19.58,9.2,0.34,0.64,0.69,-0.3,-0.69,-1.0,9.21,3.91,-4.12,0.07,0.15,0.95,-1.11,1.1,-0.07
735,1900-01-01 17:16:41.357,39.92,19.56,9.2,0.34,0.64,0.69,-0.59,-0.45,-0.94,9.04,3.96,-4.14,0.07,0.15,0.95,-1.24,1.13,-0.05
736,1900-01-01 17:16:41.404,39.94,19.65,9.22,0.34,0.64,0.69,-0.58,-0.43,-0.98,9.11,4.0,-4.15,0.07,0.15,0.95,-1.2,1.27,-0.05
737,1900-01-01 17:16:41.498,40.01,19.58,9.23,0.34,0.64,0.69,-0.57,-0.27,-0.91,9.11,4.0,-4.17,0.07,0.15,0.95,-1.31,1.18,0.04
738,1900-01-01 17:16:41.546,39.94,19.55,9.25,0.34,0.64,0.69,-0.53,-0.32,-1.0,9.25,3.99,-4.17,0.07,0.15,0.95,-1.23,1.22,-0.02
739,1900-01-01 17:16:41.640,39.97,19.53,9.25,0.33,0.64,0.69,-0.56,-0.44,-1.02,8.91,4.12,-4.18,0.07,0.15,0.95,-1.25,1.19,-0.08
740,1900-01-01 17:16:41.735,40.09,19.59,9.26,0.34,0.65,0.69,-0.58,-0.34,-1.2,9.32,3.9,-4.2,0.07,0.16,0.95,-1.3,1.28,-0.08
741,1900-01-01 17:16:41.781,39.86,19.55,9.23,0.34,0.64,0.69,-0.63,-0.18,-1.11,9.1,4.05,-4.22,0.07,0.15,0.95,-1.27,1.4,-0.05
742,1900-01-01 17:16:41.875,40.08,19.48,9.22,0.33,0.64,0.69,-0.53,-0.26,-1.15,9.3,3.91,-4.24,0.07,0.16,0.95,-1.24,1.3,-0.05
743,1900-01-01 17:16:41.970,39.98,19.48,9.21,0.33,0.64,0.69,-0.51,-0.47,-1.02,9.19,4.02,-4.26,0.07,0.15,0.95,-1.24,1.18,-0.07
744,1900-01-01 17:16:42.016,39.95,19.51,9.21,0.33,0.64,0.69,-0.56,-0.39,-1.05,9.19,4.0,-4.27,0.07,0.15,0.95,-1.28,1.25,-0.05
745,1900-01-01 17:16:42.114,39.93,19.57,9.21,0.33,0.64,0.69,-0.53,-0.43,-1.06,9.18,4.03,-4.29,0.07,0.15,0.95,-1.24,1.2,-0.05
746,1900-01-01 17:16:42.157,39.94,19.54,9.2,0.33,0.64,0.69,-0.56,-0.23,-1.05,9.16,3.96,-4.31,0.07,0.15,0.95,-1.3,1.24,-0.02
747,1900-01-01 17:16:42.251,39.95,19.55,9.2,0.34,0.64,0.69,-0.6,-0.18,-1.02,9.22,3.91,-4.32,0.07,0.15,0.95,-1.34,1.24,-0.02
748,1900-01-01 17:16:42.346,40.05,19.48,9.21,0.33,0.64,0.69,-0.51,-0.27,-0.94,9.25,4.01,-4.33,0.07,0.15,0.95,-1.4,1.12,0.03
749,1900-01-01 17:16:42.393,39.93,19.66,9.22,0.34,0.64,0.69,-0.34,-0.42,-0.91,9.38,4.04,-4.33,0.07,0.16,0.95,-1.44,1.06,0.05
750,1900-01-01 17:16:42.489,40.05,19.47,9.24,0.33,0.64,0.69,-0.46,-0.19,-0.82,9.14,4.01,-4.33,0.07,0.15,0.95,-1.54,1.1,0.07
751,1900-01-01 17:16:42.535,39.97,19.61,9.28,0.34,0.64,0.69,-0.47,0.02,-0.89,9.17,4.01,-4.33,0.07,0.15,0.95,-1.43,1.34,0.14
752,1900-01-01 17:16:42.629,40.0,19.44,9.3,0.33,0.64,0.69,-0.47,0.05,-0.93,9.05,4.02,-4.32,0.07,0.15,0.95,-1.5,1.32,0.09
753,1900-01-01 17:16:42.723,40.07,19.48,9.32,0.33,0.64,0.69,-0.42,-0.11,-0.92,9.21,4.0,-4.31,0.07,0.15,0.95,-1.44,1.21,0.09
754,1900-01-01 17:16:42.770,39.94,19.47,9.34,0.33,0.64,0.69,-0.44,-0.17,-0.96,9.02,4.0,-4.31,0.07,0.15,0.95,-1.34,1.36,0.06
755,1900-01-01 17:16:42.869,39.99,19.58,9.35,0.34,0.64,0.69,-0.35,-0.14,-0.82,9.08,4.02,-4.31,0.07,0.15,0.95,-1.41,1.33,0.12
756,1900-01-01 17:16:42.914,40.13,19.32,9.38,0.33,0.64,0.69,-0.4,-0.18,-0.96,8.88,3.9,-4.3,0.07,0.15,0.95,-1.31,1.34,0.03
757,1900-01-01 17:16:43.006,40.11,19.52,9.4,0.33,0.65,0.69,-0.51,-0.24,-1.02,9.1,3.98,-4.3,0.07,0.15,0.95,-1.37,1.31,0.02
758,1900-01-01 17:16:43.100,40.05,19.38,9.4,0.33,0.65,0.69,-0.58,-0.16,-1.07,9.03,3.96,-4.31,0.07,0.15,0.95,-1.29,1.35,-0.05
759,1900-01-01 17:16:43.148,40.07,19.46,9.4,0.33,0.64,0.69,-0.68,-0.19,-1.02,8.94,3.98,-4.32,0.07,0.15,0.95,-1.24,1.35,-0.02
760,1900-01-01 17:16:43.244,39.98,19.41,9.4,0.33,0.64,0.69,-0.56,-0.46,-1.18,9.03,3.96,-4.33,0.07,0.15,0.95,-1.25,1.24,-0.1
761,1900-01-01 17:16:43.290,39.94,19.37,9.38,0.33,0.64,0.69,-0.7,-0.37,-1.1,8.86,3.98,-4.36,0.07,0.15,0.95,-1.19,1.22,-0.06
762,1900-01-01 17:16:43.386,40.06,19.26,9.37,0.33,0.64,0.69,-0.63,-0.63,-1.14,9.03,3.81,-4.37,0.06,0.15,0.95,-1.12,1.17,-0.09
763,1900-01-01 17:16:43.481,39.84,19.61,9.35,0.34,0.64,0.69,-0.44,-0.63,-1.03,9.12,4.21,-4.4,0.07,0.15,0.95,-1.25,1.15,-0.08
764,1900-01-01 17:16:43.528,40.1,19.33,9.36,0.33,0.64,0.69,-0.56,-0.37,-0.99,9.02,3.99,-4.42,0.07,0.15,0.95,-1.3,1.18,-0.02
765,1900-01-01 17:16:43.638,40.02,19.58,9.36,0.34,0.65,0.69,-0.53,-0.13,-0.91,9.28,3.98,-4.43,0.07,0.16,0.95,-1.44,1.26,0.06
766,1900-01-01 17:16:43.716,40.07,19.25,9.38,0.33,0.64,0.69,-0.49,-0.24,-0.86,9.03,3.88,-4.43,0.07,0.15,0.95,-1.31,1.09,0.05
767,1900-01-01 17:16:43.850,39.96,19.53,9.41,0.34,0.65,0.69,-0.41,-0.39,-0.92,9.26,3.96,-4.43,0.07,0.16,0.95,-1.34,1.21,0.01
768,1900-01-01 17:16:43.850,40.15,19.21,9.43,0.33,0.65,0.69,-0.45,-0.24,-1.01,9.12,3.8,-4.44,0.06,0.15,0.95,-1.26,1.31,0.02
769,1900-01-01 17:16:43.937,40.07,19.58,9.44,0.34,0.65,0.69,-0.56,-0.34,-0.97,9.18,4.09,-4.44,0.07,0.15,0.95,-1.37,1.17,-0.06
770,1900-01-01 17:16:45.156,39.87,19.32,9.45,0.33,0.64,0.69,-0.53,-0.31,-1.06,9.06,3.92,-4.46,0.07,0.15,0.95,-1.24,1.27,-0.03
771,1900-01-01 17:16:45.156,40.11,19.54,9.44,0.34,0.65,0.69,-0.49,-0.23,-1.08,9.16,3.94,-4.47,0.07,0.15,0.95,-1.37,1.34,-0.02
772,1900-01-01 17:16:45.156,40.0,19.36,9.44,0.33,0.65,0.69,-0.63,0.01,-1.4,9.19,3.85,-4.48,0.06,0.15,0.95,-1.51,1.53,-0.14
773,1900-01-01 17:16:45.156,39.87,19.51,9.38,0.33,0.64,0.69,-0.72,-0.22,-0.53,9.27,4.03,-4.51,0.07,0.16,0.95,-1.16,1.02,0.21
774,1900-01-01 17:16:45.156,39.95,19.38,9.46,0.34,0.65,0.7,-1.37,0.32,0.18,9.07,4.18,-4.49,0.07,0.15,0.95,-1.95,0.68,0.42
775,1900-01-01 17:16:45.156,39.93,19.06,9.65,0.33,0.65,0.7,-1.27,1.01,-0.73,8.51,4.04,-4.43,0.07,0.14,0.95,-1.57,1.44,0.24
776,1900-01-01 17:16:45.156,40.21,19.02,9.7,0.33,0.65,0.69,-0.89,0.63,-2.44,8.77,3.91,-4.41,0.07,0.15,0.95,-0.94,2.18,-0.44
777,1900-01-01 17:16:45.156,39.93,19.24,9.48,0.33,0.65,0.7,0.09,-0.19,-3.44,9.5,4.1,-4.48,0.07,0.16,0.95,-1.3,2.22,-0.81
778,1900-01-01 17:16:45.156,40.57,18.77,9.12,0.32,0.65,0.69,-0.79,-0.19,-4.55,9.02,3.41,-4.61,0.06,0.15,0.95,-3.8,0.89,-1.6
779,1900-01-01 17:16:45.156,37.96,17.84,8.59,0.31,0.62,0.73,-1.62,1.53,-2.35,7.85,3.77,-4.86,0.06,0.13,0.95,-1.36,2.18,0.02
780,1900-01-01 17:16:45.156,40.0,17.5,8.39,0.3,0.63,0.69,-2.22,3.09,0.42,7.92,3.27,-4.87,0.05,0.13,0.95,-0.39,2.69,1.1
781,1900-01-01 17:16:45.156,41.17,18.39,8.61,0.31,0.65,0.68,-0.11,-2.08,0.27,9.78,3.36,-4.71,0.06,0.16,0.95,-1.64,-0.67,0.11
782,1900-01-01 17:16:45.156,39.32,18.32,8.81,0.32,0.64,0.72,-1.2,-1.31,-0.58,8.84,3.96,-4.7,0.07,0.15,0.95,-2.12,-0.01,-0.34
783,1900-01-01 17:16:45.156,39.17,17.33,8.88,0.3,0.63,0.71,-1.27,1.03,-2.39,7.51,3.75,-4.76,0.06,0.12,0.95,-1.53,2.32,-0.34
784,1900-01-01 17:16:45.156,39.36,17.89,8.68,0.3,0.63,0.7,-0.15,0.47,-1.37,8.7,3.62,-4.82,0.06,0.15,0.95,-0.53,2.08,0.24
785,1900-01-01 17:16:45.171,39.93,17.82,8.63,0.31,0.64,0.7,0.25,-0.79,0.13,8.65,3.45,-4.79,0.06,0.14,0.95,-0.97,0.77,0.43
786,1900-01-01 17:16:45.231,39.94,18.04,8.81,0.31,0.65,0.71,0.15,-1.34,-0.37,8.8,3.81,-4.74,0.06,0.15,0.95,-0.97,0.84,0.11
787,1900-01-01 17:16:45.431,39.53,17.94,8.91,0.31,0.63,0.7,-0.63,-1.02,-0.58,8.61,3.47,-4.73,0.06,0.14,0.95,-1.05,0.89,0.06
788,1900-01-01 17:16:45.431,39.38,18.64,8.98,0.32,0.64,0.71,-0.11,-0.88,-0.51,8.97,3.99,-4.73,0.07,0.15,0.95,-1.23,0.89,0.16
789,1900-01-01 17:16:45.431,39.42,18.09,9.06,0.31,0.64,0.71,-0.63,0.32,-0.4,8.48,3.66,-4.71,0.06,0.14,0.95,-1.47,1.2,0.27
790,1900-01-01 17:16:45.517,39.8,18.44,9.16,0.32,0.64,0.7,-0.29,-0.17,-0.88,8.89,3.85,-4.68,0.06,0.15,0.95,-1.09,1.37,0.04
791,1900-01-01 17:16:45.610,39.63,18.21,9.18,0.31,0.64,0.7,-0.29,-0.87,-1.08,8.87,3.64,-4.68,0.06,0.15,0.95,-1.06,1.04,-0.13
792,1900-01-01 17:16:45.658,39.47,18.48,9.18,0.32,0.64,0.7,-0.09,-0.88,-1.11,8.97,3.87,-4.71,0.07,0.15,0.95,-1.14,1.07,-0.05
793,1900-01-01 17:16:45.752,39.6,18.35,9.17,0.31,0.64,0.7,-0.34,0.09,-0.66,8.75,3.73,-4.73,0.06,0.15,0.95,-1.3,1.3,0.18
794,1900-01-01 17:16:45.799,39.62,18.42,9.22,0.32,0.64,0.7,-0.44,-0.08,-0.82,8.75,3.76,-4.71,0.06,0.15,0.95,-1.3,1.21,0.14
795,1900-01-01 17:16:45.894,39.57,18.52,9.26,0.32,0.64,0.7,-0.42,-0.25,-0.63,8.81,3.83,-4.7,0.06,0.15,0.95,-1.3,1.1,0.18
796,1900-01-01 17:16:45.988,39.88,18.56,9.32,0.32,0.64,0.7,-0.12,-0.45,-0.88,9.02,3.88,-4.68,0.07,0.15,0.95,-1.36,1.12,0.03
797,1900-01-01 17:16:46.036,39.77,18.41,9.35,0.32,0.64,0.7,-0.18,-0.43,-1.02,8.7,3.83,-4.68,0.06,0.15,0.95,-1.35,1.24,0.01
798,1900-01-01 17:16:46.152,39.77,18.54,9.35,0.32,0.64,0.7,-0.24,-0.18,-0.81,8.89,3.92,-4.69,0.07,0.15,0.95,-1.31,1.25,0.14
799,1900-01-01 17:16:46.175,39.94,18.31,9.39,0.31,0.64,0.7,-0.25,-0.27,-1.0,8.72,3.82,-4.68,0.06,0.15,0.95,-1.31,1.37,0.08
800,1900-01-01 17:16:46.270,39.66,18.72,9.39,0.32,0.64,0.7,0.02,-0.33,-0.83,8.81,3.81,-4.68,0.06,0.15,0.95,-1.33,1.28,0.15
801,1900-01-01 17:16:46.362,39.85,18.54,9.43,0.32,0.64,0.7,-0.27,-0.12,-0.86,8.52,3.89,-4.66,0.07,0.14,0.95,-1.31,1.35,0.11
802,1900-01-01 17:16:46.410,40.02,18.73,9.45,0.32,0.65,0.7,-0.14,-0.21,-0.67,9.01,3.99,-4.65,0.07,0.15,0.95,-1.48,1.13,0.2
803,1900-01-01 17:16:46.503,40.04,18.42,9.51,0.32,0.65,0.7,-0.24,-0.14,-0.56,8.72,3.71,-4.63,0.06,0.15,0.95,-1.42,1.2,0.21
804,1900-01-01 17:16:46.596,40.29,18.55,9.58,0.32,0.65,0.7,-0.68,0.13,-0.95,8.77,3.8,-4.61,0.06,0.15,0.95,-1.51,1.37,0.05
805,1900-01-01 17:16:46.643,40.21,18.58,9.6,0.32,0.64,0.69,-0.39,-0.92,-1.34,8.91,3.69,-4.61,0.06,0.15,0.95,-1.09,1.1,-0.29
806,1900-01-01 17:16:46.738,39.81,18.54,9.55,0.32,0.64,0.7,-0.15,-1.45,-1.15,8.65,3.92,-4.66,0.07,0.14,0.95,-0.98,0.9,-0.27
807,1900-01-01 17:16:46.784,39.62,18.62,9.53,0.32,0.64,0.7,-0.17,-0.47,-0.63,8.7,3.84,-4.71,0.06,0.15,0.95,-0.96,1.31,0.21
808,1900-01-01 17:16:46.880,40.24,18.72,9.6,0.32,0.65,0.69,-0.5,0.08,-0.36,8.71,4.02,-4.69,0.07,0.15,0.95,-1.21,1.34,0.4
809,1900-01-01 17:16:46.975,40.3,18.56,9.7,0.32,0.64,0.69,-0.24,-0.98,-0.59,8.73,3.81,-4.64,0.06,0.15,0.95,-0.82,1.16,0.08
810,1900-01-01 17:16:47.022,39.93,19.07,9.77,0.33,0.64,0.7,0.1,-2.06,-0.63,9.1,4.22,-4.63,0.07,0.15,0.95,-0.92,0.77,-0.1
811,1900-01-01 17:16:47.157,39.94,19.07,9.83,0.33,0.65,0.7,-0.46,-0.59,-0.55,8.77,4.0,-4.66,0.07,0.15,0.95,-1.42,0.96,0.12
812,1900-01-01 17:16:47.157,40.06,19.02,9.91,0.33,0.64,0.69,-0.57,-0.27,-0.55,8.94,4.09,-4.65,0.07,0.15,0.95,-1.08,1.21,0.21
813,1900-01-01 17:16:47.260,40.25,19.25,9.98,0.33,0.65,0.69,-0.5,-0.53,-0.7,9.07,4.06,-4.62,0.07,0.15,0.95,-1.37,1.02,0.07
814,1900-01-01 17:16:47.307,40.04,19.19,10.04,0.33,0.64,0.69,-0.45,-0.56,-0.79,8.86,4.16,-4.62,0.07,0.15,0.95,-1.31,1.08,0.0
815,1900-01-01 17:16:47.402,40.09,19.1,10.07,0.33,0.64,0.69,-0.46,-0.31,-0.95,9.0,4.04,-4.63,0.07,0.15,0.95,-1.3,1.23,0.0
816,1900-01-01 17:16:47.497,39.94,19.33,10.09,0.33,0.64,0.69,-0.51,-0.37,-1.06,9.12,4.11,-4.64,0.07,0.15,0.95,-1.21,1.32,-0.05
817,1900-01-01 17:16:47.543,39.97,19.3,10.08,0.33,0.64,0.69,-0.5,-0.25,-1.02,8.79,4.1,-4.65,0.07,0.15,0.95,-1.31,1.3,-0.02
818,1900-01-01 17:16:47.637,40.1,19.24,10.09,0.33,0.65,0.69,-0.61,-0.21,-0.98,9.08,4.09,-4.66,0.07,0.15,0.95,-1.28,1.28,0.01
819,1900-01-01 17:16:47.730,39.87,19.19,10.09,0.33,0.64,0.7,-0.51,-0.18,-0.92,9.04,4.09,-4.67,0.07,0.15,0.95,-1.34,1.27,0.08
820,1900-01-01 17:16:47.777,40.04,19.13,10.11,0.33,0.64,0.69,-0.4,-0.34,-0.89,9.01,4.13,-4.67,0.07,0.15,0.95,-1.31,1.18,0.05
821,1900-01-01 17:16:47.871,39.99,19.22,10.14,0.33,0.64,0.69,-0.5,-0.36,-0.89,8.96,4.12,-4.67,0.07,0.15,0.95,-1.33,1.16,0.02
822,1900-01-01 17:16:47.922,39.96,19.1,10.16,0.33,0.64,0.7,-0.4,-0.3,-1.02,8.93,4.08,-4.67,0.07,0.15,0.95,-1.25,1.35,0.02
823,1900-01-01 17:16:48.012,40.03,19.43,10.16,0.33,0.64,0.69,-0.48,-0.38,-0.79,9.14,4.25,-4.68,0.07,0.15,0.95,-1.37,1.13,0.05
824,1900-01-01 17:16:48.107,39.94,19.14,10.2,0.33,0.64,0.69,-0.46,-0.53,-0.75,8.94,4.12,-4.68,0.07,0.15,0.95,-1.32,1.01,0.07
825,1900-01-01 17:16:48.186,39.93,19.3,10.24,0.33,0.64,0.69,-0.47,-0.38,-0.82,8.78,4.29,-4.68,0.07,0.15,0.95,-1.3,1.21,0.03
826,1900-01-01 17:16:48.246,40.08,19.22,10.28,0.33,0.65,0.69,-0.59,-0.14,-0.69,8.81,4.14,-4.68,0.07,0.15,0.95,-1.38,1.23,0.12
827,1900-01-01 17:16:49.840,40.0,19.39,10.33,0.33,0.65,0.69,-0.48,-0.24,-0.95,8.98,4.27,-4.67,0.07,0.15,0.95,-1.33,1.19,-0.02
828,1900-01-01 17:16:49.840,40.03,19.28,10.34,0.33,0.64,0.69,-0.49,-0.32,-0.93,8.87,4.18,-4.68,0.07,0.15,0.95,-1.43,1.14,0.02
829,1900-01-01 17:16:49.840,39.94,19.33,10.36,0.33,0.64,0.69,-0.44,-0.02,-1.07,9.11,4.18,-4.69,0.07,0.15,0.95,-1.37,1.36,0.06
830,1900-01-01 17:16:49.840,40.08,19.18,10.36,0.33,0.64,0.69,-0.64,-0.1,-1.01,8.9,4.12,-4.69,0.07,0.15,0.95,-1.3,1.31,0.0
831,1900-01-01 17:16:49.840,39.87,19.39,10.36,0.33,0.64,0.69,-0.5,-0.26,-1.23,9.17,4.24,-4.7,0.07,0.15,0.95,-1.21,1.38,-0.08
832,1900-01-01 17:16:49.840,39.84,19.21,10.33,0.33,0.64,0.69,-0.52,-0.07,-1.27,8.84,4.2,-4.72,0.07,0.15,0.95,-1.4,1.44,-0.08
833,1900-01-01 17:16:49.840,40.0,19.12,10.3,0.33,0.64,0.69,-0.55,-0.09,-1.4,8.93,4.22,-4.74,0.07,0.15,0.95,-1.47,1.35,-0.14
834,1900-01-01 17:16:49.840,39.74,19.04,10.24,0.33,0.64,0.7,-0.63,0.12,-1.34,8.71,4.15,-4.77,0.07,0.15,0.95,-1.46,1.4,-0.15
835,1900-01-01 17:16:49.840,39.98,19.0,10.2,0.33,0.64,0.69,-0.56,0.02,-1.11,8.85,4.1,-4.8,0.07,0.15,0.95,-1.46,1.34,0.02
836,1900-01-01 17:16:49.840,39.91,18.97,10.19,0.33,0.64,0.69,-0.62,0.15,-0.95,8.67,4.1,-4.8,0.07,0.15,0.95,-1.34,1.33,0.05
837,1900-01-01 17:16:49.840,39.99,18.82,10.2,0.32,0.64,0.7,-0.38,-0.1,-0.97,8.68,4.18,-4.8,0.07,0.15,0.95,-1.35,1.32,0.04
838,1900-01-01 17:16:49.840,40.06,18.72,10.21,0.32,0.64,0.69,-0.42,0.14,-1.02,8.68,4.02,-4.81,0.07,0.15,0.95,-1.34,1.34,0.0
839,1900-01-01 17:16:49.840,39.99,18.8,10.22,0.32,0.64,0.69,-0.61,0.03,-1.22,8.78,4.1,-4.81,0.07,0.15,0.95,-1.32,1.39,-0.03
840,1900-01-01 17:16:49.840,40.03,18.84,10.19,0.32,0.64,0.69,-0.52,-0.31,-1.0,8.81,3.9,-4.83,0.07,0.15,0.95,-1.1,1.41,-0.01
841,1900-01-01 17:16:49.840,40.14,18.87,10.2,0.32,0.65,0.69,-0.38,-0.7,-1.0,8.91,3.92,-4.84,0.07,0.15,0.95,-1.12,1.15,-0.11
842,1900-01-01 17:16:49.840,40.02,18.8,10.2,0.32,0.65,0.7,-0.37,-0.89,-1.23,8.86,4.05,-4.86,0.07,0.15,0.95,-1.04,1.24,-0.19
843,1900-01-01 17:16:49.840,39.73,18.83,10.17,0.32,0.64,0.7,-0.66,-0.05,-1.21,8.83,4.1,-4.9,0.07,0.15,0.95,-1.18,1.45,0.0
844,1900-01-01 17:16:49.840,40.02,18.78,10.15,0.32,0.64,0.69,-0.65,0.05,-0.98,8.83,3.91,-4.91,0.07,0.15,0.95,-1.34,1.47,0.1
845,1900-01-01 17:16:49.840,40.22,18.75,10.16,0.32,0.64,0.69,-0.59,-0.35,-1.2,8.88,3.98,-4.9,0.07,0.15,0.95,-1.27,1.24,-0.12
846,1900-01-01 17:16:49.840,39.79,18.81,10.13,0.32,0.64,0.7,-0.56,-0.36,-1.12,8.91,3.97,-4.93,0.07,0.15,0.95,-1.27,1.25,-0.08
847,1900-01-01 17:16:49.851,40.04,18.67,10.12,0.32,0.64,0.7,-0.33,-0.09,-1.32,8.86,3.87,-4.95,0.06,0.15,0.95,-1.23,1.39,-0.09
848,1900-01-01 17:16:49.909,40.04,18.64,10.08,0.32,0.64,0.7,-0.5,-0.31,-1.15,8.89,3.91,-4.97,0.07,0.15,0.95,-1.22,1.29,-0.08
849,1900-01-01 17:16:50.004,40.06,18.71,10.06,0.32,0.65,0.7,-0.49,-0.21,-1.2,9.04,3.9,-4.99,0.07,0.15,0.95,-1.26,1.35,-0.05
850,1900-01-01 17:16:50.052,40.08,18.76,10.04,0.32,0.65,0.7,-0.73,-0.18,-1.04,9.01,3.97,-5.01,0.07,0.15,0.95,-1.39,1.29,-0.07
851,1900-01-01 17:16:50.145,39.98,18.59,10.04,0.32,0.64,0.7,-0.53,-0.24,-1.35,8.91,3.93,-5.03,0.07,0.15,0.95,-1.37,1.43,-0.12
852,1900-01-01 17:16:50.239,40.1,18.51,9.99,0.32,0.65,0.7,-0.64,-0.18,-1.28,8.91,3.89,-5.05,0.07,0.15,0.95,-1.38,1.4,-0.08
853,1900-01-01 17:16:50.287,40.01,18.59,9.95,0.32,0.64,0.7,-0.53,-0.03,-1.1,8.8,3.8,-5.07,0.06,0.15,0.95,-1.51,1.3,0.04
854,1900-01-01 17:16:50.381,39.9,18.47,9.94,0.32,0.64,0.7,-0.53,0.11,-0.86,8.84,3.8,-5.08,0.06,0.15,0.95,-1.4,1.34,0.11
855,1900-01-01 17:16:50.474,40.11,18.39,9.97,0.32,0.65,0.7,-0.46,-0.01,-1.06,8.75,3.84,-5.07,0.06,0.15,0.95,-1.36,1.36,0.04
856,1900-01-01 17:16:50.524,40.0,18.23,9.97,0.31,0.64,0.7,-0.42,-0.08,-1.03,8.72,3.76,-5.07,0.06,0.15,0.95,-1.37,1.35,0.02
857,1900-01-01 17:16:50.615,39.84,18.47,9.97,0.32,0.64,0.7,-0.4,-0.05,-0.94,8.82,3.86,-5.08,0.06,0.15,0.95,-1.45,1.27,0.08
858,1900-01-01 17:16:50.663,40.05,18.16,9.99,0.31,0.64,0.7,-0.49,0.21,-0.96,8.54,3.64,-5.07,0.06,0.14,0.95,-1.42,1.41,0.1
859,1900-01-01 17:16:50.758,40.11,18.52,10.0,0.32,0.65,0.7,-0.53,-0.02,-0.95,8.82,3.87,-5.07,0.06,0.15,0.95,-1.38,1.38,0.03
860,1900-01-01 17:16:50.821,40.07,18.09,10.01,0.31,0.64,0.7,-0.53,-0.17,-1.21,8.74,3.71,-5.07,0.06,0.15,0.95,-1.34,1.32,-0.08
861,1900-01-01 17:16:50.898,39.93,18.31,9.99,0.31,0.64,0.7,-0.59,-0.12,-1.02,8.64,3.86,-5.09,0.06,0.14,0.95,-1.38,1.32,-0.01
862,1900-01-01 17:16:50.992,40.12,18.15,9.99,0.31,0.64,0.7,-0.47,-0.25,-1.08,8.74,3.67,-5.1,0.06,0.15,0.95,-1.23,1.33,-0.04
863,1900-01-01 17:16:51.039,39.94,18.32,9.99,0.31,0.64,0.7,-0.51,-0.32,-1.15,8.63,3.84,-5.12,0.06,0.14,0.95,-1.28,1.32,-0.08
864,1900-01-01 17:16:51.135,40.08,18.02,9.97,0.31,0.64,0.7,-0.27,-0.55,-1.42,8.53,3.53,-5.14,0.06,0.14,0.95,-1.07,1.44,-0.15
865,1900-01-01 17:16:51.229,39.97,18.93,9.91,0.33,0.64,0.7,-0.59,-1.11,-0.07,9.52,3.92,-5.17,0.07,0.16,0.95,-1.18,0.36,0.18
866,1900-01-01 17:16:51.276,40.1,18.13,10.06,0.31,0.65,0.7,-0.86,-0.54,-0.37,8.46,3.76,-5.15,0.06,0.14,0.95,-1.81,0.63,0.04
867,1900-01-01 17:16:53.427,40.11,18.05,10.16,0.31,0.65,0.7,-0.56,-0.26,-1.53,8.29,3.9,-5.15,0.07,0.14,0.95,-0.88,1.73,-0.2
868,1900-01-01 17:16:53.427,39.99,18.61,10.09,0.32,0.64,0.69,-0.28,-0.53,-1.63,9.07,3.9,-5.19,0.07,0.15,0.95,-1.05,1.59,-0.13
869,1900-01-01 17:16:53.427,40.06,18.78,10.0,0.32,0.65,0.7,-0.67,0.08,-0.58,9.35,3.85,-5.22,0.06,0.16,0.95,-2.1,0.77,0.27
870,1900-01-01 17:16:53.427,40.29,17.78,10.07,0.3,0.64,0.7,-0.36,0.08,-0.75,8.54,3.56,-5.19,0.06,0.14,0.94,-1.2,1.44,0.12
871,1900-01-01 17:16:53.427,40.3,18.24,10.11,0.31,0.65,0.69,-0.02,-0.86,-1.4,9.26,3.66,-5.18,0.06,0.16,0.95,-0.73,1.44,-0.17
872,1900-01-01 17:16:53.427,39.76,18.8,10.06,0.32,0.64,0.7,-0.36,-0.45,-1.11,9.33,3.75,-5.21,0.06,0.16,0.95,-1.53,1.13,-0.02
873,1900-01-01 17:16:53.427,39.86,17.97,10.05,0.31,0.64,0.7,-0.63,0.22,-0.73,8.48,3.63,-5.22,0.06,0.14,0.95,-1.23,1.33,0.22
874,1900-01-01 17:16:53.427,40.2,18.36,10.1,0.32,0.65,0.7,-0.37,-0.57,-0.88,8.9,3.82,-5.2,0.06,0.15,0.95,-0.89,1.37,-0.02
875,1900-01-01 17:16:53.427,39.88,18.55,10.12,0.32,0.64,0.7,-0.37,-0.6,-0.83,8.72,4.07,-5.21,0.07,0.15,0.95,-1.38,1.0,0.04
876,1900-01-01 17:16:53.427,39.99,18.23,10.15,0.31,0.64,0.7,-0.62,-0.17,-0.82,8.64,3.79,-5.21,0.06,0.14,0.95,-1.38,1.15,0.08
877,1900-01-01 17:16:53.427,40.19,18.36,10.19,0.32,0.65,0.7,-0.48,-0.21,-0.93,8.87,3.92,-5.21,0.07,0.15,0.95,-1.18,1.41,0.09
878,1900-01-01 17:16:53.427,40.35,18.48,10.2,0.32,0.65,0.69,-0.4,-0.35,-1.15,9.12,3.73,-5.2,0.06,0.15,0.95,-1.35,1.31,-0.1
879,1900-01-01 17:16:53.427,39.98,18.35,10.19,0.31,0.64,0.7,-0.53,-0.24,-1.36,8.66,3.78,-5.23,0.06,0.15,0.95,-1.34,1.45,-0.11
880,1900-01-01 17:16:53.427,39.97,18.75,10.14,0.32,0.64,0.7,-0.56,-0.36,-0.46,9.29,3.93,-5.25,0.07,0.16,0.95,-1.17,0.98,0.22
881,1900-01-01 17:16:53.427,40.13,18.29,10.23,0.32,0.65,0.7,-0.8,-0.25,-0.49,8.6,4.0,-5.23,0.07,0.14,0.95,-1.61,0.83,0.08
882,1900-01-01 17:16:53.427,40.42,18.35,10.31,0.32,0.65,0.7,-0.42,-0.54,-1.37,8.97,3.65,-5.22,0.06,0.15,0.95,-1.25,1.5,-0.27
883,1900-01-01 17:16:53.427,39.98,18.29,10.26,0.31,0.64,0.7,-0.42,-0.6,-1.83,8.99,3.91,-5.27,0.07,0.15,0.95,-0.63,1.7,-0.3
884,1900-01-01 17:16:53.427,39.91,18.64,10.14,0.32,0.64,0.7,-0.61,0.08,-1.04,8.99,3.98,-5.33,0.07,0.15,0.94,-1.84,1.24,0.03
885,1900-01-01 17:16:53.427,40.13,18.11,10.14,0.31,0.64,0.7,-0.34,-0.16,-0.95,9.01,3.73,-5.33,0.06,0.15,0.95,-0.91,1.39,0.08
886,1900-01-01 17:16:53.427,40.16,18.4,10.15,0.32,0.64,0.7,-0.48,-0.47,-1.07,8.7,3.7,-5.32,0.06,0.15,0.95,-1.27,1.24,-0.11
887,1900-01-01 17:16:53.427,40.04,18.54,10.15,0.32,0.65,0.7,-0.32,-0.62,-1.08,9.14,3.89,-5.35,0.07,0.15,0.95,-1.15,1.16,-0.05
888,1900-01-01 17:16:53.427,39.94,18.17,10.14,0.31,0.64,0.7,-0.6,-0.08,-1.02,8.81,3.63,-5.37,0.06,0.15,0.95,-1.26,1.31,0.04
889,1900-01-01 17:16:53.427,40.13,18.46,10.15,0.32,0.65,0.7,-0.44,-0.44,-0.82,8.97,3.97,-5.37,0.07,0.15,0.95,-1.19,1.16,0.02
890,1900-01-01 17:16:53.427,40.01,18.27,10.18,0.31,0.64,0.7,-0.62,-0.34,-1.04,8.78,3.68,-5.37,0.06,0.15,0.95,-1.3,1.32,-0.08
891,1900-01-01 17:16:53.427,39.97,18.32,10.18,0.32,0.64,0.7,-0.63,-0.37,-1.15,8.85,3.95,-5.4,0.07,0.15,0.95,-1.21,1.27,-0.08
892,1900-01-01 17:16:53.427,39.93,18.41,10.17,0.32,0.64,0.7,-0.71,-0.12,-1.1,8.9,3.69,-5.42,0.06,0.15,0.95,-1.51,1.31,-0.04
893,1900-01-01 17:16:53.427,39.96,18.41,10.16,0.32,0.64,0.7,-0.66,-0.16,-0.92,8.81,3.94,-5.43,0.07,0.15,0.95,-1.36,1.12,0.01
894,1900-01-01 17:16:53.427,40.09,18.41,10.17,0.32,0.65,0.7,-0.44,-0.31,-0.84,9.0,3.72,-5.44,0.06,0.15,0.95,-1.58,1.06,-0.02
895,1900-01-01 17:16:53.482,39.72,18.32,10.2,0.31,0.64,0.7,-0.34,-0.31,-1.02,8.79,3.95,-5.45,0.07,0.15,0.95,-1.27,1.26,-0.03
896,1900-01-01 17:16:53.576,40.05,18.32,10.21,0.31,0.64,0.7,-0.47,0.15,-1.02,8.97,3.65,-5.46,0.06,0.15,0.95,-1.42,1.48,0.12
897,1900-01-01 17:16:53.623,40.01,18.42,10.21,0.31,0.64,0.7,-0.31,0.02,-0.88,8.71,3.86,-5.45,0.06,0.15,0.95,-1.34,1.28,0.13
898,1900-01-01 17:16:53.716,39.97,18.3,10.24,0.31,0.64,0.7,-0.38,-0.02,-0.85,8.85,3.61,-5.44,0.06,0.15,0.95,-1.44,1.31,0.12
899,1900-01-01 17:16:53.843,39.8,18.08,10.27,0.31,0.64,0.7,-0.53,0.03,-0.9,8.61,3.78,-5.43,0.06,0.14,0.95,-1.32,1.34,0.12
900,1900-01-01 17:16:53.857,40.1,18.36,10.29,0.32,0.65,0.7,-0.35,-0.17,-0.89,8.85,3.79,-5.42,0.06,0.15,0.95,-1.37,1.41,0.05
901,1900-01-01 17:16:53.950,39.87,18.26,10.31,0.31,0.64,0.7,-0.4,-0.16,-0.92,8.63,3.86,-5.42,0.06,0.14,0.95,-1.23,1.25,0.09
902,1900-01-01 17:16:54.044,39.95,18.29,10.33,0.31,0.64,0.7,-0.43,-0.2,-0.99,8.66,3.76,-5.42,0.06,0.14,0.95,-1.36,1.37,0.02
903,1900-01-01 17:16:54.091,40.09,17.95,10.34,0.31,0.64,0.7,-0.39,-0.37,-1.11,8.56,3.78,-5.42,0.06,0.14,0.95,-1.11,1.34,-0.08
904,1900-01-01 17:16:54.186,40.09,18.37,10.32,0.32,0.65,0.7,-0.39,-0.53,-1.11,9.0,3.79,-5.44,0.06,0.15,0.95,-1.18,1.29,-0.06
905,1900-01-01 17:16:54.233,40.05,18.1,10.31,0.31,0.64,0.7,-0.34,-0.57,-0.81,8.7,3.72,-5.46,0.06,0.15,0.95,-1.04,1.15,0.06
906,1900-01-01 17:16:54.326,40.03,18.38,10.35,0.32,0.65,0.7,-0.41,-0.34,-0.74,8.91,3.87,-5.46,0.06,0.15,0.95,-1.33,1.15,0.12
907,1900-01-01 17:16:54.422,40.17,18.09,10.39,0.31,0.64,0.7,-0.63,-0.15,-0.9,8.55,3.68,-5.45,0.06,0.14,0.95,-1.3,1.26,0.06
908,1900-01-01 17:16:54.469,39.93,18.49,10.42,0.32,0.64,0.7,-0.38,-0.47,-1.15,8.79,3.74,-5.45,0.06,0.15,0.95,-1.27,1.19,-0.12
909,1900-01-01 17:16:54.564,39.99,18.24,10.4,0.31,0.64,0.7,-0.16,-0.85,-0.66,9.09,3.6,-5.47,0.06,0.15,0.95,-0.98,0.91,0.07
910,1900-01-01 17:16:54.656,39.95,18.77,10.46,0.33,0.65,0.7,-0.63,0.06,-0.76,9.11,4.02,-5.47,0.07,0.15,0.95,-1.88,1.06,0.15
911,1900-01-01 17:16:54.702,40.25,17.44,10.5,0.3,0.64,0.7,-0.74,0.31,-1.41,8.31,3.53,-5.46,0.06,0.14,0.95,-0.8,1.95,-0.11
912,1900-01-01 17:16:54.796,40.07,18.82,10.44,0.32,0.65,0.7,-0.73,-0.58,-1.57,9.19,3.91,-5.49,0.07,0.15,0.95,-1.26,1.31,-0.34
913,1900-01-01 17:16:54.843,39.79,18.3,10.36,0.31,0.64,0.7,-0.69,-0.34,-1.21,8.86,3.7,-5.54,0.06,0.15,0.95,-1.56,1.18,-0.11
914,1900-01-01 17:16:54.937,39.8,18.06,10.34,0.31,0.64,0.7,-0.84,0.21,-1.24,8.58,3.75,-5.57,0.06,0.14,0.95,-1.19,1.59,-0.08
915,1900-01-01 17:16:55.031,40.04,18.19,10.31,0.31,0.64,0.7,-0.85,-0.11,-1.25,8.91,3.72,-5.59,0.06,0.15,0.95,-1.27,1.35,-0.14
916,1900-01-01 17:16:55.076,39.85,18.22,10.27,0.31,0.64,0.7,-0.82,-0.52,-1.17,8.75,3.79,-5.62,0.06,0.15,0.95,-1.57,0.92,-0.22
917,1900-01-01 17:16:55.171,39.73,17.82,10.25,0.31,0.64,0.71,-0.79,-0.17,-1.34,8.31,3.76,-5.66,0.06,0.14,0.95,-1.28,1.53,-0.17
918,1900-01-01 17:16:55.218,40.04,18.14,10.21,0.31,0.64,0.7,-0.61,-0.09,-1.08,8.96,3.7,-5.7,0.06,0.15,0.95,-1.14,1.44,-0.02
919,1900-01-01 17:16:55.310,39.79,18.15,10.2,0.31,0.64,0.7,-0.31,-0.53,-0.85,8.69,3.81,-5.71,0.06,0.15,0.95,-1.26,1.14,0.01
920,1900-01-01 17:16:55.404,40.08,17.88,10.23,0.31,0.65,0.7,-0.4,-0.5,-0.81,8.76,3.54,-5.71,0.06,0.15,0.95,-1.23,1.17,0.06
921,1900-01-01 17:16:55.451,39.93,18.25,10.27,0.31,0.65,0.7,-0.52,-0.72,-0.72,8.95,3.69,-5.71,0.06,0.15,0.95,-1.23,1.27,0.07
922,1900-01-01 17:16:55.547,39.81,18.16,10.32,0.31,0.64,0.7,-0.4,-0.53,-0.63,8.82,3.69,-5.71,0.06,0.15,0.95,-1.26,0.97,0.14
923,1900-01-01 17:16:55.640,39.79,18.12,10.38,0.31,0.64,0.71,-0.42,-0.69,-0.66,8.69,3.65,-5.7,0.06,0.15,0.95,-1.23,1.07,0.09
924,1900-01-01 17:16:55.686,39.79,18.23,10.44,0.31,0.64,0.7,-0.38,-0.31,-0.8,8.77,3.79,-5.69,0.06,0.15,0.95,-1.3,1.31,0.09
925,1900-01-01 17:16:55.779,39.9,18.36,10.47,0.32,0.64,0.7,-0.79,0.12,-0.88,8.9,3.81,-5.69,0.06,0.15,0.95,-1.59,1.44,0.09
926,1900-01-01 17:16:55.848,39.87,18.1,10.5,0.31,0.64,0.7,-0.73,-0.21,-1.11,8.61,3.75,-5.68,0.06,0.14,0.95,-1.48,1.42,-0.05
927,1900-01-01 17:16:55.917,39.77,18.11,10.49,0.31,0.64,0.7,-0.5,-0.6,-0.85,8.59,3.69,-5.7,0.06,0.14,0.95,-1.21,1.26,0.03
928,1900-01-01 17:16:56.011,39.62,18.38,10.52,0.32,0.64,0.7,-0.45,-0.66,-0.63,8.85,3.68,-5.7,0.06,0.15,0.95,-1.28,1.07,0.14
929,1900-01-01 17:16:56.060,39.42,18.44,10.58,0.32,0.64,0.71,-0.53,-0.05,-0.47,8.48,3.9,-5.69,0.07,0.14,0.95,-1.33,1.24,0.29
930,1900-01-01 17:16:56.152,39.89,18.14,10.67,0.31,0.64,0.7,-0.44,0.04,-0.6,8.54,3.75,-5.65,0.06,0.14,0.95,-1.18,1.27,0.24
931,1900-01-01 17:16:56.245,39.88,18.57,10.74,0.32,0.64,0.7,-0.6,-0.28,-0.73,8.77,3.83,-5.63,0.06,0.15,0.95,-1.29,1.21,0.08
932,1900-01-01 17:16:56.293,39.93,18.2,10.79,0.31,0.64,0.7,-0.66,-0.18,-0.97,8.7,3.77,-5.62,0.06,0.15,0.95,-1.14,1.24,0.01
933,1900-01-01 17:16:56.387,39.82,18.39,10.8,0.32,0.64,0.7,-0.74,-0.08,-1.37,9.11,3.73,-5.63,0.06,0.15,0.95,-0.91,1.62,-0.11
934,1900-01-01 17:16:56.434,39.72,18.31,10.75,0.31,0.64,0.7,-0.82,0.15,-1.47,8.96,3.55,-5.66,0.06,0.15,0.95,-0.53,1.69,-0.2
935,1900-01-01 17:16:56.528,39.72,18.14,10.68,0.31,0.64,0.7,-0.55,-0.22,-1.24,9.2,3.46,-5.69,0.06,0.15,0.95,-0.61,1.6,-0.1
936,1900-01-01 17:16:56.621,39.54,18.11,10.65,0.31,0.63,0.7,-0.63,-0.4,-1.0,8.81,3.51,-5.72,0.06,0.15,0.95,-1.25,1.28,-0.02
937,1900-01-01 17:16:56.668,39.66,18.31,10.66,0.31,0.64,0.7,-0.47,-0.4,-1.08,9.04,3.62,-5.73,0.06,0.15,0.95,-0.89,1.28,0.03
938,1900-01-01 17:16:56.762,39.61,18.17,10.65,0.31,0.64,0.7,-0.54,-0.56,-0.79,8.91,3.56,-5.73,0.06,0.15,0.95,-0.76,1.07,0.01
939,1900-01-01 17:16:56.856,39.72,18.27,10.69,0.31,0.64,0.7,-0.43,-0.83,-0.85,9.24,3.57,-5.74,0.06,0.15,0.95,-0.56,0.97,0.05
940,1900-01-01 17:16:56.906,39.59,18.38,10.72,0.32,0.64,0.71,-0.26,-0.66,-0.82,9.49,3.64,-5.74,0.06,0.16,0.95,-0.74,1.02,0.02
941,1900-01-01 17:16:56.998,39.49,18.39,10.75,0.32,0.64,0.7,-0.34,-0.34,-0.78,9.35,3.74,-5.75,0.06,0.16,0.95,-1.02,1.11,0.09
942,1900-01-01 17:16:57.045,39.83,18.27,10.79,0.31,0.64,0.7,-0.44,-0.18,-1.05,9.43,3.64,-5.74,0.06,0.16,0.95,-1.03,1.41,-0.05
943,1900-01-01 17:16:57.139,39.65,18.58,10.79,0.32,0.64,0.71,-0.43,-0.42,-1.24,9.83,3.81,-5.76,0.06,0.16,0.95,-0.98,1.47,-0.1
944,1900-01-01 17:16:57.233,39.77,18.14,10.76,0.31,0.64,0.7,-0.75,0.05,-1.21,9.4,3.56,-5.78,0.06,0.16,0.94,-1.47,1.47,-0.09
945,1900-01-01 17:16:57.280,39.71,18.46,10.73,0.32,0.64,0.7,-0.65,-0.07,-1.18,9.77,3.7,-5.8,0.06,0.16,0.95,-1.89,1.39,-0.05
946,1900-01-01 17:16:57.374,39.76,18.11,10.71,0.31,0.64,0.7,-0.69,-0.04,-1.05,9.25,3.59,-5.82,0.06,0.15,0.95,-2.08,1.33,0.0
947,1900-01-01 17:16:57.467,39.71,18.23,10.71,0.31,0.64,0.7,-0.24,-0.11,-1.23,9.31,3.64,-5.83,0.06,0.16,0.95,-2.0,1.35,0.0
948,1900-01-01 17:16:57.515,39.76,17.96,10.68,0.31,0.64,0.71,-0.32,-0.07,-1.05,9.13,3.42,-5.84,0.06,0.15,0.95,-1.66,1.34,0.06
949,1900-01-01 17:16:57.610,39.74,18.2,10.68,0.31,0.64,0.71,0.12,-0.17,-0.97,9.35,3.44,-5.84,0.06,0.16,0.95,-1.11,1.35,0.11
950,1900-01-01 17:16:57.660,39.74,18.08,10.69,0.31,0.64,0.7,-0.07,-0.11,-0.85,8.99,3.48,-5.83,0.06,0.15,0.95,-1.4,1.08,0.07
951,1900-01-01 17:16:57.752,40.02,18.12,10.72,0.31,0.65,0.7,-0.08,-0.18,-0.77,9.46,3.54,-5.82,0.06,0.16,0.95,-1.48,1.28,0.18
952,1900-01-01 17:16:57.878,40.1,18.08,10.76,0.31,0.64,0.7,-0.4,-0.25,-0.89,9.03,3.48,-5.81,0.06,0.15,0.95,-1.62,1.16,0.09
953,1900-01-01 17:16:57.895,39.83,18.18,10.78,0.31,0.64,0.7,-0.31,-0.31,-0.9,9.0,3.79,-5.8,0.06,0.15,0.95,-1.39,1.22,0.06
954,1900-01-01 17:16:57.991,40.08,18.0,10.81,0.31,0.64,0.7,-0.33,-0.33,-0.98,8.88,3.56,-5.8,0.06,0.15,0.95,-1.31,1.19,0.02
955,1900-01-01 17:16:58.037,39.94,18.26,10.81,0.31,0.64,0.7,-0.35,-0.37,-0.96,8.95,3.55,-5.81,0.06,0.15,0.95,-1.24,1.07,0.02
956,1900-01-01 17:16:58.131,39.87,18.21,10.83,0.31,0.64,0.7,-0.26,-0.31,-1.11,9.18,3.52,-5.81,0.06,0.15,0.95,-1.46,1.19,0.02
957,1900-01-01 17:16:58.224,40.14,17.95,10.81,0.31,0.65,0.7,-0.56,-0.31,-0.94,9.19,3.52,-5.82,0.06,0.15,0.95,-1.24,1.16,-0.01
958,1900-01-01 17:16:58.276,39.95,18.04,10.83,0.31,0.64,0.7,-0.51,-0.28,-1.24,9.09,3.56,-5.83,0.06,0.15,0.95,-1.27,1.31,-0.13
959,1900-01-01 17:16:58.366,39.83,18.18,10.8,0.31,0.64,0.7,-0.43,-0.26,-1.04,8.95,3.55,-5.86,0.06,0.15,0.95,-1.27,1.33,-0.05
960,1900-01-01 17:16:58.413,39.74,18.07,10.8,0.31,0.64,0.7,-0.14,-0.5,-1.15,8.99,3.6,-5.87,0.06,0.15,0.95,-1.06,1.32,-0.05
961,1900-01-01 17:16:58.507,39.84,18.26,10.78,0.31,0.64,0.7,-0.24,-0.24,-1.16,8.83,3.71,-5.89,0.06,0.15,0.95,-0.79,1.57,-0.01
962,1900-01-01 17:16:58.603,40.3,18.03,10.76,0.31,0.65,0.7,-0.31,-0.15,-1.8,9.32,3.41,-5.9,0.06,0.16,0.95,0.36,2.15,-0.27
963,1900-01-01 17:16:58.649,40.25,17.9,10.65,0.31,0.65,0.7,-0.32,-0.72,-1.54,9.58,3.31,-5.95,0.06,0.16,0.95,-0.5,1.86,-0.29
964,1900-01-01 17:16:58.743,40.14,17.97,10.57,0.31,0.64,0.7,-0.33,-0.34,-1.41,9.5,3.13,-6.0,0.05,0.16,0.95,-1.51,1.54,-0.13
965,1900-01-01 17:16:58.872,40.33,17.87,10.51,0.31,0.65,0.7,-0.34,-0.63,-1.5,9.44,3.1,-6.03,0.05,0.16,0.95,-1.46,1.69,-0.24
966,1900-01-01 17:16:58.885,40.54,17.95,10.44,0.31,0.65,0.69,-0.93,-1.04,-1.99,9.28,3.04,-6.07,0.05,0.16,0.95,-1.66,1.38,-0.42
967,1900-01-01 17:16:58.978,40.27,18.07,10.3,0.31,0.64,0.69,-0.13,-2.53,-1.23,9.55,3.09,-6.15,0.05,0.16,0.95,-1.36,0.76,-0.38
968,1900-01-01 17:16:59.027,39.83,18.11,10.27,0.31,0.63,0.69,0.22,-3.52,0.91,8.99,3.39,-6.21,0.06,0.15,0.95,-1.47,-0.63,0.29
969,1900-01-01 17:16:59.118,39.86,19.44,10.57,0.33,0.64,0.69,0.82,-4.51,4.24,9.55,3.64,-6.18,0.06,0.16,0.95,-1.4,-1.4,0.95
