Time,Roll2,Pitch2,Yaw2,AccX2,AccY2,AccZ2,RotX2,RotY2,RotZ2,Roll1,Pitch1,Yaw1,AccX1,AccY1,AccZ1,RotX1,RotY1,RotZ1
1900-01-01 12:19:04.674,46.91,23.45,-22.34,0.39,0.72,0.55,-1.05,2.51,-0.35,16.09,5.92,8.37,0.11,0.28,0.97,-1.31,1.15,0.59
1900-01-01 12:19:04.721,46.93,23.51,-22.4,0.39,0.72,0.55,-1.47,2.45,0.19,16.75,6.33,8.62,0.11,0.29,0.96,-1.55,0.55,0.13
1900-01-01 12:19:04.815,46.98,22.83,-22.38,0.38,0.72,0.55,-1.65,2.18,0.64,16.27,5.08,8.8,0.09,0.29,0.97,-1.0,-0.92,-0.01
1900-01-01 12:19:04.910,46.7,22.94,-22.29,0.38,0.71,0.55,-1.04,1.74,1.6,16.12,5.07,8.96,0.09,0.28,0.98,0.98,-0.15,1.22
1900-01-01 12:19:04.956,45.6,23.91,-22.06,0.39,0.69,0.55,-0.68,1.09,0.55,16.06,7.07,9.3,0.12,0.27,0.94,1.56,0.41,-0.18
1900-01-01 12:19:05.050,46.35,23.35,-21.98,0.38,0.7,0.55,-1.48,1.74,-0.5,16.64,6.38,9.43,0.11,0.28,0.94,-1.63,-0.35,-1.07
1900-01-01 12:19:05.142,47.09,23.2,-22.07,0.39,0.72,0.55,-1.9,1.85,-0.19,16.76,4.69,9.43,0.08,0.3,0.98,-1.91,-0.2,-0.96
1900-01-01 12:19:05.189,46.75,23.45,-22.11,0.39,0.72,0.55,-1.53,1.21,0.55,16.89,5.59,9.44,0.1,0.3,0.98,-0.36,-0.21,-0.55
1900-01-01 12:19:05.281,46.87,23.44,-22.03,0.39,0.71,0.54,-1.01,0.44,0.47,17.07,5.46,9.51,0.1,0.3,0.96,0.96,-0.85,-1.28
1900-01-01 12:19:05.327,46.8,23.63,-21.97,0.39,0.71,0.54,-0.71,0.8,0.94,17.62,5.56,9.48,0.1,0.3,0.95,1.22,-0.4,-0.34
1900-01-01 12:19:05.418,46.34,23.88,-21.83,0.39,0.7,0.54,-0.75,0.9,-0.4,16.87,6.74,9.58,0.12,0.29,0.94,0.11,0.76,-1.01
1900-01-01 12:19:05.511,46.91,23.39,-21.9,0.39,0.71,0.54,-0.73,1.61,-0.76,17.02,5.82,9.59,0.1,0.29,0.95,-0.02,1.43,-0.81
1900-01-01 12:19:05.556,47.08,23.64,-22.03,0.39,0.72,0.54,-1.09,1.59,-0.45,18.13,5.04,9.62,0.09,0.31,0.95,-0.49,0.34,-0.86
1900-01-01 12:19:05.650,46.68,23.82,-22.11,0.39,0.71,0.54,-0.79,2.11,-0.22,17.88,5.53,9.65,0.1,0.31,0.95,1.25,1.01,0.16
1900-01-01 12:19:05.744,47.03,23.19,-22.15,0.38,0.71,0.54,-0.79,1.79,-0.39,17.45,4.78,9.83,0.08,0.3,0.96,-0.45,0.96,-0.63
1900-01-01 12:19:05.791,47.15,23.14,-22.22,0.38,0.72,0.54,-0.73,1.52,-0.04,17.51,4.99,9.9,0.09,0.3,0.96,-0.75,-0.01,-0.51
1900-01-01 12:19:05.884,47.47,22.94,-22.23,0.38,0.72,0.54,-1.4,1.25,-0.02,17.91,4.52,9.98,0.08,0.31,0.96,-0.94,-0.59,-1.08
1900-01-01 12:19:05.977,47.56,22.91,-22.24,0.38,0.72,0.54,-1.24,1.3,0.8,18.07,4.07,9.97,0.07,0.32,0.97,0.34,-0.21,-0.03
1900-01-01 12:19:06.023,47.01,23.08,-22.13,0.38,0.71,0.54,-1.13,0.42,0.96,17.57,5.0,10.12,0.09,0.3,0.95,0.53,-1.53,-0.48
1900-01-01 12:19:06.119,47.21,23.39,-21.99,0.38,0.7,0.53,-0.74,0.62,0.35,17.75,5.15,10.21,0.09,0.3,0.93,0.5,-0.25,-0.76
1900-01-01 12:19:06.167,46.41,24.02,-21.95,0.4,0.71,0.54,-0.79,1.16,-1.51,18.48,6.34,10.25,0.11,0.31,0.92,-0.45,0.72,-1.87
1900-01-01 12:19:06.261,47.92,22.99,-22.19,0.39,0.74,0.54,-0.86,1.83,-1.82,18.66,4.3,10.12,0.08,0.33,0.97,-1.81,1.82,-2.42
1900-01-01 12:19:06.357,47.82,23.61,-22.47,0.4,0.73,0.53,-2.28,1.91,-0.01,19.37,4.17,9.91,0.07,0.34,0.96,-1.63,-1.29,-0.63
1900-01-01 12:19:06.404,47.38,23.27,-22.48,0.38,0.71,0.53,-1.63,2.01,0.02,18.33,4.76,9.97,0.08,0.31,0.94,-1.02,-0.58,0.12
1900-01-01 12:19:06.497,47.5,22.66,-22.49,0.37,0.72,0.54,-0.53,1.52,-0.69,17.58,4.63,10.15,0.08,0.3,0.95,-0.31,1.12,-0.86
1900-01-01 12:19:06.544,47.89,22.19,-22.6,0.37,0.73,0.54,-0.46,1.08,-0.61,17.05,3.78,10.18,0.07,0.3,0.97,-1.24,-0.43,-2.06
1900-01-01 12:19:06.636,47.84,22.59,-22.7,0.37,0.72,0.53,-1.14,1.16,-0.5,17.97,4.13,10.02,0.07,0.31,0.95,-0.63,-0.53,-1.77
1900-01-01 12:19:06.732,47.31,23.12,-22.79,0.38,0.71,0.54,-1.4,1.33,-0.69,17.74,4.89,9.91,0.08,0.3,0.94,-0.63,-0.52,-1.41
1900-01-01 12:19:06.778,47.58,22.98,-22.9,0.38,0.72,0.54,-0.07,1.01,-1.09,17.58,4.86,9.85,0.09,0.3,0.95,0.39,0.87,-1.42
1900-01-01 12:19:06.870,48.33,22.71,-23.07,0.38,0.73,0.53,-0.48,0.85,-0.15,18.72,3.95,9.79,0.07,0.32,0.96,0.37,-0.71,-1.01
1900-01-01 12:19:06.963,48.15,22.68,-23.1,0.38,0.73,0.53,-1.03,1.4,0.07,18.47,4.04,9.8,0.07,0.32,0.95,-0.63,-0.63,-0.69
1900-01-01 12:19:07.010,48.37,23.01,-23.1,0.38,0.73,0.53,-0.47,1.51,-0.51,18.57,4.74,9.85,0.08,0.32,0.94,-0.44,0.67,-1.14
1900-01-01 12:19:07.102,48.53,22.4,-23.19,0.38,0.74,0.53,-1.12,1.84,0.34,19.13,3.08,9.84,0.05,0.34,0.97,-0.98,0.17,-0.31
1900-01-01 12:19:07.195,48.09,22.49,-23.15,0.37,0.73,0.53,-1.47,1.37,0.85,17.72,4.5,9.95,0.08,0.3,0.95,0.57,-0.6,0.4
1900-01-01 12:19:07.243,47.81,22.63,-23.02,0.37,0.72,0.54,-0.75,1.08,0.58,17.83,4.55,10.17,0.08,0.31,0.95,0.5,0.08,-0.18
1900-01-01 12:19:07.337,48.15,22.59,-22.94,0.37,0.72,0.53,-0.76,1.11,0.13,18.24,4.3,10.3,0.07,0.31,0.93,0.08,-0.34,-0.73
1900-01-01 12:19:07.385,47.99,22.68,-22.93,0.38,0.72,0.53,-1.51,1.39,-0.55,18.45,3.87,10.34,0.07,0.32,0.95,-0.76,0.81,-1.37
1900-01-01 12:19:07.481,48.46,22.37,-23.03,0.38,0.74,0.54,-1.05,0.74,0.34,18.83,3.62,10.29,0.06,0.33,0.97,0.05,0.63,-1.47
1900-01-01 12:19:07.577,47.94,23.28,-22.98,0.39,0.73,0.53,-0.03,1.07,0.87,18.5,4.38,10.23,0.08,0.32,0.96,1.03,-0.21,-0.85
1900-01-01 12:19:07.623,48.57,22.6,-22.86,0.38,0.73,0.53,-1.12,1.01,-0.08,18.64,4.34,10.26,0.08,0.32,0.94,-0.21,-0.56,-0.6
1900-01-01 12:19:07.718,48.49,22.57,-22.88,0.37,0.73,0.53,-1.76,1.0,0.39,18.81,3.83,10.32,0.07,0.32,0.95,-0.9,-1.18,-0.85
1900-01-01 12:19:07.766,48.67,22.87,-22.83,0.38,0.73,0.52,-4.69,1.27,1.46,20.67,2.63,10.35,0.05,0.36,0.94,-8.69,-5.57,1.15
1900-01-01 12:19:07.859,48.93,22.55,-22.61,0.38,0.74,0.53,-1.59,1.13,0.44,19.72,2.96,10.68,0.05,0.35,0.97,1.34,-1.05,-0.44
1900-01-01 12:19:07.954,48.78,23.05,-22.55,0.38,0.74,0.52,-1.09,0.85,0.27,19.42,4.45,10.78,0.08,0.34,0.95,0.87,0.16,-0.7
1900-01-01 12:19:08.000,47.83,23.31,-22.52,0.39,0.72,0.53,-1.83,0.92,0.49,18.85,4.95,10.83,0.09,0.32,0.94,-0.08,-1.11,-0.4
1900-01-01 12:19:08.096,47.63,23.23,-22.46,0.38,0.72,0.53,-1.46,1.01,0.25,18.89,5.27,10.93,0.09,0.32,0.94,-0.84,-0.58,-0.86
1900-01-01 12:19:08.191,47.99,23.2,-22.43,0.38,0.72,0.53,-1.32,1.05,0.13,19.2,5.09,10.95,0.09,0.33,0.93,-0.93,-1.33,-0.46
1900-01-01 12:19:08.237,47.92,23.34,-22.41,0.39,0.72,0.53,-2.05,1.75,0.37,19.39,4.96,11.04,0.09,0.33,0.94,-1.72,-1.4,-0.33
1900-01-01 12:19:08.330,47.44,23.37,-22.37,0.39,0.72,0.54,-1.84,1.61,-0.01,18.66,5.29,11.15,0.09,0.32,0.95,-1.56,-0.39,-0.66
1900-01-01 12:19:08.378,47.9,23.18,-22.38,0.38,0.73,0.53,-1.87,1.37,0.22,18.9,5.21,11.21,0.09,0.33,0.95,-1.07,-0.91,-0.48
1900-01-01 12:19:08.473,47.66,23.23,-22.35,0.38,0.72,0.53,-1.6,1.65,0.23,19.47,4.57,11.29,0.08,0.33,0.94,-1.29,-1.02,-0.63
1900-01-01 12:19:08.568,47.65,23.1,-22.33,0.38,0.72,0.54,-1.27,1.71,-0.43,18.66,5.72,11.35,0.1,0.32,0.94,-1.11,0.24,-0.85
1900-01-01 12:19:08.615,48.04,23.06,-22.4,0.39,0.73,0.53,-1.21,1.75,0.09,18.92,4.64,11.38,0.08,0.33,0.96,-0.51,0.15,-0.57
1900-01-01 12:19:08.706,47.91,23.14,-22.39,0.38,0.73,0.53,-1.54,1.6,0.53,19.0,4.99,11.45,0.09,0.33,0.95,-0.18,-0.27,-0.25
1900-01-01 12:19:08.800,47.6,22.87,-22.32,0.37,0.71,0.53,-1.24,1.34,0.37,18.53,5.09,11.57,0.09,0.32,0.94,-0.33,-1.01,-0.53
1900-01-01 12:19:08.847,47.61,22.99,-22.27,0.38,0.71,0.53,-0.69,1.39,-0.44,18.54,5.54,11.65,0.1,0.31,0.93,0.31,0.58,-1.01
1900-01-01 12:19:08.943,47.81,23.09,-22.35,0.39,0.73,0.54,-0.51,1.12,-0.86,18.54,5.59,11.65,0.1,0.32,0.95,0.02,0.92,-1.59
1900-01-01 12:19:08.990,48.07,22.96,-22.49,0.38,0.73,0.53,-0.02,0.81,-0.29,18.66,5.0,11.57,0.09,0.32,0.95,1.32,0.29,-0.9
1900-01-01 12:19:09.084,47.64,23.15,-22.54,0.38,0.71,0.53,-0.51,1.15,-0.39,18.98,5.35,11.59,0.09,0.32,0.93,-0.11,-0.12,-1.16
1900-01-01 12:19:09.178,48.33,22.91,-22.61,0.38,0.73,0.53,-0.23,1.24,-0.78,19.58,4.82,11.57,0.08,0.34,0.95,-0.16,1.03,-1.75
1900-01-01 12:19:09.225,48.4,22.86,-22.73,0.38,0.73,0.53,-0.59,1.34,-0.31,19.4,4.61,11.46,0.08,0.33,0.94,0.55,0.29,-0.84
1900-01-01 12:19:09.317,48.46,22.79,-22.79,0.38,0.73,0.52,-0.33,1.21,-0.41,19.5,4.56,11.49,0.08,0.33,0.94,0.58,0.66,-1.04
1900-01-01 12:19:09.408,48.57,22.69,-22.86,0.38,0.73,0.53,-0.15,1.37,-0.47,19.88,4.28,11.49,0.07,0.34,0.94,0.66,0.4,-1.32
1900-01-01 12:19:09.456,48.86,22.59,-22.94,0.38,0.74,0.52,-1.02,0.95,-0.27,20.02,4.05,11.45,0.07,0.35,0.95,0.3,0.19,-0.95
1900-01-01 12:19:09.551,48.81,22.77,-22.99,0.38,0.73,0.52,-1.22,0.89,-0.11,20.33,4.31,11.47,0.08,0.35,0.94,0.09,-0.47,-0.96
1900-01-01 12:19:09.599,49.13,22.63,-23.02,0.38,0.74,0.52,-1.03,1.15,-0.12,20.44,4.16,11.48,0.07,0.35,0.94,0.03,-0.07,-1.02
1900-01-01 12:19:09.694,49.01,22.78,-23.04,0.38,0.74,0.52,-0.86,1.19,-0.28,20.15,4.77,11.48,0.08,0.34,0.93,0.1,-0.15,-0.76
1900-01-01 12:19:09.789,48.83,22.67,-23.09,0.38,0.74,0.52,-1.29,1.41,-0.21,19.84,4.33,11.52,0.08,0.34,0.95,-0.79,-0.5,-0.79
1900-01-01 12:19:09.837,48.9,22.43,-23.13,0.37,0.74,0.52,-1.19,1.05,0.15,20.08,3.97,11.56,0.07,0.35,0.95,-0.25,-0.6,-0.9
1900-01-01 12:19:09.929,48.93,22.76,-23.12,0.38,0.74,0.52,-0.98,1.33,0.05,20.46,4.36,11.58,0.08,0.35,0.94,0.01,-0.04,-0.78
1900-01-01 12:19:09.977,48.84,22.73,-23.12,0.38,0.74,0.52,-1.3,1.15,0.03,20.4,4.32,11.62,0.08,0.35,0.95,-0.3,-0.13,-0.99
1900-01-01 12:19:10.070,48.91,22.74,-23.13,0.38,0.74,0.52,-1.53,1.07,0.37,20.51,4.39,11.63,0.08,0.35,0.94,-0.18,-0.84,-0.63
1900-01-01 12:19:10.166,48.75,22.72,-23.08,0.37,0.73,0.52,-1.66,1.32,0.56,20.18,4.52,11.69,0.08,0.34,0.93,-0.21,-1.13,-0.35
1900-01-01 12:19:10.214,48.71,22.77,-23.0,0.37,0.73,0.52,-1.08,1.2,-0.18,20.49,4.52,11.79,0.08,0.35,0.93,-0.29,0.37,-0.92
1900-01-01 12:19:10.308,48.94,22.72,-23.04,0.38,0.74,0.52,-0.95,1.11,-0.48,20.37,4.76,11.81,0.08,0.35,0.93,-0.63,-0.1,-1.37
1900-01-01 12:19:10.356,48.8,22.77,-23.12,0.38,0.74,0.52,-1.23,1.23,-0.1,20.38,4.48,11.76,0.08,0.35,0.95,-0.23,-0.1,-0.92
1900-01-01 12:19:10.450,48.98,22.55,-23.14,0.38,0.74,0.52,-1.69,1.09,-0.08,20.59,4.23,11.78,0.07,0.35,0.94,-1.03,-0.81,-1.1
1900-01-01 12:19:10.545,48.57,22.53,-23.16,0.37,0.73,0.53,-1.78,1.02,0.2,19.76,4.51,11.77,0.08,0.34,0.94,-0.69,-1.03,-0.78
1900-01-01 12:19:10.593,48.71,22.75,-23.14,0.38,0.74,0.52,-1.85,0.8,-0.17,20.37,4.51,11.81,0.08,0.35,0.94,-1.24,-0.96,-1.31
1900-01-01 12:19:10.684,49.08,22.94,-23.18,0.38,0.74,0.51,-2.35,1.05,0.09,20.76,4.46,11.77,0.08,0.36,0.94,-1.96,-1.58,-1.21
1900-01-01 12:19:10.779,48.82,23.01,-23.17,0.38,0.73,0.51,-1.24,0.93,0.56,20.36,4.74,11.74,0.08,0.35,0.93,-0.4,-1.07,-0.46
1900-01-01 12:19:10.825,48.85,23.05,-23.09,0.38,0.73,0.51,-1.34,1.29,0.46,21.08,4.56,11.83,0.08,0.36,0.92,-0.49,-0.29,-0.61
1900-01-01 12:19:10.919,48.59,22.84,-23.03,0.38,0.73,0.52,-0.89,1.72,0.71,20.34,4.77,11.9,0.08,0.35,0.94,0.16,0.29,-0.18
1900-01-01 12:19:11.012,48.43,22.79,-22.93,0.37,0.72,0.52,-0.44,1.95,0.73,20.08,5.27,12.03,0.09,0.34,0.92,-0.28,-0.27,-0.49
1900-01-01 12:19:11.061,48.3,23.03,-22.83,0.38,0.73,0.52,-1.08,1.42,-0.77,19.95,5.42,12.11,0.09,0.34,0.93,-0.9,0.35,-1.18
1900-01-01 12:19:11.154,48.7,22.72,-22.95,0.38,0.74,0.53,-1.09,1.47,-0.73,20.39,4.46,12.09,0.08,0.35,0.95,-1.31,0.21,-1.56
1900-01-01 12:19:11.202,48.99,22.73,-23.08,0.38,0.73,0.51,-1.66,1.47,-0.53,21.98,3.93,12.01,0.07,0.38,0.93,-1.33,-0.51,-0.68
1900-01-01 12:19:11.296,48.51,23.1,-23.17,0.38,0.73,0.52,0.12,0.07,1.18,21.32,6.82,12.06,0.12,0.36,0.9,2.79,-2.61,0.52
1900-01-01 12:19:11.391,48.87,22.76,-22.99,0.38,0.73,0.52,-0.47,1.44,-0.56,20.92,6.35,12.3,0.11,0.35,0.9,1.72,-2.05,0.42
1900-01-01 12:19:11.438,48.55,23.05,-23.09,0.38,0.73,0.52,-0.45,1.56,-1.1,20.87,6.05,12.52,0.11,0.36,0.93,-0.27,1.68,-1.36
1900-01-01 12:19:11.533,49.12,22.38,-23.27,0.37,0.74,0.52,-0.47,1.12,-0.88,20.97,5.52,12.47,0.1,0.36,0.94,-0.05,0.76,-1.53
1900-01-01 12:19:11.580,49.51,22.5,-23.41,0.37,0.74,0.51,-0.41,0.98,-0.69,21.39,5.02,12.4,0.09,0.37,0.93,0.09,0.6,-1.53
1900-01-01 12:19:11.674,49.22,22.56,-23.52,0.38,0.74,0.52,-0.83,1.54,-0.37,21.35,4.92,12.32,0.09,0.37,0.94,-0.59,0.16,-1.11
1900-01-01 12:19:11.769,49.35,22.53,-23.59,0.38,0.75,0.52,-0.72,1.11,-0.25,21.31,4.9,12.31,0.09,0.37,0.95,0.43,0.44,-1.2
1900-01-01 12:19:11.815,49.49,22.52,-23.63,0.37,0.74,0.51,-1.11,1.09,-0.02,21.29,5.05,12.29,0.09,0.36,0.93,0.22,-0.34,-0.92
1900-01-01 12:19:11.909,49.6,22.45,-23.65,0.37,0.74,0.51,-0.96,1.11,-0.2,21.47,4.87,12.31,0.08,0.37,0.93,0.1,-0.04,-1.08
1900-01-01 12:19:12.004,49.67,22.47,-23.68,0.37,0.74,0.51,-0.94,1.18,-0.4,21.82,4.63,12.3,0.08,0.37,0.93,-0.42,0.27,-1.27
1900-01-01 12:19:12.051,49.71,22.49,-23.75,0.37,0.75,0.51,-0.87,1.32,-0.32,21.83,4.78,12.27,0.08,0.37,0.93,-0.08,0.34,-1.1
1900-01-01 12:19:12.146,49.64,22.4,-23.81,0.37,0.74,0.51,-0.87,1.23,-0.23,21.55,4.93,12.26,0.09,0.37,0.93,-0.07,0.05,-1.03
1900-01-01 12:19:12.194,49.7,22.28,-23.85,0.37,0.75,0.51,-0.74,1.18,-0.27,21.76,4.73,12.26,0.08,0.37,0.93,-0.18,-0.08,-1.18
1900-01-01 12:19:12.288,49.54,22.38,-23.9,0.37,0.75,0.52,-0.98,0.89,-0.24,21.44,4.98,12.23,0.09,0.37,0.94,-0.62,-0.44,-1.23
1900-01-01 12:19:12.383,49.97,22.3,-23.95,0.37,0.75,0.51,-0.93,0.79,0.01,21.84,4.52,12.21,0.08,0.38,0.93,0.04,-0.86,-0.92
1900-01-01 12:19:12.431,49.99,22.39,-23.96,0.38,0.76,0.51,-1.66,0.91,0.23,22.58,4.67,12.22,0.08,0.39,0.93,-0.15,-2.07,-0.38
1900-01-01 12:19:12.527,49.75,22.5,-23.93,0.37,0.75,0.51,-1.34,0.7,0.48,21.85,5.02,12.32,0.09,0.38,0.94,0.73,-1.63,-0.26
1900-01-01 12:19:12.574,49.72,22.75,-23.86,0.37,0.74,0.5,-1.53,0.44,0.53,22.5,5.1,12.44,0.09,0.38,0.92,0.37,-2.57,-0.58
1900-01-01 12:19:12.668,49.88,22.78,-23.79,0.37,0.74,0.5,-1.44,0.72,-0.2,22.82,5.76,12.51,0.1,0.38,0.9,-1.02,-0.77,-1.41
1900-01-01 12:19:12.763,49.76,22.62,-23.83,0.38,0.75,0.51,-1.55,0.9,-0.14,22.33,5.57,12.46,0.1,0.38,0.93,-1.18,-0.9,-1.31
1900-01-01 12:19:12.809,50.02,22.74,-23.86,0.38,0.75,0.5,-1.43,0.85,0.13,22.79,4.9,12.41,0.09,0.39,0.93,-1.2,-0.77,-1.31
1900-01-01 12:19:12.903,49.97,22.83,-23.85,0.38,0.75,0.5,-1.38,1.2,0.21,22.69,5.61,12.37,0.1,0.39,0.92,-0.4,-0.58,-0.65
1900-01-01 12:19:12.997,49.57,22.88,-23.83,0.38,0.74,0.51,-1.65,1.47,0.41,22.34,5.54,12.43,0.1,0.38,0.93,-1.06,-0.62,-0.43
1900-01-01 12:19:13.043,49.58,22.78,-23.77,0.38,0.75,0.51,-1.44,1.31,0.3,22.46,5.6,12.52,0.1,0.38,0.92,-0.83,-0.69,-0.65
1900-01-01 12:19:13.136,49.45,22.8,-23.74,0.38,0.74,0.51,-2.02,1.46,0.74,22.56,5.52,12.58,0.1,0.38,0.92,-0.93,-1.51,-0.28
1900-01-01 12:19:13.182,49.57,22.7,-23.63,0.38,0.74,0.51,-1.69,0.76,-0.09,22.14,5.79,12.7,0.1,0.38,0.92,-0.36,-0.71,-0.63
1900-01-01 12:19:13.278,49.24,22.91,-23.65,0.38,0.74,0.51,-1.11,1.02,0.46,22.08,6.22,12.76,0.11,0.37,0.92,0.26,-0.53,-0.55
1900-01-01 12:19:13.373,49.22,23.03,-23.59,0.38,0.73,0.51,-1.21,0.79,0.26,21.81,6.5,12.83,0.11,0.37,0.91,0.0,-1.07,-0.88
1900-01-01 12:19:13.421,49.19,23.24,-23.56,0.38,0.73,0.5,-1.14,0.95,-0.35,22.36,6.54,12.86,0.11,0.37,0.9,-0.66,-0.89,-1.36
1900-01-01 12:19:13.515,49.44,23.14,-23.62,0.39,0.74,0.51,-0.9,1.23,-0.69,22.48,6.02,12.81,0.11,0.38,0.92,-0.53,0.27,-1.56
1900-01-01 12:19:13.610,49.51,23.1,-23.74,0.39,0.75,0.51,-0.98,1.37,-0.49,22.61,5.97,12.73,0.11,0.39,0.93,-0.69,0.39,-1.26
1900-01-01 12:19:13.658,49.77,22.84,-23.82,0.38,0.75,0.5,-1.0,1.48,-0.11,22.68,5.58,12.69,0.1,0.39,0.92,-1.0,-0.19,-0.87
1900-01-01 12:19:13.754,49.46,22.86,-23.85,0.38,0.74,0.51,-1.02,1.66,-0.26,22.05,6.15,12.72,0.11,0.37,0.91,-0.7,0.21,-0.76
1900-01-01 12:19:13.802,49.47,22.9,-23.89,0.38,0.75,0.51,-1.05,1.77,-0.7,22.27,6.06,12.76,0.11,0.38,0.92,-0.73,0.4,-1.11
1900-01-01 12:19:13.897,49.65,22.41,-24.01,0.37,0.75,0.51,-1.06,1.13,-0.27,21.67,5.57,12.75,0.1,0.38,0.94,0.07,-0.23,-0.91
1900-01-01 12:19:13.945,49.93,22.56,-24.06,0.37,0.75,0.5,-1.02,0.95,-0.18,22.4,5.53,12.77,0.1,0.38,0.92,-0.08,-0.39,-1.24
1900-01-01 12:19:14.041,49.94,22.86,-24.1,0.38,0.75,0.5,-1.04,1.62,-0.3,22.88,5.69,12.74,0.1,0.39,0.92,-0.64,0.38,-1.01
1900-01-01 12:19:14.136,49.78,22.76,-24.15,0.38,0.75,0.51,-1.23,1.64,-0.07,22.34,5.75,12.74,0.1,0.39,0.93,-0.45,0.04,-0.6
1900-01-01 12:19:14.184,49.76,22.47,-24.17,0.37,0.75,0.51,-1.15,1.27,0.21,22.02,5.78,12.81,0.1,0.38,0.92,0.26,-0.98,-0.37
1900-01-01 12:19:14.278,49.74,22.79,-24.15,0.37,0.74,0.5,-0.6,1.11,0.59,22.44,5.73,12.91,0.1,0.38,0.91,0.67,-0.13,-0.32
1900-01-01 12:19:14.325,48.87,23.22,-24.06,0.38,0.73,0.51,-0.39,1.38,0.03,22.3,6.66,13.02,0.11,0.38,0.91,0.98,-0.06,-0.6
1900-01-01 12:19:14.421,50.75,22.11,-24.07,0.37,0.77,0.5,-1.58,2.08,-1.18,22.92,5.33,13.09,0.09,0.4,0.93,1.23,-2.41,0.72
1900-01-01 12:19:14.516,51.92,20.88,-24.26,0.35,0.78,0.5,-1.56,0.92,0.32,23.27,4.14,13.36,0.07,0.41,0.94,-0.24,-2.14,-0.5
1900-01-01 12:19:14.563,48.76,23.57,-24.22,0.39,0.73,0.51,-1.88,1.49,0.83,22.91,7.64,13.44,0.13,0.39,0.91,-1.47,-1.55,0.16
1900-01-01 12:19:14.653,48.92,22.95,-24.1,0.38,0.73,0.51,-0.95,1.25,0.22,22.42,7.06,13.62,0.12,0.39,0.93,0.92,-0.24,-0.08
1900-01-01 12:19:14.730,50.79,21.85,-24.07,0.36,0.74,0.49,-1.12,1.38,-0.51,23.42,5.99,13.77,0.1,0.39,0.88,3.33,-3.13,1.68
1900-01-01 12:19:14.854,50.4,22.39,-24.16,0.37,0.76,0.5,-1.52,2.13,-1.34,23.22,7.61,14.18,0.13,0.39,0.9,-2.45,0.77,-1.23
1900-01-01 12:19:14.936,49.61,23.34,-24.37,0.39,0.75,0.5,-0.5,0.79,0.82,23.96,6.82,14.15,0.12,0.42,0.95,-0.47,0.32,-1.33
1900-01-01 12:19:14.978,49.15,22.83,-24.25,0.37,0.72,0.5,-0.56,0.61,1.18,22.88,9.06,14.11,0.15,0.38,0.88,0.47,-0.44,-0.6
1900-01-01 12:19:15.033,50.31,21.42,-24.08,0.36,0.75,0.51,-0.77,1.32,0.4,22.83,7.54,14.18,0.13,0.39,0.91,0.32,-4.16,1.02
1900-01-01 12:19:15.251,49.4,22.85,-24.03,0.38,0.74,0.51,-0.71,0.71,0.22,23.13,8.2,14.49,0.14,0.39,0.91,0.33,-1.91,-1.28
1900-01-01 12:19:15.251,49.06,22.89,-24.01,0.38,0.75,0.52,-0.12,0.05,-0.01,23.2,9.19,14.46,0.16,0.4,0.93,2.85,-3.49,-0.3
1900-01-01 12:19:15.251,50.04,22.57,-24.02,0.37,0.74,0.5,-0.35,-1.18,-1.16,22.57,8.63,14.57,0.15,0.38,0.91,1.91,-9.13,-1.47
1900-01-01 12:19:15.345,50.87,23.13,-24.2,0.4,0.79,0.5,-1.69,-0.24,-0.98,27.35,9.76,14.5,0.17,0.47,0.89,1.46,-11.79,-1.22
1900-01-01 12:19:15.530,49.61,22.51,-24.36,0.39,0.77,0.53,-1.88,-0.27,0.82,24.36,11.82,14.47,0.22,0.44,0.94,2.52,-5.82,0.38
1900-01-01 12:19:15.530,48.84,21.88,-24.24,0.35,0.7,0.51,0.33,-5.39,1.44,19.46,13.68,14.69,0.23,0.33,0.91,5.47,-8.24,-1.79
1900-01-01 12:19:15.640,50.64,23.44,-24.03,0.38,0.75,0.48,0.99,-4.78,-2.87,27.62,14.44,14.57,0.23,0.43,0.79,3.39,-2.74,-7.4
1900-01-01 12:19:15.640,52.92,23.73,-24.48,0.38,0.76,0.43,-1.95,-2.94,-2.24,28.66,10.04,13.6,0.17,0.47,0.85,-0.92,-4.01,-5.63
1900-01-01 12:19:15.734,51.15,26.2,-24.83,0.44,0.77,0.44,-0.34,-0.06,-1.63,30.87,12.95,12.89,0.22,0.51,0.83,-0.5,-0.36,-3.41
1900-01-01 12:19:15.821,53.34,23.61,-25.09,0.38,0.77,0.42,0.02,0.43,-1.13,29.4,10.12,12.53,0.18,0.49,0.86,0.86,0.83,-3.28
1900-01-01 12:19:15.868,51.05,24.41,-25.27,0.41,0.77,0.47,-0.27,3.02,-0.05,27.99,12.61,12.18,0.22,0.47,0.87,-0.92,1.82,0.24
1900-01-01 12:19:15.961,50.42,23.58,-25.29,0.41,0.79,0.51,-1.01,2.38,0.19,26.3,12.99,12.38,0.24,0.47,0.92,-0.65,1.53,0.28
1900-01-01 12:19:16.028,51.88,22.2,-25.27,0.36,0.76,0.47,-1.28,-0.4,1.63,25.2,11.42,12.58,0.2,0.43,0.88,1.86,-3.1,-0.32
1900-01-01 12:19:16.150,51.37,23.81,-25.03,0.38,0.74,0.45,-0.9,-0.38,0.34,26.84,12.38,12.69,0.21,0.44,0.84,0.74,-1.55,-1.5
1900-01-01 12:19:16.310,50.97,25.8,-24.98,0.43,0.77,0.45,-1.23,0.99,-1.63,30.06,13.66,12.62,0.24,0.5,0.83,-0.56,1.13,-2.05
1900-01-01 12:19:16.310,51.41,24.86,-25.24,0.43,0.79,0.47,-1.53,2.4,-0.93,29.82,11.86,12.46,0.22,0.52,0.88,-1.74,1.51,-1.05
1900-01-01 12:19:16.345,52.07,23.79,-25.39,0.4,0.79,0.46,-1.4,1.61,1.39,28.34,11.58,12.46,0.21,0.49,0.89,-0.69,-0.82,0.64
1900-01-01 12:19:16.407,51.88,23.57,-25.19,0.39,0.76,0.46,-1.56,2.19,1.89,28.21,11.83,12.72,0.2,0.47,0.85,-0.45,-0.63,1.53
1900-01-01 12:19:16.512,50.85,23.78,-24.91,0.39,0.75,0.47,-2.04,2.98,1.12,27.31,12.46,13.11,0.21,0.45,0.85,-1.78,0.47,1.27
1900-01-01 12:19:16.543,50.4,23.95,-24.75,0.4,0.75,0.48,-1.78,2.47,0.78,26.22,13.24,13.46,0.23,0.44,0.87,-1.08,-0.48,0.87
1900-01-01 12:19:16.635,50.81,23.93,-24.64,0.4,0.76,0.47,-1.61,1.8,0.49,27.2,12.54,13.75,0.22,0.46,0.87,-1.09,-0.37,-0.34
1900-01-01 12:19:16.722,51.01,24.0,-24.57,0.4,0.76,0.47,-1.85,1.66,1.11,27.47,12.58,13.86,0.22,0.46,0.86,-0.4,-0.84,0.44
1900-01-01 12:19:16.814,51.16,23.7,-24.41,0.38,0.74,0.46,-0.92,0.99,0.66,27.08,12.22,14.08,0.21,0.45,0.85,0.61,-0.19,-0.08
1900-01-01 12:19:16.904,50.98,23.74,-24.32,0.39,0.75,0.47,-0.37,1.31,-0.15,27.25,12.97,14.23,0.22,0.45,0.84,0.26,0.04,-0.99
1900-01-01 12:19:16.941,50.14,24.32,-24.35,0.41,0.76,0.49,-0.69,1.53,-0.73,26.95,12.97,14.24,0.23,0.46,0.88,-0.86,1.07,-1.02
1900-01-01 12:19:17.035,50.77,24.19,-24.47,0.41,0.77,0.48,-0.78,0.39,-0.5,27.32,12.96,14.24,0.23,0.47,0.89,-0.07,0.14,-1.69
1900-01-01 12:19:17.095,51.43,24.04,-24.55,0.4,0.76,0.46,-1.24,0.29,0.16,27.64,12.33,14.14,0.21,0.46,0.86,0.4,-2.21,-1.01
1900-01-01 12:19:17.193,51.04,24.16,-24.54,0.39,0.75,0.46,-0.55,0.72,-1.21,27.83,13.25,14.14,0.22,0.45,0.83,-0.18,0.28,-2.27
1900-01-01 12:19:17.265,51.25,23.93,-24.73,0.4,0.76,0.47,-0.69,0.98,-1.54,27.95,11.99,13.95,0.21,0.47,0.87,-0.47,0.88,-2.44
1900-01-01 12:19:17.382,51.79,23.63,-24.98,0.4,0.78,0.47,-0.49,0.27,-1.75,27.59,12.35,13.74,0.22,0.47,0.88,-0.15,0.73,-3.12
1900-01-01 12:19:17.382,50.73,25.1,-25.25,0.42,0.77,0.47,-1.66,0.78,0.02,27.95,12.99,13.42,0.23,0.49,0.89,-0.56,-0.37,-1.0
1900-01-01 12:19:17.486,52.82,23.12,-25.26,0.38,0.76,0.44,-0.73,-0.56,0.36,29.08,10.62,13.42,0.18,0.48,0.84,1.63,-1.27,-2.11
1900-01-01 12:19:17.598,51.94,24.37,-25.21,0.4,0.76,0.44,-0.22,1.4,-0.61,28.94,12.65,13.26,0.21,0.47,0.82,0.07,0.02,-1.21
1900-01-01 12:19:17.679,51.51,24.15,-25.31,0.4,0.77,0.46,-0.44,2.4,-1.08,28.65,12.07,13.23,0.21,0.49,0.86,-0.98,1.82,-1.09
1900-01-01 12:19:17.713,50.78,24.2,-25.49,0.41,0.78,0.48,-1.08,1.54,-0.56,27.65,12.5,13.22,0.22,0.47,0.88,-0.9,-0.41,-1.08
1900-01-01 12:19:17.793,53.25,22.25,-25.58,0.37,0.79,0.46,-1.31,0.59,-0.4,27.73,10.12,13.22,0.18,0.48,0.9,-0.16,0.82,-2.04
1900-01-01 12:19:17.879,52.14,23.88,-25.65,0.39,0.76,0.44,-1.24,0.66,0.6,28.99,11.47,13.06,0.19,0.47,0.83,0.69,-1.95,-0.95
1900-01-01 12:19:17.974,52.12,24.21,-25.57,0.39,0.76,0.44,-0.36,1.44,-1.27,28.91,11.96,13.08,0.2,0.47,0.83,-0.82,0.95,-1.91
1900-01-01 12:19:18.014,52.53,23.71,-25.77,0.4,0.78,0.45,-0.73,2.34,-1.02,29.37,10.93,12.94,0.19,0.5,0.87,-0.68,2.08,-1.25
1900-01-01 12:19:18.107,52.61,22.9,-25.94,0.39,0.79,0.46,-0.76,1.83,-0.28,27.98,10.63,12.91,0.19,0.48,0.89,-0.05,1.18,-0.6
1900-01-01 12:19:18.166,52.44,22.93,-25.99,0.38,0.77,0.46,-0.99,1.09,0.35,28.07,11.16,12.98,0.19,0.47,0.86,0.29,-0.91,-0.61
1900-01-01 12:19:18.264,52.1,23.31,-25.94,0.38,0.76,0.45,-0.86,2.08,-0.56,28.24,11.79,13.04,0.2,0.46,0.84,-1.18,0.74,-0.74
1900-01-01 12:19:18.341,52.7,22.85,-26.04,0.39,0.79,0.46,-0.85,1.47,-1.15,27.77,11.21,13.09,0.2,0.48,0.88,-0.95,1.02,-1.82
1900-01-01 12:19:18.388,52.7,22.95,-26.22,0.38,0.78,0.46,-0.98,0.27,0.34,27.92,10.34,12.97,0.18,0.48,0.88,0.73,-1.8,-1.15
1900-01-01 12:19:18.482,53.24,23.18,-26.18,0.38,0.78,0.44,-1.24,0.95,0.27,29.75,9.86,12.95,0.17,0.5,0.86,0.38,0.0,-1.29
1900-01-01 12:19:18.548,52.64,23.65,-26.15,0.39,0.78,0.44,-0.82,1.38,0.13,29.51,11.25,12.91,0.19,0.49,0.84,0.18,0.08,-0.85
1900-01-01 12:19:18.662,52.99,22.55,-26.14,0.38,0.8,0.46,-1.29,1.1,0.74,28.43,9.95,12.94,0.18,0.49,0.89,1.72,-2.18,0.6
1900-01-01 12:19:18.756,52.19,23.13,-26.03,0.39,0.78,0.46,-1.7,1.05,0.16,29.11,11.81,13.19,0.2,0.48,0.85,1.02,-3.22,-0.25
1900-01-01 12:19:18.791,53.59,22.54,-26.02,0.37,0.78,0.44,-1.21,0.08,0.44,29.14,10.22,13.31,0.18,0.49,0.86,0.2,-2.58,-0.86
1900-01-01 12:19:19.044,52.52,23.61,-25.96,0.39,0.77,0.44,-1.38,1.2,0.4,29.94,11.69,13.33,0.2,0.49,0.83,-0.24,-1.38,-0.53
1900-01-01 12:19:19.044,51.99,24.07,-25.91,0.4,0.78,0.46,-0.68,0.89,-0.62,29.6,12.33,13.41,0.22,0.5,0.86,0.06,0.67,-2.4
1900-01-01 12:19:19.044,53.39,23.06,-26.01,0.38,0.79,0.44,-0.66,0.53,-0.11,29.78,10.9,13.2,0.19,0.5,0.86,1.24,0.11,-1.53
1900-01-01 12:19:19.090,53.0,23.61,-26.03,0.39,0.78,0.44,-0.87,1.02,-0.33,30.36,11.51,13.13,0.2,0.5,0.83,0.11,-0.17,-1.28
1900-01-01 12:19:19.138,53.1,23.46,-26.09,0.39,0.78,0.44,-1.0,1.17,-0.5,29.98,11.16,13.09,0.2,0.5,0.85,-0.5,0.17,-1.47
1900-01-01 12:19:19.223,53.43,23.21,-26.18,0.39,0.79,0.44,-0.81,0.96,-0.08,30.17,10.51,13.02,0.19,0.51,0.86,-0.15,0.4,-1.33
1900-01-01 12:19:19.336,53.43,23.51,-26.2,0.39,0.79,0.43,-1.23,0.9,0.27,30.88,10.81,12.98,0.19,0.52,0.84,-0.21,-0.53,-0.87
1900-01-01 12:19:19.415,52.79,23.92,-26.16,0.4,0.78,0.44,-1.14,0.79,0.3,30.12,11.56,13.0,0.2,0.5,0.84,0.08,-0.66,-0.81
1900-01-01 12:19:19.461,53.21,23.82,-26.13,0.39,0.78,0.43,-0.57,0.72,0.13,31.21,11.12,13.04,0.19,0.51,0.82,1.07,-0.65,-1.3
1900-01-01 12:19:19.555,52.23,24.41,-26.12,0.41,0.78,0.44,-1.15,1.85,-0.56,30.04,12.6,13.0,0.22,0.5,0.84,-1.15,1.06,-0.86
1900-01-01 12:19:19.638,53.09,23.63,-26.21,0.4,0.8,0.45,-1.12,0.73,-0.21,30.22,11.46,13.02,0.2,0.52,0.86,-0.17,-0.43,-1.35
1900-01-01 12:19:19.703,54.01,23.17,-26.25,0.39,0.8,0.43,-1.47,0.87,0.84,31.11,10.06,12.98,0.18,0.52,0.85,-0.3,-1.48,-0.34
1900-01-01 12:19:19.815,53.05,23.76,-26.13,0.39,0.78,0.43,-1.73,1.82,0.97,30.72,11.02,13.08,0.19,0.51,0.84,-1.15,-0.18,0.3
1900-01-01 12:19:19.896,52.71,23.96,-25.99,0.4,0.78,0.44,-1.0,1.66,0.58,30.17,11.52,13.29,0.2,0.51,0.85,-0.34,0.05,-0.11
1900-01-01 12:19:19.930,53.15,23.93,-25.91,0.4,0.78,0.43,-1.11,1.52,0.39,30.67,11.41,13.43,0.2,0.51,0.84,-0.45,-0.22,-0.36
1900-01-01 12:19:20.001,53.52,23.43,-25.86,0.39,0.79,0.43,-1.59,1.52,0.7,30.34,10.7,13.53,0.19,0.51,0.85,-0.64,-0.73,0.05
1900-01-01 12:19:20.102,53.85,23.09,-25.76,0.37,0.77,0.42,-0.86,1.29,0.97,30.66,10.31,13.7,0.18,0.5,0.83,1.06,0.05,-0.05
1900-01-01 12:19:20.185,52.9,23.97,-25.62,0.39,0.76,0.42,-0.96,1.61,0.08,30.97,11.56,13.85,0.19,0.49,0.8,-0.41,-0.71,-0.61
1900-01-01 12:19:20.212,51.97,24.55,-25.62,0.41,0.78,0.45,-1.23,2.1,-1.44,30.02,12.11,13.91,0.21,0.51,0.86,-2.05,1.31,-1.47
1900-01-01 12:19:20.306,53.35,23.08,-25.85,0.4,0.81,0.45,-1.67,0.69,-0.72,29.95,10.8,13.85,0.2,0.52,0.88,-0.67,0.09,-1.62
1900-01-01 12:19:20.375,53.04,23.65,-25.97,0.39,0.79,0.44,-2.21,-0.59,0.77,29.67,11.17,13.76,0.2,0.51,0.87,-0.46,-2.68,-1.11
1900-01-01 12:19:20.484,53.63,23.88,-25.86,0.39,0.77,0.42,-1.53,0.05,0.61,31.79,10.41,13.75,0.18,0.52,0.81,-0.82,-1.95,-1.34
1900-01-01 12:19:20.531,52.61,25.16,-25.77,0.42,0.78,0.42,-1.14,1.94,-0.15,32.31,12.57,13.7,0.22,0.53,0.81,-1.21,0.87,-0.73
1900-01-01 12:19:20.625,52.96,23.96,-25.8,0.4,0.78,0.44,-1.61,2.51,0.68,31.16,10.76,13.75,0.19,0.52,0.85,-1.21,0.22,0.44
1900-01-01 12:19:20.671,52.39,23.86,-25.71,0.39,0.77,0.44,-1.85,2.89,0.49,29.89,11.76,13.97,0.2,0.49,0.83,-1.09,-0.12,0.73
1900-01-01 12:19:20.765,51.86,24.04,-25.64,0.39,0.76,0.45,-0.92,2.42,-0.8,29.01,12.31,14.25,0.21,0.48,0.84,-1.27,1.45,-0.7
1900-01-01 12:19:20.870,52.91,23.46,-25.77,0.39,0.78,0.45,-0.97,1.7,-1.55,29.87,11.25,14.3,0.2,0.5,0.85,-1.68,1.15,-2.02
1900-01-01 12:19:20.906,53.42,23.02,-26.02,0.39,0.79,0.44,-1.17,1.47,-1.11,29.76,10.46,14.14,0.18,0.51,0.86,-1.56,0.16,-1.8
1900-01-01 12:19:20.998,53.19,23.1,-26.2,0.38,0.78,0.44,-0.75,0.79,0.02,29.6,10.16,14.03,0.18,0.5,0.86,-0.06,-0.24,-1.17
1900-01-01 12:19:21.058,53.34,23.3,-26.2,0.39,0.78,0.44,0.52,0.55,-0.69,30.14,11.0,14.01,0.19,0.5,0.83,0.68,0.78,-2.44
1900-01-01 12:19:21.167,53.67,23.36,-26.32,0.39,0.8,0.44,0.68,0.37,-0.56,30.41,10.57,13.79,0.19,0.51,0.85,1.28,-0.03,-2.53
1900-01-01 12:19:21.242,54.16,22.9,-26.41,0.38,0.8,0.43,0.33,0.29,0.31,30.77,9.72,13.57,0.17,0.52,0.86,1.76,-0.15,-1.37
1900-01-01 12:19:21.282,53.85,23.28,-26.37,0.39,0.79,0.43,-0.69,0.22,-0.08,30.59,10.45,13.51,0.18,0.51,0.84,0.31,-0.71,-1.62
1900-01-01 12:19:21.375,53.43,24.18,-26.39,0.4,0.79,0.43,-1.12,0.27,-0.34,31.0,10.75,13.43,0.19,0.52,0.84,-0.08,-0.74,-1.82
1900-01-01 12:19:21.468,53.68,24.47,-26.45,0.41,0.8,0.42,-1.47,0.63,0.14,32.1,10.54,13.3,0.19,0.54,0.84,-0.34,-1.04,-1.38
1900-01-01 12:19:21.537,54.01,24.16,-26.44,0.4,0.79,0.41,-1.68,1.46,0.4,32.17,10.7,13.25,0.18,0.53,0.82,-0.2,-0.55,-0.4
1900-01-01 12:19:21.615,53.93,23.96,-26.38,0.4,0.79,0.42,-1.37,1.81,-0.12,31.83,10.68,13.35,0.18,0.52,0.82,-0.69,0.11,-0.51
1900-01-01 12:19:21.720,53.91,23.6,-26.41,0.39,0.79,0.42,-1.74,2.13,0.13,31.12,10.34,13.43,0.18,0.52,0.84,-1.16,-0.14,-0.14
1900-01-01 12:19:21.751,53.96,23.43,-26.4,0.39,0.8,0.43,-1.7,2.04,0.47,30.93,10.36,13.57,0.18,0.52,0.85,-0.67,0.09,-0.02
1900-01-01 12:19:21.839,53.41,23.47,-26.34,0.39,0.79,0.44,-1.86,1.69,0.93,30.87,10.59,13.72,0.19,0.52,0.85,-0.18,-1.08,0.4
1900-01-01 12:19:21.909,53.18,23.39,-26.2,0.38,0.78,0.44,-1.68,1.6,0.91,30.12,10.9,13.94,0.19,0.5,0.84,-0.44,-0.85,0.05
1900-01-01 12:19:22.023,53.46,23.47,-26.07,0.39,0.79,0.43,-1.63,1.08,0.34,30.49,10.61,14.11,0.18,0.51,0.84,-0.96,-1.01,-0.79
1900-01-01 12:19:22.095,53.65,23.96,-26.03,0.4,0.79,0.42,-1.46,1.1,0.07,31.23,10.74,14.15,0.19,0.52,0.84,-0.74,-0.6,-0.88
1900-01-01 12:19:22.122,53.33,23.98,-26.03,0.4,0.79,0.43,-1.56,1.38,0.68,31.39,10.37,14.17,0.18,0.53,0.85,-0.27,-0.58,-0.31
1900-01-01 12:19:22.213,52.78,24.06,-25.93,0.39,0.77,0.43,-1.34,0.93,0.27,30.15,11.83,14.28,0.2,0.5,0.83,-0.39,-0.97,-0.72
1900-01-01 12:19:22.300,53.48,23.81,-25.9,0.39,0.78,0.42,-1.44,1.35,-0.3,31.45,10.81,14.33,0.18,0.51,0.82,-0.93,-0.14,-1.05
1900-01-01 12:19:22.401,53.19,23.75,-25.95,0.39,0.78,0.43,-1.15,1.21,-0.72,30.75,11.05,14.33,0.19,0.51,0.83,-0.55,0.21,-1.48
1900-01-01 12:19:22.498,53.54,23.68,-26.07,0.4,0.79,0.43,-0.88,0.96,-0.78,31.2,10.71,14.26,0.19,0.52,0.84,-0.38,0.27,-1.87
1900-01-01 12:19:22.537,53.49,23.95,-26.2,0.4,0.79,0.43,-1.21,1.24,-0.74,31.5,11.11,14.13,0.19,0.52,0.83,-0.79,0.11,-1.47
1900-01-01 12:19:22.612,53.7,23.83,-26.32,0.4,0.79,0.43,-1.48,1.79,-0.14,31.6,10.82,14.07,0.19,0.53,0.83,-0.86,-0.37,-0.47
1900-01-01 12:19:22.797,53.37,23.64,-26.35,0.39,0.78,0.43,-1.52,1.97,-0.23,30.87,11.08,14.15,0.19,0.51,0.83,-0.93,0.1,-0.39
1900-01-01 12:19:22.797,53.52,23.25,-26.39,0.39,0.79,0.43,-1.52,1.85,-0.01,30.45,10.7,14.25,0.19,0.51,0.85,-0.66,-0.09,-0.34
1900-01-01 12:19:22.876,53.18,23.43,-26.4,0.39,0.78,0.44,-1.6,1.26,-0.62,30.49,11.0,14.36,0.19,0.51,0.84,-0.66,-0.11,-0.7
1900-01-01 12:19:22.902,53.33,23.38,-26.51,0.39,0.78,0.44,-1.52,1.69,-0.08,30.49,10.7,14.41,0.19,0.51,0.84,-1.31,-0.17,-0.58
1900-01-01 12:19:22.982,53.17,23.58,-26.53,0.39,0.79,0.44,-1.19,1.43,0.02,30.3,11.0,14.48,0.19,0.51,0.85,-0.54,-0.09,-0.79
1900-01-01 12:19:23.090,53.23,23.42,-26.53,0.39,0.78,0.44,-1.98,1.42,0.05,30.06,11.34,14.51,0.2,0.5,0.84,-1.6,-1.53,-0.6
1900-01-01 12:19:23.130,53.35,23.28,-26.54,0.39,0.78,0.44,-1.92,1.7,-0.06,30.8,10.87,14.58,0.19,0.51,0.84,-2.05,-0.58,0.14
1900-01-01 12:19:23.224,53.34,23.08,-26.55,0.39,0.8,0.45,-6.79,2.22,0.15,30.81,9.68,14.76,0.18,0.53,0.88,-11.05,-5.05,1.15
1900-01-01 12:19:23.298,52.24,23.81,-26.54,0.4,0.78,0.46,-12.53,1.7,1.49,28.22,12.45,15.1,0.22,0.47,0.86,-24.08,-6.5,4.6
1900-01-01 12:19:23.401,49.59,24.12,-26.32,0.39,0.73,0.48,-7.52,2.56,1.62,21.54,14.44,15.96,0.24,0.36,0.88,-16.66,-0.75,2.72
1900-01-01 12:19:23.481,49.81,23.53,-26.08,0.39,0.75,0.5,-3.01,2.79,1.12,22.07,13.05,16.54,0.23,0.38,0.91,-0.11,1.8,2.38
1900-01-01 12:19:23.514,49.55,23.05,-25.92,0.39,0.75,0.51,-2.02,2.03,0.95,21.81,13.0,17.06,0.23,0.38,0.92,1.85,1.44,1.37
1900-01-01 12:19:23.578,49.6,23.56,-25.78,0.39,0.74,0.5,-1.17,1.63,0.75,22.05,12.66,17.42,0.22,0.38,0.92,2.24,0.99,0.52
1900-01-01 12:19:23.678,49.1,23.91,-25.68,0.4,0.74,0.5,-0.47,1.51,0.41,21.58,14.38,17.66,0.25,0.37,0.9,2.51,1.13,0.31
1900-01-01 12:19:23.796,49.48,23.81,-25.62,0.39,0.74,0.5,-0.01,1.94,0.59,22.28,13.58,17.87,0.24,0.38,0.9,2.07,0.11,0.21
1900-01-01 12:19:23.869,49.58,23.81,-25.54,0.4,0.75,0.5,-0.39,1.71,0.74,22.8,14.76,18.06,0.25,0.38,0.88,1.18,-0.28,0.09
1900-01-01 12:19:23.900,50.19,23.2,-25.44,0.38,0.74,0.49,-0.21,1.63,0.47,22.79,13.31,18.23,0.23,0.39,0.89,2.47,0.94,-0.02
1900-01-01 12:19:23.967,49.89,23.17,-25.37,0.38,0.75,0.5,-0.61,1.88,0.4,23.58,13.32,18.39,0.23,0.4,0.88,-0.27,1.02,-0.47
1900-01-01 12:19:24.066,49.14,24.46,-25.32,0.41,0.75,0.5,-0.79,2.02,0.83,23.39,13.59,18.47,0.24,0.4,0.9,-2.27,5.79,-1.95
1900-01-01 12:19:24.114,49.13,23.79,-25.2,0.4,0.74,0.51,-1.51,1.57,1.17,22.75,12.07,18.33,0.21,0.4,0.92,0.39,0.05,0.73
1900-01-01 12:19:24.209,49.8,23.35,-25.03,0.38,0.74,0.49,-0.84,0.8,0.66,23.16,12.23,18.6,0.21,0.39,0.89,1.34,0.92,-0.5
1900-01-01 12:19:24.270,48.91,24.41,-24.94,0.4,0.73,0.5,-0.96,1.08,0.08,23.27,13.06,18.68,0.23,0.39,0.89,1.21,-1.09,-0.56
1900-01-01 12:19:24.371,49.45,23.98,-24.94,0.4,0.74,0.49,-0.63,0.85,-0.39,23.55,12.31,18.76,0.21,0.4,0.9,0.7,-0.01,-1.17
1900-01-01 12:19:24.463,49.18,24.55,-25.01,0.41,0.74,0.49,-0.34,1.18,-0.4,24.22,13.56,18.74,0.23,0.41,0.88,0.76,-0.21,-1.05
1900-01-01 12:19:24.562,49.44,24.07,-25.08,0.4,0.74,0.5,-0.59,1.4,-0.05,24.15,12.45,18.73,0.22,0.41,0.89,0.74,-0.26,-0.78
1900-01-01 12:19:24.636,49.49,24.15,-25.09,0.4,0.74,0.49,-0.24,1.02,0.07,24.23,12.03,18.77,0.21,0.42,0.91,0.89,-0.4,-1.34
1900-01-01 12:19:24.680,49.69,24.27,-25.09,0.4,0.74,0.49,-0.24,0.9,-0.11,25.0,12.97,18.73,0.22,0.42,0.87,2.3,-0.48,-1.01
1900-01-01 12:19:24.731,50.08,23.96,-25.11,0.4,0.75,0.48,-0.34,1.34,-0.62,25.23,12.9,18.73,0.22,0.42,0.87,1.7,-0.82,-0.47
1900-01-01 12:19:24.826,50.14,23.72,-25.22,0.39,0.75,0.49,-0.24,1.11,-0.98,25.08,12.47,18.82,0.22,0.43,0.88,1.96,1.31,-0.18
1900-01-01 12:19:25.101,50.31,23.91,-25.37,0.4,0.76,0.49,-0.66,0.87,-0.67,25.42,12.32,18.95,0.22,0.44,0.9,-0.11,0.08,-1.31
1900-01-01 12:19:25.101,50.74,23.48,-25.49,0.39,0.77,0.49,-1.07,0.5,0.02,26.26,11.55,18.9,0.21,0.45,0.9,0.34,-1.05,-1.39
1900-01-01 12:19:25.101,50.59,24.07,-25.49,0.4,0.75,0.47,-1.37,0.69,0.2,26.48,12.46,18.85,0.22,0.45,0.87,0.03,-1.38,-0.89
1900-01-01 12:19:25.199,50.53,24.09,-25.47,0.4,0.75,0.47,-2.83,1.53,0.11,27.04,12.16,18.87,0.21,0.45,0.86,-2.54,-1.62,-0.3
1900-01-01 12:19:25.199,50.41,24.24,-25.46,0.4,0.75,0.48,-1.73,1.44,-0.45,26.08,12.84,18.99,0.22,0.44,0.87,-1.12,0.4,0.1
1900-01-01 12:19:25.294,50.54,23.26,-25.54,0.38,0.75,0.48,-0.47,1.43,-0.21,25.14,12.08,19.16,0.21,0.43,0.88,0.54,0.44,-0.97
1900-01-01 12:19:25.334,50.27,23.65,-25.58,0.39,0.75,0.49,-0.66,1.89,-1.06,25.45,13.38,19.17,0.23,0.42,0.86,-1.05,-0.02,-1.02
1900-01-01 12:19:25.425,50.19,23.8,-25.75,0.4,0.76,0.49,-1.3,2.02,-0.86,25.5,12.47,19.17,0.22,0.44,0.9,-0.89,-0.69,-0.61
1900-01-01 12:19:25.565,50.42,23.59,-25.89,0.39,0.75,0.48,-1.07,1.67,-0.48,26.08,12.69,19.24,0.22,0.45,0.89,0.4,-0.88,0.12
1900-01-01 12:19:25.565,50.28,23.09,-25.97,0.38,0.75,0.49,-1.4,1.33,-1.05,25.64,13.45,19.41,0.23,0.43,0.87,-0.02,-1.74,-0.5
1900-01-01 12:19:25.660,50.6,23.14,-26.14,0.39,0.76,0.49,-1.48,1.37,-1.37,25.66,13.34,19.49,0.23,0.44,0.88,-0.77,-0.8,-1.18
1900-01-01 12:19:25.766,50.71,22.84,-26.36,0.38,0.76,0.49,-2.05,1.2,-0.37,26.03,12.72,19.47,0.23,0.45,0.89,-0.69,-1.09,-0.97
1900-01-01 12:19:25.800,50.77,22.76,-26.42,0.38,0.76,0.49,-2.14,0.95,-0.36,26.08,13.39,19.48,0.23,0.44,0.87,-1.31,-0.93,-1.08
1900-01-01 12:19:25.892,51.02,22.59,-26.49,0.38,0.77,0.49,-1.98,0.83,0.24,26.07,12.64,19.47,0.22,0.45,0.89,-1.03,-1.56,-0.92
1900-01-01 12:19:25.970,50.52,22.89,-26.46,0.38,0.75,0.49,-1.83,0.73,0.85,25.97,13.12,19.49,0.23,0.44,0.88,-0.51,-1.32,-0.66
1900-01-01 12:19:26.079,50.02,23.18,-26.34,0.38,0.75,0.49,-1.5,0.6,0.66,25.16,14.0,19.55,0.24,0.42,0.87,-0.44,-1.38,-0.63
1900-01-01 12:19:26.146,49.96,23.3,-26.24,0.38,0.74,0.49,-0.98,0.71,0.84,25.52,13.74,19.61,0.24,0.43,0.87,0.47,-0.95,-0.5
1900-01-01 12:19:26.174,50.02,23.42,-26.12,0.39,0.74,0.49,-0.68,0.74,0.27,25.94,13.92,19.69,0.24,0.43,0.86,0.17,-0.56,-1.25
1900-01-01 12:19:26.271,50.38,23.85,-26.09,0.4,0.76,0.48,-0.85,0.63,0.05,26.4,13.83,19.66,0.24,0.45,0.87,-0.4,-1.0,-1.29
1900-01-01 12:19:26.339,50.69,23.69,-26.09,0.4,0.76,0.48,-1.23,0.84,0.4,26.9,13.18,19.62,0.23,0.46,0.88,-0.06,-0.71,-0.81
1900-01-01 12:19:26.435,50.66,23.66,-26.04,0.39,0.75,0.48,-1.2,0.66,0.58,26.67,13.47,19.65,0.23,0.45,0.86,-0.07,-1.36,-0.74
1900-01-01 12:19:26.528,50.52,23.69,-25.96,0.39,0.74,0.47,-1.03,1.05,-0.1,26.45,13.71,19.7,0.23,0.44,0.85,-0.03,-0.48,-0.98
1900-01-01 12:19:26.622,50.58,23.73,-25.98,0.39,0.75,0.48,-0.91,1.43,-0.79,26.74,13.63,19.71,0.24,0.45,0.86,-1.22,0.69,-1.65
1900-01-01 12:19:26.648,50.58,23.67,-26.11,0.4,0.77,0.49,-1.17,1.44,-0.12,27.11,13.06,19.61,0.23,0.47,0.88,-0.53,-0.2,-1.11
1900-01-01 12:19:26.712,50.31,23.81,-26.14,0.39,0.75,0.48,-1.18,1.51,0.02,26.49,13.69,19.6,0.24,0.45,0.86,-0.53,-0.52,-0.6
1900-01-01 12:19:26.807,50.62,23.67,-26.14,0.39,0.75,0.48,-1.11,2.15,-0.73,26.59,13.84,19.67,0.24,0.44,0.86,-1.18,0.85,-0.98
1900-01-01 12:19:27.111,50.82,23.45,-26.26,0.39,0.76,0.48,-1.15,2.23,-0.43,26.91,13.15,19.68,0.23,0.46,0.88,-1.04,0.98,-0.79
1900-01-01 12:19:27.111,50.7,22.8,-26.34,0.38,0.76,0.49,-1.15,1.33,-0.13,25.46,13.36,19.71,0.24,0.44,0.89,-0.24,-0.01,-0.69
1900-01-01 12:19:27.111,50.96,22.87,-26.37,0.38,0.75,0.48,-1.2,1.31,0.02,26.62,12.49,19.77,0.22,0.45,0.87,-0.55,-0.02,-0.89
1900-01-01 12:19:27.111,50.24,22.95,-26.37,0.37,0.74,0.49,-0.52,0.92,-1.05,25.38,14.04,19.79,0.24,0.42,0.85,0.05,0.62,-1.61
1900-01-01 12:19:27.200,51.26,23.3,-26.54,0.39,0.77,0.48,-0.34,0.71,-2.36,26.96,12.77,19.7,0.22,0.46,0.87,0.45,0.66,-2.53
1900-01-01 12:19:27.286,52.06,22.81,-26.91,0.39,0.79,0.48,-1.01,0.61,-0.56,27.78,11.77,19.47,0.21,0.49,0.9,-0.87,-0.02,-2.16
1900-01-01 12:19:27.379,50.95,23.25,-27.0,0.39,0.76,0.48,-1.23,0.77,0.62,27.06,13.3,19.3,0.23,0.46,0.87,0.63,-0.81,-0.53
1900-01-01 12:19:27.459,50.91,23.19,-26.92,0.38,0.74,0.47,-0.61,1.05,-0.24,26.48,13.51,19.38,0.23,0.44,0.85,0.31,0.53,-0.78
1900-01-01 12:19:27.488,51.25,22.59,-26.96,0.37,0.75,0.48,-0.47,1.3,-0.92,25.98,12.95,19.42,0.22,0.44,0.86,-0.53,1.05,-1.6
1900-01-01 12:19:27.575,51.98,22.71,-27.11,0.38,0.78,0.48,-0.58,1.01,-1.29,27.56,12.02,19.33,0.21,0.47,0.88,-0.86,0.5,-2.4
1900-01-01 12:19:27.659,51.84,22.86,-27.32,0.39,0.78,0.48,-1.23,0.87,0.31,27.45,11.82,19.12,0.21,0.48,0.89,-0.27,-0.91,-0.99
1900-01-01 12:19:27.743,51.43,23.21,-27.28,0.38,0.76,0.47,-1.01,1.02,0.4,27.29,12.98,19.13,0.22,0.46,0.85,0.34,-0.66,-0.81
1900-01-01 12:19:27.837,52.19,22.73,-27.23,0.37,0.77,0.46,-0.97,1.53,-0.35,27.86,12.24,19.16,0.21,0.46,0.85,-0.15,0.63,-1.01
1900-01-01 12:19:27.870,51.88,22.61,-27.29,0.38,0.78,0.48,-1.23,1.54,-0.08,27.2,11.98,19.17,0.21,0.47,0.88,-0.82,0.02,-0.89
1900-01-01 12:19:27.961,51.32,23.06,-27.31,0.39,0.77,0.48,-1.46,1.15,0.31,26.99,12.68,19.19,0.22,0.46,0.88,-0.08,-0.38,-0.53
1900-01-01 12:19:28.038,51.79,22.83,-27.27,0.38,0.76,0.47,-1.07,0.98,-0.02,27.4,12.43,19.27,0.21,0.46,0.86,-0.34,-0.57,-1.05
1900-01-01 12:19:28.137,51.77,23.03,-27.28,0.38,0.77,0.47,-1.56,1.6,0.15,27.91,12.17,19.26,0.21,0.47,0.86,-0.76,-0.24,-0.6
1900-01-01 12:19:28.216,51.31,23.02,-27.27,0.38,0.77,0.48,-1.74,1.13,0.56,26.9,12.5,19.33,0.22,0.46,0.88,-0.69,-1.04,-0.45
1900-01-01 12:19:28.242,51.87,22.7,-27.19,0.38,0.77,0.47,-1.69,1.11,0.37,27.57,12.22,19.42,0.21,0.46,0.86,-0.6,-0.77,-0.76
1900-01-01 12:19:28.334,51.36,22.92,-27.14,0.38,0.76,0.48,-1.63,1.03,0.67,27.02,12.33,19.46,0.22,0.46,0.87,-0.67,-1.06,-0.46
1900-01-01 12:19:28.397,51.2,23.24,-27.05,0.39,0.76,0.47,-1.5,0.66,0.53,27.34,12.75,19.55,0.22,0.46,0.87,-0.72,-1.32,-1.02
1900-01-01 12:19:28.495,51.12,23.49,-26.98,0.39,0.75,0.47,-1.63,0.89,0.41,27.62,13.1,19.55,0.23,0.46,0.85,-0.82,-1.27,-0.82
1900-01-01 12:19:28.610,51.64,23.04,-26.92,0.38,0.76,0.47,-1.37,1.15,0.16,27.51,12.43,19.58,0.22,0.46,0.86,-0.53,-0.23,-0.91
1900-01-01 12:19:28.682,51.17,23.44,-26.91,0.39,0.76,0.47,-1.4,1.2,0.4,27.53,12.83,19.6,0.22,0.47,0.87,-0.26,-0.61,-0.65
1900-01-01 12:19:28.718,51.21,23.52,-26.85,0.39,0.76,0.47,-1.31,1.18,0.44,27.55,12.87,19.66,0.22,0.47,0.86,-0.33,-0.81,-0.66
1900-01-01 12:19:28.776,51.08,23.52,-26.79,0.39,0.76,0.47,-1.4,1.36,0.56,27.57,12.95,19.72,0.22,0.46,0.86,-0.06,-0.6,-0.4
1900-01-01 12:19:28.870,51.24,23.21,-26.72,0.38,0.76,0.47,-1.31,1.31,-0.02,27.07,13.36,19.82,0.23,0.45,0.85,-0.23,-0.57,-0.73
1900-01-01 12:19:28.982,51.28,23.43,-26.73,0.39,0.76,0.47,-0.69,1.21,-0.14,27.45,12.92,19.86,0.22,0.46,0.86,0.6,0.12,-0.93
1900-01-01 12:19:29.066,51.0,23.59,-26.76,0.39,0.76,0.48,-1.24,1.3,0.25,27.66,12.67,19.88,0.22,0.47,0.87,-0.4,-0.28,-0.71
1900-01-01 12:19:29.113,51.09,23.65,-26.73,0.39,0.75,0.47,-1.09,1.08,-0.02,27.76,12.93,19.93,0.22,0.47,0.86,-0.37,-1.09,-0.86
1900-01-01 12:19:29.252,51.3,23.44,-26.74,0.38,0.75,0.47,-0.72,1.4,-0.46,27.67,13.43,19.95,0.23,0.45,0.84,0.12,-0.27,-0.92
1900-01-01 12:19:29.252,51.11,23.66,-26.82,0.39,0.76,0.47,-0.71,1.61,-0.83,27.72,13.47,19.97,0.24,0.47,0.86,-0.72,0.88,-1.54
1900-01-01 12:19:29.448,51.73,23.09,-26.95,0.39,0.78,0.47,-0.66,1.21,-0.36,27.83,12.39,19.89,0.22,0.48,0.88,-0.11,0.28,-1.54
1900-01-01 12:19:29.448,51.13,23.46,-27.02,0.4,0.78,0.48,-1.44,1.38,0.05,27.93,13.13,19.82,0.23,0.48,0.87,-0.66,0.46,-0.69
1900-01-01 12:19:29.525,51.61,22.72,-27.02,0.38,0.76,0.47,-1.46,0.47,0.62,27.39,12.6,19.87,0.22,0.46,0.87,0.18,-1.62,-0.74
1900-01-01 12:19:29.556,52.34,22.77,-26.93,0.37,0.76,0.45,-1.34,1.05,-0.45,28.15,12.69,19.91,0.21,0.46,0.82,-0.27,-0.72,-1.35
1900-01-01 12:19:29.638,51.88,23.28,-27.01,0.39,0.78,0.47,-1.4,1.97,-0.85,28.8,12.11,19.86,0.21,0.49,0.86,-1.3,0.91,-1.38
1900-01-01 12:19:29.710,51.67,23.15,-27.15,0.38,0.77,0.47,-1.19,0.87,0.46,27.89,12.14,19.81,0.21,0.48,0.88,0.28,-0.56,-0.79
1900-01-01 12:19:29.809,51.03,23.74,-27.09,0.39,0.75,0.46,-0.67,1.33,-0.39,27.85,13.78,19.85,0.23,0.46,0.83,-0.02,0.3,-0.97
1900-01-01 12:19:29.859,51.36,23.41,-27.15,0.39,0.77,0.47,-0.95,2.1,-0.86,28.01,13.15,19.86,0.23,0.47,0.85,-1.44,0.82,-1.32
1900-01-01 12:19:29.954,51.36,23.13,-27.29,0.39,0.77,0.48,-1.07,1.85,-0.31,27.42,12.65,19.82,0.22,0.47,0.87,-0.96,-0.08,-0.69
1900-01-01 12:19:30.013,51.95,22.55,-27.35,0.37,0.77,0.47,-0.8,1.86,-0.44,27.85,12.02,19.87,0.21,0.47,0.86,-0.65,0.78,-1.0
1900-01-01 12:19:30.119,51.91,22.65,-27.42,0.38,0.77,0.47,-0.76,1.73,-0.68,27.5,12.08,19.87,0.21,0.47,0.87,-0.92,1.0,-1.2
1900-01-01 12:19:30.192,51.89,22.6,-27.54,0.38,0.78,0.48,-1.02,0.79,-0.24,27.31,12.03,19.85,0.21,0.47,0.89,-0.24,-0.34,-1.35
1900-01-01 12:19:30.237,52.19,22.79,-27.58,0.38,0.77,0.46,-1.43,0.63,0.29,28.1,11.81,19.8,0.21,0.48,0.87,0.2,-1.16,-1.03
1900-01-01 12:19:30.331,52.03,22.97,-27.55,0.38,0.76,0.46,-1.21,1.37,-0.22,28.46,12.32,19.8,0.21,0.47,0.84,-0.43,-0.17,-1.13
1900-01-01 12:19:30.387,52.15,22.85,-27.59,0.38,0.77,0.46,-1.08,1.44,-0.19,28.0,12.02,19.79,0.21,0.47,0.86,-0.59,0.13,-1.04
1900-01-01 12:19:30.494,52.11,22.7,-27.63,0.38,0.78,0.47,-1.25,1.24,0.01,27.87,12.08,19.79,0.21,0.48,0.87,-0.37,-0.18,-0.88
1900-01-01 12:19:30.562,51.86,22.89,-27.63,0.38,0.77,0.47,-1.45,1.18,0.17,27.65,12.3,19.81,0.21,0.47,0.86,-0.66,-0.83,-0.64
1900-01-01 12:19:30.654,52.32,22.56,-27.62,0.37,0.77,0.46,-1.11,1.46,-0.23,28.22,11.58,19.87,0.2,0.47,0.85,-0.4,-0.02,-1.01
1900-01-01 12:19:30.750,52.07,22.76,-27.66,0.38,0.78,0.47,-0.85,1.59,-0.47,28.19,12.13,19.87,0.21,0.48,0.86,-0.3,0.87,-1.22
1900-01-01 12:19:30.778,52.17,22.67,-27.74,0.38,0.78,0.47,-1.36,1.47,0.23,28.06,11.64,19.84,0.21,0.48,0.88,-0.66,-0.53,-0.57
1900-01-01 12:19:30.865,51.95,22.48,-27.71,0.37,0.77,0.47,-1.13,1.31,0.19,27.61,12.39,19.92,0.21,0.46,0.86,-0.24,-0.39,-0.65
1900-01-01 12:19:30.941,52.06,22.67,-27.69,0.38,0.77,0.47,-1.32,1.4,0.07,27.71,12.38,19.97,0.21,0.46,0.86,-0.87,-0.43,-0.67
1900-01-01 12:19:31.024,51.97,22.63,-27.69,0.38,0.77,0.47,-1.16,1.33,-0.09,27.84,12.26,20.03,0.21,0.47,0.86,-0.56,-0.02,-0.86
1900-01-01 12:19:31.117,52.05,22.77,-27.71,0.38,0.77,0.47,-1.05,1.27,-0.09,27.95,12.24,20.06,0.21,0.47,0.86,-0.38,-0.24,-0.98
1900-01-01 12:19:31.212,52.15,22.59,-27.74,0.38,0.77,0.47,-1.02,1.51,-0.07,28.07,11.96,20.06,0.21,0.47,0.86,-0.19,0.18,-0.89
1900-01-01 12:19:31.242,52.0,22.62,-27.75,0.38,0.77,0.47,-1.28,1.69,-0.12,28.01,12.17,20.09,0.21,0.47,0.86,-1.02,0.04,-0.71
1900-01-01 12:19:31.328,52.15,22.44,-27.78,0.38,0.78,0.47,-1.16,1.55,-0.2,27.82,12.07,20.14,0.21,0.47,0.87,-0.59,0.21,-0.95
1900-01-01 12:19:31.408,52.18,22.48,-27.82,0.38,0.78,0.47,-1.49,1.21,0.23,27.92,11.78,20.15,0.21,0.48,0.87,-0.18,-0.44,-0.66
1900-01-01 12:19:31.488,52.29,22.33,-27.79,0.37,0.77,0.47,-1.22,1.13,0.37,28.09,11.78,20.21,0.2,0.47,0.86,0.08,-0.5,-0.5
1900-01-01 12:19:31.578,52.04,22.69,-27.75,0.38,0.77,0.47,-1.63,1.5,0.27,28.4,12.04,20.29,0.21,0.48,0.86,-0.63,-0.53,-0.49
1900-01-01 12:19:31.636,51.76,22.64,-27.71,0.38,0.77,0.48,-1.55,1.5,0.36,27.8,12.34,20.37,0.22,0.47,0.87,-0.7,-0.31,-0.36
1900-01-01 12:19:31.759,51.79,22.59,-27.67,0.38,0.77,0.47,-1.71,1.09,0.7,27.74,12.06,20.47,0.21,0.47,0.87,-0.42,-1.24,-0.4
1900-01-01 12:19:31.792,51.56,22.9,-27.57,0.38,0.76,0.47,-1.62,1.29,0.45,27.77,12.59,20.57,0.22,0.46,0.85,-0.49,-0.55,-0.41
1900-01-01 12:19:31.863,51.67,22.77,-27.51,0.38,0.77,0.47,-1.82,1.27,0.05,27.71,12.62,20.67,0.22,0.46,0.85,-1.18,-0.73,-0.76
1900-01-01 12:19:32.149,51.72,22.74,-27.51,0.38,0.77,0.47,-1.61,1.4,0.28,28.13,11.97,20.71,0.21,0.48,0.87,-0.57,-0.71,-0.53
1900-01-01 12:19:32.149,51.56,22.84,-27.47,0.38,0.76,0.47,-1.85,1.66,0.17,28.08,12.32,20.79,0.21,0.47,0.86,-1.34,-0.59,-0.37
1900-01-01 12:19:32.149,51.31,22.91,-27.46,0.38,0.76,0.48,-1.73,1.74,0.37,27.77,12.33,20.89,0.22,0.47,0.87,-1.15,-0.56,-0.2
1900-01-01 12:19:32.149,51.41,22.86,-27.41,0.38,0.77,0.48,-1.51,1.6,0.49,28.09,12.21,21.02,0.21,0.48,0.87,-0.85,-0.48,-0.42
1900-01-01 12:19:32.242,51.54,22.6,-27.34,0.38,0.77,0.48,-1.53,1.66,0.57,27.41,12.58,21.11,0.22,0.46,0.87,-0.63,-0.41,-0.11
1900-01-01 12:19:32.318,51.28,22.3,-27.26,0.37,0.76,0.48,-1.25,1.4,0.42,26.96,12.83,21.25,0.22,0.45,0.86,-0.02,-0.35,-0.18
1900-01-01 12:19:32.426,51.23,22.9,-27.21,0.38,0.76,0.48,-1.26,0.85,0.27,27.18,12.79,21.38,0.22,0.46,0.87,-0.12,-0.73,-0.86
1900-01-01 12:19:32.505,51.05,23.13,-27.17,0.38,0.76,0.48,-1.21,0.96,0.37,27.25,13.05,21.41,0.23,0.46,0.86,-0.24,-0.79,-0.6
1900-01-01 12:19:32.533,51.42,22.88,-27.12,0.37,0.75,0.47,-0.93,0.82,0.03,27.5,13.04,21.48,0.22,0.46,0.85,0.08,-0.15,-1.08
1900-01-01 12:19:32.623,51.16,23.33,-27.13,0.38,0.75,0.47,-0.89,1.57,-0.66,28.01,13.28,21.47,0.23,0.46,0.84,-0.69,0.44,-1.4
1900-01-01 12:19:32.686,51.22,23.23,-27.24,0.39,0.77,0.48,-0.51,1.85,-0.18,27.65,12.74,21.41,0.22,0.47,0.87,-0.4,0.66,-0.68
1900-01-01 12:19:32.781,51.33,22.73,-27.27,0.38,0.77,0.48,-0.39,1.6,0.42,27.29,12.59,21.47,0.22,0.47,0.88,0.67,0.41,-0.45
1900-01-01 12:19:32.876,51.54,22.29,-27.22,0.37,0.77,0.48,-0.94,1.79,0.42,26.98,12.41,21.56,0.22,0.45,0.87,-0.24,0.14,-0.24
1900-01-01 12:19:32.968,51.11,22.58,-27.16,0.38,0.76,0.49,-0.98,0.91,-0.02,26.52,12.93,21.68,0.23,0.45,0.87,-0.36,-0.57,-1.02
1900-01-01 12:19:33.009,50.88,23.26,-27.17,0.39,0.76,0.48,-1.08,0.5,-0.55,27.28,13.55,21.68,0.23,0.46,0.86,-0.44,-0.61,-1.83
1900-01-01 12:19:33.077,51.74,23.02,-27.27,0.38,0.77,0.47,-0.7,0.27,-0.52,28.24,12.29,21.56,0.21,0.47,0.86,0.08,-0.61,-2.13
1900-01-01 12:19:33.186,52.11,23.22,-27.35,0.39,0.77,0.46,-1.16,1.4,-0.6,29.23,12.29,21.39,0.21,0.49,0.84,-0.66,0.07,-1.4
1900-01-01 12:19:33.262,51.45,23.26,-27.45,0.39,0.77,0.48,-1.34,1.92,-0.16,28.16,12.53,21.34,0.22,0.48,0.87,-0.6,0.48,-0.53
1900-01-01 12:19:33.292,51.98,22.63,-27.49,0.38,0.77,0.47,-1.54,1.59,0.37,28.41,11.98,21.41,0.21,0.48,0.87,-0.23,-0.46,-0.45
1900-01-01 12:19:33.383,51.47,22.72,-27.44,0.37,0.76,0.47,-1.24,1.57,0.07,27.32,12.77,21.5,0.22,0.46,0.86,-0.65,0.34,-0.6
1900-01-01 12:19:33.447,51.19,22.74,-27.44,0.38,0.76,0.48,-1.27,1.74,-0.47,27.27,13.25,21.57,0.23,0.45,0.85,-0.78,0.04,-0.85
1900-01-01 12:19:33.544,51.5,22.45,-27.52,0.37,0.77,0.48,-1.18,1.16,-0.15,27.14,11.83,21.6,0.21,0.47,0.88,-0.62,-0.37,-1.12
1900-01-01 12:19:33.657,51.66,22.77,-27.55,0.38,0.76,0.47,-1.07,1.21,-0.38,28.14,12.5,21.58,0.22,0.47,0.86,-0.48,0.3,-1.39
1900-01-01 12:19:33.727,51.8,22.73,-27.61,0.38,0.77,0.47,-1.22,1.47,-0.16,27.86,12.5,21.53,0.22,0.47,0.86,-0.85,-0.31,-0.88
1900-01-01 12:19:33.757,51.58,22.57,-27.65,0.37,0.77,0.48,-1.29,1.34,-0.21,27.43,12.43,21.55,0.22,0.46,0.86,-0.68,-0.4,-0.85
1900-01-01 12:19:33.842,52.24,21.93,-27.69,0.37,0.77,0.47,-1.05,1.05,-0.14,27.43,11.65,21.58,0.2,0.47,0.87,-0.32,-0.19,-1.14
1900-01-01 12:19:33.906,51.73,22.5,-27.72,0.37,0.76,0.47,-0.9,1.25,0.04,27.87,12.0,21.57,0.21,0.47,0.86,-0.04,-0.09,-0.92
1900-01-01 12:19:33.998,50.99,23.27,-27.72,0.38,0.75,0.47,-0.9,1.03,-0.26,27.28,13.23,21.58,0.23,0.46,0.85,-0.68,-0.6,-1.29
1900-01-01 12:19:34.118,52.67,22.06,-27.77,0.37,0.78,0.47,-0.73,1.64,-0.99,28.36,11.74,21.54,0.2,0.47,0.85,-0.99,1.0,-1.81
1900-01-01 12:19:34.187,52.59,21.47,-27.93,0.36,0.79,0.48,-1.02,1.13,0.12,27.43,10.72,21.42,0.19,0.48,0.9,0.02,-0.07,-0.94
1900-01-01 12:19:34.213,51.22,22.94,-27.92,0.38,0.77,0.48,-1.45,0.19,1.05,26.84,12.37,21.44,0.22,0.46,0.89,0.11,-1.84,-0.63
1900-01-01 12:19:34.299,50.51,24.46,-27.77,0.39,0.73,0.46,-1.12,0.15,0.66,28.15,14.24,21.5,0.24,0.46,0.82,1.01,-2.15,-0.85
1900-01-01 12:19:34.366,52.63,22.18,-27.67,0.36,0.76,0.45,-0.33,1.95,-1.98,28.78,12.62,21.53,0.21,0.46,0.81,-0.84,1.76,-2.2
1900-01-01 12:19:34.457,52.91,21.39,-27.99,0.36,0.8,0.48,-0.39,2.12,-1.89,27.55,11.07,21.35,0.2,0.47,0.89,-1.15,2.21,-2.02
1900-01-01 12:19:34.563,52.12,22.09,-28.28,0.38,0.8,0.49,-1.48,0.93,0.8,27.84,10.49,21.2,0.2,0.5,0.93,-0.57,-0.79,-0.61
1900-01-01 12:19:34.639,51.03,23.66,-28.17,0.39,0.75,0.47,-2.03,-0.09,2.18,28.03,13.15,21.27,0.23,0.47,0.86,0.43,-2.88,0.18
1900-01-01 12:19:34.671,52.17,22.79,-27.84,0.37,0.75,0.45,-1.04,0.78,0.02,28.21,13.4,21.45,0.22,0.45,0.8,0.16,-1.03,-0.96
1900-01-01 12:19:34.766,53.04,21.78,-27.85,0.37,0.79,0.47,-1.15,2.34,-1.33,28.51,10.93,21.47,0.19,0.48,0.86,-1.73,1.54,-1.37
1900-01-01 12:19:34.858,52.26,22.22,-28.06,0.39,0.81,0.49,-1.9,1.58,0.91,28.25,10.69,21.41,0.2,0.51,0.93,-1.46,-0.19,-0.16
1900-01-01 12:19:34.911,50.65,23.6,-27.93,0.39,0.75,0.48,-3.13,0.56,3.24,27.65,12.94,21.55,0.23,0.47,0.87,0.15,-3.56,1.6
1900-01-01 12:19:35.005,48.53,25.85,-27.44,0.39,0.67,0.44,-1.04,0.61,-0.17,25.82,17.76,21.95,0.27,0.39,0.76,1.31,-2.76,-0.21
1900-01-01 12:19:35.092,54.68,20.14,-27.48,0.33,0.78,0.44,1.97,2.66,-5.6,29.21,10.83,22.08,0.18,0.46,0.8,-0.92,5.47,-4.82
1900-01-01 12:19:35.187,53.85,20.49,-28.34,0.37,0.86,0.5,-0.36,3.05,-2.72,28.92,8.52,21.5,0.17,0.54,0.96,-2.76,3.5,-2.79
1900-01-01 12:19:35.232,51.59,22.09,-28.77,0.4,0.82,0.52,-3.06,0.86,2.4,27.02,11.42,21.23,0.22,0.51,0.98,-1.71,-3.51,1.07
1900-01-01 12:19:35.288,51.7,21.92,-28.41,0.36,0.76,0.48,-3.57,-0.89,4.69,27.22,12.25,21.55,0.22,0.46,0.88,1.62,-6.19,2.22
1900-01-01 12:19:35.395,50.45,23.56,-27.7,0.37,0.71,0.46,-2.89,-0.56,2.2,26.47,15.45,22.05,0.25,0.42,0.8,1.85,-5.66,1.31
1900-01-01 12:19:35.462,51.18,24.11,-27.37,0.39,0.73,0.45,-0.69,0.18,-0.49,28.98,14.86,22.41,0.24,0.46,0.79,0.3,-0.89,-2.04
1900-01-01 12:19:35.554,51.84,23.97,-27.46,0.4,0.78,0.46,-0.69,2.42,-0.95,31.05,12.68,22.26,0.22,0.52,0.84,-1.44,1.73,-1.63
1900-01-01 12:19:35.643,51.14,23.18,-27.61,0.39,0.77,0.49,-1.87,3.06,0.93,27.94,13.2,22.16,0.24,0.49,0.89,-1.52,0.68,1.06
1900-01-01 12:19:35.674,50.98,22.66,-27.48,0.37,0.76,0.48,-1.66,2.52,1.22,27.12,13.6,22.48,0.24,0.46,0.86,-0.89,-0.13,0.98
1900-01-01 12:19:35.759,51.26,22.16,-27.3,0.37,0.76,0.48,-0.85,1.0,0.03,26.3,13.92,22.79,0.24,0.44,0.86,-0.07,-0.13,-0.94
1900-01-01 12:19:35.833,51.08,22.63,-27.3,0.38,0.76,0.49,-1.4,1.05,0.02,27.33,13.18,22.81,0.23,0.46,0.87,-0.82,-0.89,-0.82
1900-01-01 12:19:35.929,50.69,23.36,-27.31,0.38,0.74,0.47,-1.79,0.68,-0.11,27.44,13.79,22.84,0.24,0.46,0.85,-1.33,-1.26,-1.69
1900-01-01 12:19:36.003,50.92,23.99,-27.33,0.39,0.74,0.46,-0.87,0.98,-0.95,28.42,14.27,22.74,0.24,0.46,0.82,-0.67,-0.52,-1.86
1900-01-01 12:19:36.072,51.82,22.86,-27.49,0.38,0.77,0.47,0.02,1.92,-1.91,28.52,13.05,22.61,0.23,0.48,0.85,-0.86,2.55,-2.63
1900-01-01 12:19:36.119,51.95,22.67,-27.79,0.39,0.79,0.48,-0.11,1.79,-0.69,28.58,12.44,22.37,0.22,0.5,0.89,-0.4,1.42,-1.5
1900-01-01 12:19:36.281,51.55,22.36,-27.9,0.38,0.78,0.49,-1.01,1.59,0.33,27.64,12.92,22.3,0.23,0.48,0.88,0.02,-0.11,-0.44
1900-01-01 12:19:36.281,51.79,22.17,-27.86,0.37,0.76,0.48,-1.18,0.89,-0.03,27.33,12.96,22.39,0.22,0.46,0.86,0.01,-0.37,-1.09
1900-01-01 12:19:36.380,52.16,22.64,-27.87,0.37,0.76,0.46,-1.05,0.81,-0.67,28.58,12.93,22.38,0.22,0.47,0.84,-0.64,-0.37,-1.82
1900-01-01 12:19:36.542,51.96,22.93,-27.99,0.38,0.77,0.47,-1.37,1.67,-0.76,28.81,12.99,22.26,0.23,0.49,0.85,-1.15,0.66,-1.37
1900-01-01 12:19:36.542,51.55,22.81,-28.11,0.38,0.77,0.48,-1.08,1.53,0.04,28.01,13.14,22.21,0.23,0.48,0.87,-0.28,-0.05,-0.69
1900-01-01 12:19:36.636,51.9,22.32,-28.11,0.37,0.76,0.47,-1.18,1.6,-0.37,27.55,13.38,22.26,0.23,0.46,0.85,-0.83,0.01,-0.82
1900-01-01 12:19:36.683,52.27,22.02,-28.18,0.37,0.77,0.47,-1.25,1.68,-0.24,28.14,12.24,22.3,0.21,0.48,0.86,-0.83,0.27,-0.76
1900-01-01 12:19:36.739,51.86,21.96,-28.22,0.37,0.77,0.48,-1.48,1.34,-0.13,27.75,12.45,22.34,0.22,0.47,0.87,-0.78,-0.11,-1.06
1900-01-01 12:19:36.841,50.6,23.47,-28.25,0.38,0.73,0.47,-1.04,0.74,0.59,26.96,14.18,22.33,0.24,0.45,0.84,-0.04,-0.91,-0.76
1900-01-01 12:19:36.921,53.87,21.26,-28.17,0.36,0.79,0.46,0.36,2.07,-1.74,29.74,11.75,22.38,0.2,0.49,0.83,-0.79,2.71,-2.37
1900-01-01 12:19:37.092,53.59,20.56,-28.44,0.36,0.82,0.49,-0.9,2.2,0.0,28.48,9.92,22.17,0.18,0.51,0.92,-1.4,1.3,-0.64
1900-01-01 12:19:37.120,50.74,22.68,-28.45,0.39,0.78,0.51,-2.63,0.64,2.5,26.89,12.94,22.23,0.24,0.48,0.91,0.18,-2.91,1.27
1900-01-01 12:19:37.189,50.79,22.71,-28.08,0.37,0.74,0.48,-2.76,-0.81,2.17,26.38,13.91,22.59,0.24,0.44,0.85,0.43,-3.47,0.02
1900-01-01 12:19:37.220,51.77,23.44,-27.76,0.37,0.73,0.44,-0.85,-0.71,0.31,28.67,14.64,22.75,0.24,0.45,0.78,0.74,-2.09,-1.63
1900-01-01 12:19:37.288,52.06,23.28,-27.72,0.38,0.76,0.45,-0.5,1.99,-1.53,30.1,13.26,22.65,0.22,0.48,0.8,-0.84,1.27,-2.05
1900-01-01 12:19:37.389,51.07,23.43,-27.96,0.4,0.78,0.49,-1.2,2.81,-1.04,27.95,13.35,22.5,0.24,0.49,0.88,-1.4,1.63,-0.78
1900-01-01 12:19:37.460,51.75,22.68,-28.13,0.38,0.77,0.47,-1.02,1.6,-0.02,27.88,12.68,22.54,0.22,0.48,0.88,0.15,0.21,-0.66
1900-01-01 12:19:37.524,52.09,21.34,-28.14,0.36,0.78,0.49,-0.92,2.04,-0.72,27.75,12.64,22.6,0.22,0.46,0.85,-0.39,1.3,-1.02
1900-01-01 12:19:37.643,51.84,21.69,-28.26,0.37,0.8,0.5,-1.8,0.36,0.4,26.63,11.89,22.6,0.22,0.49,0.94,-0.51,0.14,-1.06
1900-01-01 12:19:37.671,53.26,21.35,-28.2,0.35,0.77,0.45,-1.74,-1.11,2.11,28.61,11.13,22.59,0.19,0.47,0.85,1.31,-3.73,-0.66
1900-01-01 12:19:37.732,52.11,23.64,-27.89,0.38,0.76,0.45,-1.47,1.21,0.1,30.22,13.71,22.65,0.23,0.48,0.79,-0.76,-1.12,-1.01
1900-01-01 12:19:37.819,51.69,23.81,-27.88,0.4,0.78,0.47,-1.81,2.09,0.34,28.97,13.04,22.65,0.23,0.5,0.87,-1.85,0.31,0.08
1900-01-01 12:19:37.932,51.46,22.62,-27.84,0.37,0.75,0.47,-1.15,0.27,1.7,27.63,12.91,22.83,0.22,0.47,0.86,1.18,-2.11,0.16
1900-01-01 12:19:38.003,50.24,23.72,-27.59,0.38,0.73,0.47,-1.15,1.47,-0.55,27.65,14.7,23.01,0.24,0.44,0.8,-0.69,-0.26,-1.18
1900-01-01 12:19:38.038,51.32,23.31,-27.68,0.39,0.77,0.48,-1.37,2.47,-1.96,28.45,13.07,22.99,0.23,0.49,0.87,-2.24,2.02,-1.98
1900-01-01 12:19:38.130,52.09,22.91,-27.99,0.39,0.79,0.47,-1.34,1.4,-0.58,28.79,12.44,22.84,0.22,0.5,0.88,-2.3,1.3,-1.81
1900-01-01 12:19:38.195,52.28,22.5,-28.09,0.37,0.77,0.47,-1.18,1.5,0.34,29.09,11.73,22.72,0.2,0.49,0.85,-0.58,-0.56,-0.45
1900-01-01 12:19:38.304,51.8,22.45,-28.04,0.38,0.78,0.48,-1.73,2.31,0.29,28.11,11.91,22.81,0.21,0.48,0.88,-2.19,0.69,-0.42
1900-01-01 12:19:38.380,51.34,22.69,-28.01,0.38,0.77,0.49,-2.43,1.47,1.09,27.46,12.28,22.91,0.22,0.48,0.89,-1.1,-1.72,0.47
1900-01-01 12:19:38.413,51.29,22.78,-27.85,0.37,0.75,0.47,-2.32,0.95,0.61,27.9,13.06,23.14,0.22,0.46,0.84,-0.97,-1.95,-0.22
1900-01-01 12:19:38.508,51.58,22.71,-27.76,0.37,0.76,0.47,-1.85,1.37,-0.2,27.7,13.05,23.26,0.22,0.46,0.85,-1.38,-0.37,-1.1
1900-01-01 12:19:38.600,51.39,23.07,-27.8,0.39,0.77,0.48,-1.58,1.67,0.21,28.2,12.7,23.25,0.22,0.48,0.87,-1.3,-0.17,-0.63
1900-01-01 12:19:38.657,51.2,22.88,-27.78,0.38,0.76,0.48,-1.52,1.54,0.47,27.7,12.97,23.31,0.23,0.47,0.87,-0.92,-1.03,-0.25
1900-01-01 12:19:38.752,51.22,22.76,-27.72,0.37,0.76,0.48,-1.67,1.85,0.33,27.39,13.13,23.43,0.23,0.46,0.86,-1.32,-0.1,-0.25
1900-01-01 12:19:38.833,51.05,22.71,-27.67,0.37,0.75,0.48,-1.05,1.56,0.19,27.3,12.9,23.55,0.22,0.46,0.86,-0.5,0.72,-0.75
1900-01-01 12:19:38.999,50.93,22.89,-27.65,0.38,0.75,0.48,-0.89,1.45,-0.26,27.2,12.87,23.6,0.22,0.46,0.86,-0.53,0.59,-1.16
1900-01-01 12:19:39.021,51.28,22.62,-27.7,0.38,0.76,0.48,-0.98,1.34,-0.42,27.29,12.79,23.58,0.22,0.46,0.87,-0.92,0.08,-1.21
1900-01-01 12:19:39.094,51.36,22.69,-27.77,0.38,0.77,0.48,-0.95,1.05,-0.11,27.41,12.87,23.55,0.22,0.46,0.86,-0.17,-0.45,-1.12
1900-01-01 12:19:39.127,51.16,22.87,-27.8,0.38,0.76,0.48,-0.84,0.89,0.08,27.36,12.64,23.54,0.22,0.46,0.87,0.11,-0.61,-1.1
1900-01-01 12:19:39.195,50.54,23.4,-27.8,0.39,0.76,0.49,-1.29,1.08,-0.05,27.48,13.63,23.53,0.24,0.46,0.86,-0.5,-0.24,-1.08
1900-01-01 12:19:39.296,51.41,22.72,-27.81,0.38,0.77,0.48,-1.7,1.04,-0.27,27.06,13.02,23.52,0.23,0.46,0.86,-0.85,-1.12,-0.8
1900-01-01 12:19:39.362,51.16,23.46,-27.86,0.39,0.76,0.47,-1.61,1.43,-0.62,28.5,12.73,23.56,0.22,0.48,0.85,-1.14,-0.27,-1.05
1900-01-01 12:19:39.460,52.53,22.23,-27.97,0.37,0.78,0.47,-1.72,1.41,-0.37,28.66,11.28,23.55,0.2,0.49,0.88,-1.98,0.6,-1.4
1900-01-01 12:19:39.537,51.61,22.49,-28.03,0.37,0.76,0.48,-1.63,1.53,1.03,27.3,12.21,23.5,0.21,0.46,0.87,-0.17,-1.16,0.68
1900-01-01 12:19:39.580,50.89,22.47,-27.88,0.37,0.74,0.48,-1.09,1.79,0.55,26.64,13.23,23.76,0.22,0.44,0.85,0.51,0.28,0.04
1900-01-01 12:19:39.673,50.57,22.52,-27.81,0.37,0.75,0.49,-1.08,1.4,-0.28,26.17,13.43,23.93,0.23,0.44,0.87,-0.42,0.29,-1.06
1900-01-01 12:19:39.720,50.98,22.59,-27.86,0.38,0.76,0.49,-0.79,0.78,-0.31,26.79,12.98,23.92,0.23,0.46,0.88,-0.32,-0.18,-1.53
1900-01-01 12:19:39.814,51.2,22.89,-27.92,0.38,0.76,0.48,-1.14,0.81,-0.27,27.73,12.68,23.85,0.22,0.47,0.86,-0.26,-0.92,-1.43
1900-01-01 12:19:39.888,51.62,22.72,-27.97,0.38,0.76,0.47,-0.84,0.76,-0.4,27.7,12.67,23.79,0.22,0.47,0.86,-0.02,-0.11,-1.65
1900-01-01 12:19:39.997,51.79,22.88,-28.03,0.38,0.76,0.47,-0.45,0.96,-0.43,28.31,12.59,23.69,0.22,0.47,0.85,0.42,-0.26,-1.48
1900-01-01 12:19:40.074,51.77,22.72,-28.11,0.38,0.77,0.48,-0.64,1.58,-0.28,28.55,12.11,23.62,0.21,0.49,0.87,0.79,1.37,-1.05
1900-01-01 12:19:40.100,51.53,22.74,-28.16,0.38,0.77,0.48,-0.91,1.22,-0.11,28.03,12.52,23.62,0.22,0.48,0.87,0.05,0.23,-1.02
1900-01-01 12:19:40.189,51.58,22.49,-28.19,0.37,0.76,0.48,-1.27,1.22,0.0,28.08,12.54,23.62,0.22,0.47,0.85,-0.27,-0.53,-0.84
1900-01-01 12:19:40.280,51.37,22.66,-28.19,0.38,0.76,0.48,-1.02,1.03,-0.26,27.32,13.05,23.65,0.23,0.46,0.86,-0.43,-0.31,-1.17
1900-01-01 12:19:40.352,51.99,22.35,-28.24,0.37,0.77,0.47,-0.5,0.63,-0.63,27.53,12.58,23.63,0.22,0.46,0.86,-0.14,-0.09,-1.84
1900-01-01 12:19:40.444,51.89,22.86,-28.35,0.38,0.77,0.47,-0.98,0.88,-0.34,28.61,12.36,23.51,0.22,0.48,0.86,-0.34,-0.55,-1.46
1900-01-01 12:19:40.519,52.19,22.75,-28.41,0.38,0.77,0.47,-1.2,1.37,0.06,28.87,12.33,23.44,0.21,0.49,0.85,-0.57,-0.31,-0.77
1900-01-01 12:19:40.561,51.98,22.78,-28.41,0.38,0.77,0.47,-1.39,1.51,-0.05,28.38,12.48,23.48,0.22,0.48,0.85,-0.62,-0.1,-0.62
1900-01-01 12:19:40.655,51.89,22.5,-28.42,0.38,0.77,0.48,-1.48,1.53,0.08,28.18,11.9,23.55,0.21,0.48,0.87,-0.66,-0.39,-0.56
1900-01-01 12:19:40.748,51.68,22.68,-28.42,0.38,0.76,0.47,-1.27,1.22,0.16,27.74,12.55,23.62,0.22,0.47,0.86,-0.5,-0.44,-0.73
1900-01-01 12:19:40.808,52.23,22.34,-28.4,0.37,0.77,0.47,-0.99,1.5,-0.32,28.52,11.94,23.67,0.21,0.47,0.85,-0.53,0.19,-1.03
1900-01-01 12:19:40.958,51.91,22.35,-28.46,0.37,0.78,0.48,-1.43,1.38,-0.36,27.82,11.98,23.67,0.21,0.48,0.88,-0.98,0.25,-1.2
1900-01-01 12:19:40.958,51.72,22.84,-28.53,0.38,0.77,0.47,-1.27,0.82,0.27,27.89,12.35,23.64,0.22,0.47,0.87,-0.41,-0.96,-0.92
1900-01-01 12:19:41.047,52.01,22.77,-28.49,0.37,0.76,0.46,-0.96,1.15,0.02,28.4,12.54,23.66,0.21,0.47,0.84,-0.02,-0.4,-0.76
1900-01-01 12:19:41.136,52.26,22.41,-28.5,0.37,0.77,0.47,-1.0,1.85,-0.35,28.46,11.89,23.7,0.21,0.48,0.86,-0.44,0.86,-0.89
1900-01-01 12:19:41.229,52.09,22.34,-28.56,0.38,0.78,0.48,-1.4,1.41,-0.24,27.64,11.95,23.72,0.21,0.48,0.88,-1.11,0.06,-0.99
1900-01-01 12:19:41.261,52.16,22.5,-28.6,0.37,0.77,0.47,-1.42,0.97,0.41,28.24,11.9,23.73,0.21,0.48,0.87,-0.15,-0.98,-0.6
1900-01-01 12:19:41.353,52.06,22.55,-28.55,0.37,0.76,0.46,-1.45,1.75,0.1,28.64,12.18,23.8,0.21,0.47,0.84,-0.49,0.19,-0.53
1900-01-01 12:19:41.417,51.76,22.42,-28.54,0.37,0.77,0.48,-1.03,1.71,-0.36,27.49,12.5,23.87,0.22,0.46,0.86,-0.72,0.37,-0.87
1900-01-01 12:19:41.513,51.98,22.26,-28.61,0.37,0.77,0.48,-1.25,1.69,-0.01,27.82,12.15,23.9,0.21,0.47,0.87,-0.79,-0.03,-0.6
1900-01-01 12:19:41.588,51.74,22.28,-28.62,0.37,0.77,0.48,-1.18,0.96,0.15,27.48,12.12,23.97,0.21,0.47,0.87,-0.79,-0.67,-0.93
1900-01-01 12:19:41.633,52.11,22.3,-28.6,0.37,0.77,0.47,-1.27,1.06,0.0,28.07,11.8,23.98,0.21,0.47,0.86,-0.65,-0.6,-0.96
1900-01-01 12:19:41.727,51.6,22.64,-28.61,0.38,0.77,0.48,-1.43,1.34,-0.21,27.7,12.78,23.99,0.22,0.46,0.86,-1.24,-0.08,-0.95
1900-01-01 12:19:41.840,51.67,22.41,-28.65,0.38,0.77,0.48,-1.63,1.08,0.24,27.74,12.02,24.0,0.21,0.48,0.88,-0.85,-0.88,-0.79
1900-01-01 12:19:41.868,51.8,22.61,-28.62,0.38,0.77,0.47,-1.77,0.88,0.34,28.04,12.37,24.04,0.21,0.47,0.86,-0.59,-1.24,-0.82
1900-01-01 12:19:41.939,51.9,22.66,-28.58,0.38,0.77,0.47,-1.68,1.32,0.22,27.94,12.57,24.08,0.22,0.47,0.86,-0.91,-0.65,-0.54
1900-01-01 12:19:42.025,51.65,22.74,-28.56,0.38,0.77,0.47,-1.44,1.5,0.4,27.85,12.62,24.15,0.22,0.47,0.86,-0.24,-0.42,-0.32
1900-01-01 12:19:42.129,51.69,22.49,-28.5,0.37,0.77,0.48,-1.48,1.7,0.45,28.0,12.28,24.26,0.21,0.47,0.86,-0.71,-0.17,-0.16
1900-01-01 12:19:42.197,51.55,22.59,-28.44,0.37,0.76,0.48,-1.84,1.92,0.56,28.01,12.4,24.39,0.22,0.47,0.86,-1.67,-0.44,-0.13
1900-01-01 12:19:42.312,51.21,22.42,-28.36,0.37,0.76,0.49,-1.72,1.5,0.51,27.11,12.84,24.53,0.22,0.46,0.87,-0.62,-0.72,-0.21
1900-01-01 12:19:42.339,51.42,22.48,-28.29,0.37,0.76,0.48,-1.47,1.07,0.4,27.33,12.53,24.66,0.22,0.46,0.87,-0.5,-0.79,-0.66
1900-01-01 12:19:42.426,51.25,22.7,-28.24,0.37,0.75,0.48,-1.5,1.06,0.48,27.16,12.8,24.72,0.22,0.46,0.86,-0.37,-0.72,-0.53
1900-01-01 12:19:42.489,51.21,22.57,-28.18,0.37,0.76,0.48,-1.02,0.96,0.11,27.27,12.67,24.79,0.22,0.46,0.86,-0.21,-0.26,-1.01
1900-01-01 12:19:42.583,51.26,22.82,-28.17,0.38,0.77,0.48,-1.26,1.04,0.28,27.8,12.92,24.8,0.23,0.47,0.86,-0.36,-0.66,-0.79
1900-01-01 12:19:42.669,50.93,23.01,-28.13,0.38,0.76,0.48,-1.32,0.91,0.49,27.2,12.97,24.84,0.23,0.46,0.87,-0.26,-0.99,-0.58
1900-01-01 12:19:42.763,51.16,22.84,-28.07,0.37,0.75,0.47,-1.0,0.79,-0.1,27.58,13.19,24.91,0.22,0.46,0.84,-0.18,-0.7,-1.15
1900-01-01 12:19:42.798,51.11,22.92,-28.09,0.38,0.76,0.48,-0.84,1.16,-0.73,27.72,12.9,24.89,0.22,0.46,0.86,-0.79,0.31,-1.7
1900-01-01 12:19:42.892,51.39,22.94,-28.21,0.38,0.77,0.48,-0.85,0.99,-0.46,27.78,12.58,24.79,0.22,0.47,0.87,-0.53,0.04,-1.53
1900-01-01 12:19:42.942,51.35,22.99,-28.29,0.38,0.77,0.48,-0.91,0.93,-0.22,27.95,13.03,24.71,0.23,0.47,0.86,-0.26,-0.28,-1.27
1900-01-01 12:19:43.289,51.38,22.99,-28.33,0.38,0.76,0.47,-1.05,1.47,-0.11,28.21,12.88,24.67,0.22,0.47,0.85,-0.27,-0.13,-0.8
1900-01-01 12:19:43.289,51.41,22.61,-28.36,0.37,0.76,0.48,-0.95,1.47,-0.44,27.5,12.64,24.71,0.22,0.46,0.86,-0.67,0.4,-1.2
1900-01-01 12:19:43.289,51.42,22.79,-28.43,0.38,0.77,0.48,-1.02,1.24,-0.3,27.81,12.84,24.68,0.23,0.47,0.87,-0.39,0.25,-1.22
1900-01-01 12:19:43.289,51.51,22.58,-28.49,0.37,0.76,0.47,-0.9,1.17,-0.34,27.54,13.0,24.65,0.22,0.46,0.85,-0.55,-0.37,-1.05
1900-01-01 12:19:43.323,51.89,22.69,-28.55,0.38,0.77,0.47,-0.92,1.6,-0.52,28.3,12.31,24.65,0.21,0.47,0.85,-0.39,0.56,-1.15
1900-01-01 12:19:43.405,51.41,22.72,-28.64,0.38,0.77,0.48,-1.06,1.68,-0.29,27.57,12.67,24.64,0.22,0.47,0.87,-0.47,0.53,-0.9
1900-01-01 12:19:43.473,51.41,22.43,-28.69,0.37,0.76,0.48,-0.99,1.21,-0.09,27.18,12.79,24.66,0.22,0.46,0.87,-0.24,-0.08,-0.97
1900-01-01 12:19:43.558,51.92,22.33,-28.71,0.37,0.76,0.47,-0.85,1.2,-0.42,27.84,12.25,24.67,0.21,0.47,0.86,-0.39,0.3,-1.34
1900-01-01 12:19:43.643,51.71,22.29,-28.78,0.37,0.77,0.48,-0.98,1.31,-0.34,27.83,12.18,24.62,0.21,0.47,0.86,-0.59,0.1,-1.27
1900-01-01 12:19:43.737,51.79,22.38,-28.84,0.37,0.77,0.48,-1.02,0.91,-0.5,27.67,12.26,24.58,0.21,0.47,0.87,-0.82,-0.1,-1.75
1900-01-01 12:19:43.818,51.99,22.46,-28.93,0.37,0.77,0.47,-1.02,1.01,-0.18,28.17,12.27,24.47,0.21,0.48,0.86,-0.12,-0.24,-1.16
1900-01-01 12:19:43.872,52.09,22.44,-28.97,0.37,0.77,0.47,-0.95,1.24,-0.05,28.25,12.05,24.45,0.21,0.48,0.86,0.03,0.07,-0.98
1900-01-01 12:19:43.965,52.0,22.37,-28.98,0.37,0.77,0.47,-1.07,1.25,-0.16,27.88,12.38,24.46,0.21,0.47,0.86,-0.18,-0.17,-1.02
1900-01-01 12:19:44.012,51.8,22.34,-29.02,0.37,0.77,0.48,-1.26,1.24,0.0,27.72,12.09,24.46,0.21,0.47,0.87,-0.32,-0.38,-0.83
1900-01-01 12:19:44.104,52.19,22.17,-29.02,0.37,0.77,0.47,-1.02,0.95,-0.01,27.81,12.07,24.49,0.21,0.47,0.86,-0.29,-0.51,-1.06
1900-01-01 12:19:44.159,52.21,22.36,-29.03,0.37,0.77,0.47,-1.4,1.47,-0.19,28.62,12.18,24.49,0.21,0.48,0.85,-0.69,-0.37,-0.82
1900-01-01 12:19:44.263,51.93,22.46,-29.07,0.38,0.77,0.48,-1.3,1.59,-0.18,28.06,12.17,24.52,0.21,0.48,0.87,-0.6,0.2,-0.8
1900-01-01 12:19:44.348,51.75,22.44,-29.11,0.37,0.77,0.48,-1.45,1.29,0.13,27.85,12.47,24.56,0.22,0.47,0.86,-0.42,-0.65,-0.55
1900-01-01 12:19:44.502,52.18,22.04,-29.1,0.36,0.77,0.47,-1.33,1.47,-0.2,28.05,12.1,24.63,0.21,0.47,0.85,-0.56,-0.05,-0.97
1900-01-01 12:19:44.523,52.08,22.02,-29.14,0.37,0.77,0.48,-1.35,1.44,-0.31,27.9,11.87,24.64,0.21,0.47,0.87,-0.91,0.0,-1.08
1900-01-01 12:19:44.590,51.95,22.18,-29.19,0.37,0.77,0.48,-1.37,1.16,0.02,27.81,11.92,24.64,0.21,0.47,0.87,-0.43,-0.38,-0.95
1900-01-01 12:19:44.619,52.17,22.18,-29.2,0.37,0.77,0.47,-1.21,1.18,0.03,28.11,12.15,24.65,0.21,0.47,0.86,-0.44,-0.24,-0.92
1900-01-01 12:19:44.712,51.84,22.26,-29.2,0.37,0.77,0.48,-1.1,1.44,-0.17,27.81,12.43,24.66,0.21,0.47,0.86,-0.63,-0.11,-0.82
1900-01-01 12:19:44.806,51.79,22.31,-29.23,0.37,0.77,0.48,-1.19,1.26,-0.02,27.81,12.19,24.7,0.21,0.47,0.87,-0.72,-0.43,-0.82
1900-01-01 12:19:44.853,51.68,22.37,-29.25,0.37,0.77,0.48,-1.55,1.07,0.02,27.39,12.3,24.73,0.22,0.47,0.87,-0.75,-0.61,-0.82
1900-01-01 12:19:44.944,51.22,22.82,-29.25,0.37,0.75,0.47,-1.18,0.54,-0.41,26.92,13.28,24.76,0.23,0.45,0.85,-0.08,-1.11,-1.39
1900-01-01 12:19:45.038,54.46,20.74,-29.32,0.35,0.81,0.46,0.15,0.69,-0.58,29.44,9.7,24.71,0.17,0.5,0.87,0.21,1.56,-2.25
1900-01-01 12:19:45.085,52.06,22.56,-29.42,0.39,0.8,0.49,-1.59,1.78,1.55,29.2,11.79,24.52,0.21,0.5,0.88,0.24,-0.87,0.86
1900-01-01 12:19:45.177,50.86,22.61,-29.19,0.38,0.77,0.5,-3.16,1.05,1.95,26.96,12.56,24.81,0.23,0.47,0.9,-0.98,-2.53,1.2
1900-01-01 12:19:45.275,51.52,22.94,-28.9,0.37,0.74,0.46,-3.05,0.44,0.84,27.98,13.4,25.16,0.22,0.45,0.82,-1.84,-2.77,-0.42
1900-01-01 12:19:45.316,51.46,23.35,-28.78,0.38,0.75,0.46,-2.37,1.52,-0.81,28.67,13.72,25.25,0.23,0.46,0.81,-2.24,-1.18,-1.02
1900-01-01 12:19:45.410,51.45,22.58,-28.92,0.38,0.77,0.48,-2.09,1.98,-0.14,28.3,11.77,25.25,0.21,0.49,0.88,-1.76,0.3,-0.58
1900-01-01 12:19:45.461,50.98,21.96,-28.95,0.37,0.77,0.5,-2.71,2.39,0.68,27.63,12.68,25.32,0.22,0.47,0.87,-1.03,-0.42,0.6
1900-01-01 12:19:45.534,49.65,23.12,-28.85,0.37,0.73,0.49,-2.07,0.43,1.3,25.12,14.9,25.57,0.25,0.42,0.85,-0.07,-2.71,0.04
1900-01-01 12:19:45.618,51.48,22.06,-28.66,0.36,0.74,0.47,-0.53,0.62,-0.97,27.19,13.61,25.74,0.23,0.44,0.82,-0.88,0.02,-2.17
1900-01-01 12:19:45.717,51.96,21.89,-28.82,0.37,0.77,0.48,-0.03,1.11,-0.31,28.18,11.73,25.56,0.21,0.48,0.87,-0.44,0.07,-1.51
1900-01-01 12:19:45.797,50.42,22.34,-28.87,0.38,0.77,0.51,-0.62,0.77,0.63,26.39,12.9,25.49,0.23,0.46,0.9,0.15,-0.38,-0.78
1900-01-01 12:19:45.888,51.19,22.08,-28.79,0.37,0.77,0.49,-0.42,-1.25,0.63,25.98,12.92,25.53,0.23,0.45,0.89,1.33,-1.57,-1.89
1900-01-01 12:19:45.956,51.63,23.1,-28.7,0.38,0.77,0.47,-0.74,-2.31,0.6,28.05,13.06,25.4,0.23,0.47,0.85,1.7,-3.16,-2.71
1900-01-01 12:19:46.017,51.65,24.31,-28.61,0.4,0.76,0.45,-1.22,-1.11,-0.01,30.28,13.09,25.14,0.23,0.5,0.83,0.18,-2.35,-2.55
1900-01-01 12:19:46.125,51.2,24.93,-28.62,0.41,0.75,0.45,-1.11,0.31,-0.09,30.57,13.54,24.91,0.23,0.5,0.82,-0.1,-0.93,-1.83
1900-01-01 12:19:46.156,51.38,24.66,-28.65,0.41,0.76,0.45,-0.87,1.68,-0.97,30.29,14.0,24.79,0.24,0.5,0.81,-0.64,0.42,-1.42
1900-01-01 12:19:46.248,52.1,23.41,-28.8,0.39,0.77,0.46,-1.04,2.82,-0.7,29.36,12.82,24.73,0.22,0.49,0.84,-1.06,1.5,-0.48
1900-01-01 12:19:46.316,51.37,22.92,-28.92,0.38,0.77,0.48,-0.99,2.45,-0.41,28.23,12.84,24.81,0.23,0.48,0.87,-0.78,1.13,-0.44
1900-01-01 12:19:46.410,51.53,22.98,-28.99,0.38,0.77,0.48,-1.12,2.15,-0.73,28.35,13.03,24.9,0.23,0.48,0.85,-1.07,1.0,-1.08
1900-01-01 12:19:46.477,51.47,22.99,-29.11,0.38,0.77,0.47,-1.42,2.15,-0.36,27.95,12.94,24.89,0.23,0.47,0.86,-1.01,0.18,-0.46
1900-01-01 12:19:46.562,51.86,22.72,-29.17,0.38,0.77,0.47,-0.98,1.92,-0.47,28.27,12.62,24.98,0.22,0.48,0.86,-0.42,0.92,-1.0
1900-01-01 12:19:46.648,51.52,22.82,-29.25,0.38,0.76,0.47,-1.18,1.63,-0.3,28.09,12.69,24.99,0.22,0.48,0.86,-0.57,0.37,-0.97
1900-01-01 12:19:46.731,52.18,22.41,-29.31,0.37,0.77,0.47,-1.13,1.13,-0.31,28.46,12.24,25.0,0.21,0.48,0.86,-0.79,-0.25,-1.22
1900-01-01 12:19:46.761,51.65,22.71,-29.36,0.37,0.76,0.47,-1.24,1.47,-0.38,28.1,12.71,24.97,0.22,0.47,0.85,-1.1,0.02,-1.06
1900-01-01 12:19:46.856,51.97,22.46,-29.43,0.37,0.77,0.47,-0.99,1.44,-0.4,28.34,12.11,24.96,0.21,0.48,0.86,-0.65,0.28,-1.2
1900-01-01 12:19:46.948,51.87,22.57,-29.5,0.37,0.77,0.47,-1.09,1.17,-0.19,28.33,12.45,24.94,0.22,0.48,0.86,-0.2,-0.1,-1.05
1900-01-01 12:19:46.995,51.93,22.76,-29.54,0.38,0.76,0.47,-0.78,0.99,-0.66,28.26,12.22,24.94,0.21,0.47,0.86,-0.37,0.05,-1.53
1900-01-01 12:19:47.088,52.37,22.28,-29.65,0.37,0.77,0.47,-0.95,1.31,-0.6,28.65,11.66,24.86,0.2,0.48,0.86,-0.79,0.35,-1.6
1900-01-01 12:19:47.155,52.38,22.55,-29.75,0.38,0.78,0.47,-1.01,1.25,-0.4,28.81,11.9,24.77,0.21,0.49,0.86,-0.73,0.09,-1.5
1900-01-01 12:19:47.263,52.3,22.49,-29.82,0.37,0.77,0.47,-1.38,1.68,0.18,28.87,11.71,24.7,0.2,0.48,0.85,-0.7,-0.36,-0.48
1900-01-01 12:19:47.321,52.03,22.46,-29.8,0.37,0.76,0.47,-0.12,1.11,-0.11,27.67,12.09,24.79,0.21,0.47,0.86,-0.15,0.2,-0.88
1900-01-01 12:19:47.405,52.44,22.24,-29.82,0.37,0.78,0.47,-0.24,0.89,-0.48,28.4,12.42,24.81,0.21,0.47,0.85,0.76,-0.01,-1.47
1900-01-01 12:19:47.488,52.73,22.26,-29.91,0.38,0.79,0.47,-1.76,1.64,-0.32,29.09,11.47,24.74,0.2,0.5,0.87,-0.96,-0.41,-0.84
1900-01-01 12:19:47.557,52.64,22.32,-29.96,0.38,0.79,0.47,-2.4,1.44,0.39,28.77,11.53,24.77,0.21,0.49,0.88,-1.56,-0.82,-0.27
1900-01-01 12:19:47.605,52.17,22.77,-29.91,0.38,0.78,0.47,-2.37,1.37,0.59,28.82,12.38,24.89,0.22,0.49,0.86,-0.85,-1.15,-0.18
1900-01-01 12:19:47.698,52.03,22.41,-29.83,0.37,0.77,0.47,-2.22,1.97,1.43,28.23,11.85,25.02,0.21,0.48,0.87,-0.69,-1.05,1.06
1900-01-01 12:19:47.839,51.49,22.25,-29.62,0.37,0.76,0.48,-2.03,1.69,1.15,27.64,12.55,25.34,0.22,0.46,0.85,-0.65,-0.86,0.4
1900-01-01 12:19:47.839,51.22,22.61,-29.45,0.37,0.75,0.47,-1.64,1.49,0.35,27.38,13.25,25.56,0.22,0.45,0.84,-0.83,-0.42,-0.34
1900-01-01 12:19:47.931,51.19,22.74,-29.41,0.38,0.76,0.48,-1.34,1.3,0.38,27.92,12.65,25.67,0.22,0.47,0.86,-0.5,-0.69,-0.49
1900-01-01 12:19:47.998,51.45,22.36,-29.36,0.37,0.76,0.48,-1.39,1.0,0.26,27.68,12.46,25.75,0.22,0.47,0.87,-0.82,-0.85,-0.85
1900-01-01 12:19:48.102,51.33,22.83,-29.33,0.38,0.76,0.48,-1.21,1.04,0.39,27.99,12.75,25.78,0.22,0.47,0.86,-0.74,-1.22,-0.7
1900-01-01 12:19:48.171,51.34,22.9,-29.28,0.38,0.76,0.48,-1.24,1.17,0.32,28.28,12.9,25.83,0.22,0.48,0.85,-0.24,-0.63,-0.57
1900-01-01 12:19:48.210,51.47,22.97,-29.24,0.38,0.76,0.47,-1.37,0.93,0.35,27.93,12.81,25.9,0.22,0.47,0.86,-0.57,-0.92,-0.76
1900-01-01 12:19:48.303,51.73,22.75,-29.19,0.38,0.77,0.47,-1.24,0.92,0.51,28.45,12.34,25.94,0.22,0.48,0.86,-0.21,-0.82,-0.7
1900-01-01 12:19:48.396,51.4,23.23,-29.12,0.38,0.76,0.47,-1.54,1.21,0.57,28.44,12.9,25.99,0.22,0.48,0.85,-0.79,-0.65,-0.44
1900-01-01 12:19:48.443,51.11,22.89,-29.04,0.37,0.75,0.47,-1.13,1.08,0.31,27.44,13.48,26.08,0.23,0.46,0.85,-0.35,-0.6,-0.48
1900-01-01 12:19:48.539,51.59,23.04,-29.0,0.38,0.76,0.47,-1.23,1.15,-0.29,28.59,12.86,26.17,0.22,0.48,0.84,-0.6,-0.09,-1.31
1900-01-01 12:19:48.631,51.42,22.95,-29.06,0.38,0.77,0.48,-1.49,1.42,-0.02,28.24,12.53,26.13,0.22,0.48,0.87,-0.6,-0.38,-0.79
1900-01-01 12:19:48.680,51.15,23.28,-29.07,0.39,0.76,0.48,-1.36,1.24,-0.17,28.17,13.07,26.16,0.23,0.47,0.86,-0.94,-0.56,-0.95
1900-01-01 12:19:48.774,51.44,23.25,-29.1,0.39,0.77,0.47,-1.49,1.43,-0.12,28.7,12.93,26.17,0.23,0.49,0.86,-1.44,-0.59,-0.93
1900-01-01 12:19:48.865,51.33,22.97,-29.13,0.38,0.76,0.47,-1.35,1.34,0.26,27.91,12.91,26.19,0.22,0.47,0.86,-0.34,-0.6,-0.42
1900-01-01 12:19:48.912,51.07,23.01,-29.1,0.38,0.75,0.48,-1.31,1.51,-0.15,28.14,12.95,26.28,0.22,0.47,0.85,-0.95,-0.25,-0.92
1900-01-01 12:19:49.006,51.32,22.96,-29.13,0.38,0.77,0.48,-1.15,1.48,-0.29,28.24,12.72,26.3,0.22,0.48,0.86,-0.78,0.31,-1.11
1900-01-01 12:19:49.110,51.46,22.96,-29.18,0.38,0.77,0.48,-1.14,1.25,-0.2,28.01,13.01,26.29,0.23,0.47,0.86,-0.49,-0.23,-1.02
1900-01-01 12:19:49.145,51.54,22.84,-29.22,0.38,0.76,0.47,-0.95,1.27,-0.4,27.97,12.91,26.29,0.22,0.47,0.85,-0.36,0.11,-1.1
1900-01-01 12:19:49.241,51.47,22.87,-29.29,0.38,0.76,0.48,-1.1,1.16,-0.18,28.16,12.5,26.28,0.22,0.48,0.87,-0.44,-0.07,-1.12
1900-01-01 12:19:49.288,51.7,22.91,-29.33,0.38,0.77,0.47,-0.66,0.95,-0.45,28.41,12.67,26.27,0.22,0.48,0.86,0.02,0.36,-1.54
1900-01-01 12:19:49.375,51.59,22.97,-29.41,0.38,0.77,0.47,-1.05,1.38,-0.1,28.26,12.72,26.19,0.22,0.48,0.86,-0.3,0.11,-0.86
1900-01-01 12:19:49.518,51.44,22.87,-29.43,0.38,0.77,0.48,-1.05,1.18,0.02,27.91,12.96,26.22,0.23,0.47,0.86,-0.55,-0.47,-0.85
1900-01-01 12:19:49.518,51.49,22.92,-29.44,0.38,0.76,0.47,-0.98,0.98,-0.1,27.87,13.09,26.24,0.22,0.46,0.85,-0.34,-0.49,-0.93
1900-01-01 12:19:49.604,51.69,22.91,-29.46,0.38,0.76,0.47,-0.9,1.44,-0.51,28.31,12.82,26.26,0.22,0.47,0.85,-0.61,0.54,-1.33
1900-01-01 12:19:49.686,51.71,22.8,-29.55,0.38,0.77,0.48,-1.08,1.45,-0.27,28.24,12.55,26.21,0.22,0.48,0.87,-0.6,0.28,-1.08
1900-01-01 12:19:49.785,51.71,22.69,-29.6,0.38,0.77,0.47,-1.19,1.24,0.07,28.06,12.59,26.21,0.22,0.48,0.86,-0.33,-0.47,-0.82
1900-01-01 12:19:49.850,52.22,22.5,-29.59,0.37,0.77,0.47,-1.3,1.58,0.03,28.47,12.13,26.24,0.21,0.48,0.86,-0.74,-0.09,-0.64
1900-01-01 12:19:49.931,51.65,22.56,-29.6,0.38,0.77,0.48,-1.39,1.45,-0.16,28.0,12.44,26.3,0.22,0.47,0.86,-0.95,-0.13,-0.94
1900-01-01 12:19:50.013,51.74,22.69,-29.63,0.38,0.77,0.47,-1.27,1.21,-0.11,28.15,12.28,26.31,0.21,0.48,0.86,-0.8,-0.44,-1.01
1900-01-01 12:19:50.080,51.52,22.82,-29.66,0.38,0.76,0.47,-1.32,1.3,-0.01,28.2,12.46,26.32,0.22,0.48,0.86,-0.6,-0.27,-0.82
1900-01-01 12:19:50.127,52.28,22.33,-29.67,0.37,0.77,0.46,-0.84,1.19,-0.46,28.12,12.27,26.35,0.21,0.47,0.85,-0.58,0.01,-1.31
1900-01-01 12:19:50.268,51.75,22.79,-29.74,0.38,0.77,0.47,-1.02,1.5,-0.47,28.12,12.53,26.31,0.22,0.47,0.86,-0.97,0.06,-1.19
1900-01-01 12:19:50.312,51.74,22.51,-29.82,0.38,0.77,0.48,-1.16,1.24,0.13,28.03,12.04,26.28,0.21,0.48,0.88,-0.47,-0.23,-0.79
1900-01-01 12:19:50.360,51.87,22.49,-29.81,0.37,0.76,0.47,-1.42,1.13,0.06,28.14,12.53,26.32,0.22,0.47,0.85,-0.76,-0.62,-0.87
1900-01-01 12:19:50.453,52.11,22.53,-29.81,0.37,0.76,0.47,-1.26,1.36,-0.5,28.65,12.47,26.35,0.21,0.47,0.84,-1.19,-0.02,-1.34
1900-01-01 12:19:50.548,52.03,22.49,-29.9,0.38,0.77,0.47,-1.15,1.54,-0.32,28.08,12.37,26.3,0.22,0.47,0.86,-0.89,-0.05,-0.94
1900-01-01 12:19:50.594,51.93,22.41,-29.96,0.37,0.77,0.47,-1.08,1.35,-0.19,28.01,12.32,26.32,0.22,0.47,0.86,-0.37,-0.08,-0.94
1900-01-01 12:19:50.689,52.28,22.06,-29.99,0.37,0.77,0.47,-1.03,1.23,-0.19,28.18,11.89,26.33,0.21,0.48,0.86,-0.04,0.17,-1.12
1900-01-01 12:19:50.781,52.33,22.19,-30.03,0.37,0.77,0.47,-1.01,1.11,-0.33,28.2,12.01,26.32,0.21,0.48,0.86,-0.52,0.12,-1.32
1900-01-01 12:19:50.828,52.24,22.25,-30.09,0.37,0.77,0.47,-0.94,1.21,-0.24,28.32,12.14,26.27,0.21,0.48,0.86,-0.18,0.2,-1.18
1900-01-01 12:19:50.922,52.09,22.25,-30.13,0.37,0.77,0.47,-1.15,1.11,-0.21,28.02,12.09,26.25,0.21,0.47,0.86,-0.61,-0.26,-1.18
1900-01-01 12:19:51.020,52.03,22.51,-30.18,0.37,0.77,0.47,-0.98,0.85,-0.01,28.02,12.13,26.23,0.21,0.48,0.87,-0.2,-0.26,-1.12
1900-01-01 12:19:51.062,52.53,22.18,-30.19,0.37,0.77,0.46,-0.81,0.95,-0.18,28.4,11.98,26.22,0.21,0.47,0.85,-0.24,-0.36,-1.16
1900-01-01 12:19:51.156,52.28,22.4,-30.22,0.38,0.78,0.47,-1.21,1.56,-0.21,28.61,12.15,26.2,0.21,0.48,0.86,-0.89,0.15,-0.89
1900-01-01 12:19:51.202,51.98,22.43,-30.26,0.38,0.78,0.48,-1.58,1.12,0.49,27.99,12.15,26.22,0.22,0.48,0.88,-0.82,-0.95,-0.51
1900-01-01 12:19:51.295,51.94,22.43,-30.19,0.37,0.77,0.47,-1.92,0.8,0.81,27.91,12.46,26.3,0.22,0.47,0.86,-0.53,-1.76,-0.27
1900-01-01 12:19:51.387,52.33,22.34,-30.08,0.37,0.77,0.46,-1.74,1.08,0.44,28.48,11.86,26.41,0.2,0.47,0.85,-0.85,-0.76,-0.64
1900-01-01 12:19:51.433,51.86,22.86,-30.02,0.38,0.76,0.47,-1.4,1.34,0.0,28.65,12.97,26.47,0.22,0.47,0.84,-0.56,-0.38,-0.74
1900-01-01 12:19:51.527,52.88,21.74,-30.03,0.37,0.79,0.47,-1.51,1.31,0.4,28.59,10.81,26.52,0.19,0.49,0.89,-1.17,0.08,-0.82
1900-01-01 12:19:51.592,50.87,23.25,-29.98,0.38,0.76,0.48,-1.89,0.73,1.63,27.56,13.15,26.55,0.23,0.47,0.87,0.11,-2.37,0.52
1900-01-01 12:19:51.689,51.46,23.2,-29.74,0.38,0.75,0.46,-1.53,1.4,-0.57,28.37,14.31,26.79,0.24,0.45,0.81,-0.81,-0.53,-1.07
1900-01-01 12:19:51.766,53.14,21.41,-29.83,0.36,0.79,0.47,-1.53,1.96,-0.34,28.61,10.08,26.78,0.18,0.49,0.88,-1.63,0.67,-0.92
1900-01-01 12:19:51.850,50.95,22.82,-29.89,0.38,0.77,0.49,-1.84,0.92,0.9,27.3,12.12,26.8,0.22,0.48,0.9,-1.23,-1.41,-0.31
1900-01-01 12:19:51.931,50.52,24.49,-29.76,0.4,0.74,0.46,-1.98,0.69,0.67,28.6,14.97,26.91,0.25,0.47,0.82,-0.63,-2.19,-0.6
1900-01-01 12:19:51.999,53.84,20.93,-29.67,0.35,0.78,0.45,-0.99,1.83,-0.23,28.87,10.13,26.98,0.18,0.48,0.86,-0.66,1.05,-0.8
1900-01-01 12:19:52.044,51.57,22.26,-29.71,0.38,0.78,0.49,-1.82,1.73,1.25,27.61,11.69,27.02,0.21,0.48,0.9,-1.11,-0.61,0.27
1900-01-01 12:19:52.138,49.22,24.92,-29.53,0.41,0.73,0.48,-1.82,0.45,1.63,26.64,15.72,27.22,0.27,0.45,0.85,0.34,-2.54,0.28
1900-01-01 12:19:52.267,52.08,22.57,-29.29,0.36,0.75,0.45,-1.03,1.09,-0.43,28.57,13.46,27.42,0.22,0.46,0.81,-0.52,-0.02,-1.28
1900-01-01 12:19:52.302,52.13,21.81,-29.36,0.36,0.77,0.48,-0.6,1.34,-0.95,27.68,12.08,27.38,0.21,0.46,0.86,-0.74,0.73,-1.69
1900-01-01 12:19:52.371,50.59,23.68,-29.52,0.4,0.77,0.49,-1.04,0.82,-0.08,27.67,13.12,27.28,0.24,0.48,0.89,-0.68,-0.53,-1.41
1900-01-01 12:19:52.466,50.93,24.23,-29.54,0.4,0.75,0.46,-1.28,0.84,0.39,28.9,14.13,27.22,0.24,0.48,0.84,-0.08,-1.17,-0.81
1900-01-01 12:19:52.526,52.03,22.49,-29.49,0.37,0.75,0.46,-1.0,2.11,-0.58,28.78,12.86,27.26,0.22,0.47,0.82,-0.79,0.6,-0.76
1900-01-01 12:19:52.598,51.5,22.28,-29.58,0.37,0.77,0.49,-0.97,1.88,-0.95,27.32,12.22,27.3,0.22,0.47,0.88,-1.55,0.96,-1.44
1900-01-01 12:19:52.717,51.28,23.32,-29.74,0.4,0.78,0.48,-1.08,1.07,-0.15,28.42,12.72,27.24,0.23,0.49,0.88,-0.27,-0.15,-1.2
1900-01-01 12:19:52.784,51.6,22.89,-29.77,0.38,0.76,0.47,-1.31,0.89,0.37,28.51,12.59,27.21,0.22,0.48,0.85,0.16,-0.92,-0.77
1900-01-01 12:19:52.812,51.77,22.66,-29.72,0.37,0.75,0.46,-0.6,1.47,-0.96,27.76,13.38,27.25,0.22,0.45,0.82,0.0,0.54,-1.37
1900-01-01 12:19:52.899,51.86,22.66,-29.88,0.38,0.77,0.47,-0.72,1.97,-1.21,28.39,12.54,27.2,0.22,0.48,0.86,-1.33,1.31,-1.59
1900-01-01 12:19:52.983,51.99,22.57,-30.07,0.38,0.78,0.48,-0.74,1.5,-0.41,28.58,12.01,27.12,0.21,0.49,0.88,-0.37,0.46,-1.19
1900-01-01 12:19:53.056,51.9,22.28,-30.14,0.37,0.77,0.48,-1.1,1.1,0.08,27.98,12.26,27.09,0.21,0.47,0.86,0.1,-0.49,-0.74
1900-01-01 12:19:53.149,51.98,22.15,-30.14,0.37,0.77,0.47,-0.95,1.15,-0.43,27.9,12.23,27.14,0.21,0.47,0.86,-0.26,0.24,-1.38
1900-01-01 12:19:53.220,52.2,22.47,-30.21,0.37,0.78,0.47,-0.76,0.92,-0.57,28.23,12.47,27.08,0.22,0.48,0.86,-0.17,0.12,-1.65
1900-01-01 12:19:53.303,52.16,22.81,-30.31,0.38,0.78,0.47,-1.07,0.99,-0.11,28.77,12.24,26.99,0.21,0.49,0.86,-0.46,-0.61,-1.18
1900-01-01 12:19:53.392,52.3,22.49,-30.33,0.37,0.77,0.46,-1.17,1.37,-0.05,28.63,12.11,26.97,0.21,0.48,0.85,-0.36,-0.2,-0.88
1900-01-01 12:19:53.425,52.21,22.36,-30.35,0.37,0.77,0.47,-1.12,1.51,-0.2,28.55,12.45,26.99,0.21,0.48,0.85,-0.62,-0.04,-0.91
1900-01-01 12:19:53.510,52.05,22.32,-30.39,0.37,0.77,0.47,-1.15,1.63,-0.23,28.11,12.23,27.01,0.21,0.47,0.86,-0.34,0.31,-0.84
1900-01-01 12:19:53.593,52.18,22.15,-30.43,0.37,0.77,0.47,-1.23,1.25,-0.11,27.88,12.2,27.04,0.21,0.47,0.87,-0.6,0.08,-0.95
1900-01-01 12:19:53.655,52.39,22.06,-30.46,0.36,0.77,0.47,-1.12,1.12,-0.13,28.32,12.0,27.05,0.21,0.47,0.85,-0.64,-0.5,-1.07
1900-01-01 12:19:53.745,52.42,22.26,-30.49,0.37,0.77,0.47,-1.3,1.63,-0.49,28.72,12.13,27.05,0.21,0.48,0.85,-1.36,0.17,-1.2
1900-01-01 12:19:53.806,52.1,22.16,-30.57,0.37,0.78,0.48,-1.41,1.58,0.08,28.14,12.13,27.02,0.21,0.48,0.87,-0.8,-0.34,-0.45
1900-01-01 12:19:53.891,51.96,22.14,-30.57,0.37,0.76,0.47,-1.44,1.32,-0.08,27.75,12.34,27.11,0.21,0.46,0.86,-0.83,-0.59,-0.79
1900-01-01 12:19:53.967,52.34,21.79,-30.59,0.36,0.77,0.47,-1.42,1.5,-0.37,28.3,11.65,27.15,0.2,0.48,0.86,-1.18,-0.09,-1.12
1900-01-01 12:19:54.058,52.28,22.16,-30.65,0.37,0.78,0.47,-1.38,1.34,-0.36,28.3,11.8,27.14,0.21,0.48,0.87,-0.79,0.06,-1.18
1900-01-01 12:19:54.142,52.26,22.11,-30.72,0.37,0.78,0.47,-1.49,1.31,-0.05,28.31,11.86,27.11,0.21,0.48,0.87,-0.51,-0.19,-0.87
1900-01-01 12:19:54.387,52.51,21.88,-30.73,0.37,0.78,0.47,-1.44,1.49,0.37,28.38,11.54,27.14,0.2,0.48,0.87,-0.37,-0.27,-0.44
1900-01-01 12:19:54.411,52.06,21.97,-30.68,0.37,0.77,0.48,-1.53,1.46,0.52,27.93,12.03,27.23,0.21,0.47,0.86,-0.41,-0.31,-0.31
1900-01-01 12:19:54.411,52.1,21.99,-30.61,0.37,0.77,0.48,-1.6,1.08,0.39,28.01,12.01,27.34,0.21,0.47,0.86,-0.73,-0.83,-0.7
1900-01-01 12:19:54.468,52.11,22.2,-30.56,0.37,0.77,0.47,-1.82,1.15,0.45,27.98,12.24,27.39,0.21,0.47,0.86,-0.84,-0.89,-0.41
1900-01-01 12:19:54.491,52.01,22.14,-30.5,0.37,0.77,0.47,-1.6,0.94,0.75,27.88,12.04,27.49,0.21,0.47,0.86,-0.37,-1.2,-0.33
1900-01-01 12:19:54.575,51.65,22.81,-30.39,0.38,0.76,0.47,-1.56,1.3,0.48,28.51,12.78,27.6,0.22,0.47,0.85,-0.58,-0.87,-0.42
1900-01-01 12:19:54.661,52.4,21.77,-30.33,0.36,0.78,0.48,-1.66,1.59,0.28,28.03,11.72,27.69,0.21,0.48,0.87,-1.37,-0.11,-0.55
1900-01-01 12:19:54.754,50.57,23.21,-30.29,0.38,0.74,0.48,-1.76,0.93,1.54,27.22,13.04,27.76,0.23,0.46,0.86,0.01,-2.33,0.59
1900-01-01 12:19:54.800,51.72,22.12,-30.07,0.36,0.76,0.47,-1.34,1.59,-1.01,28.21,13.35,28.01,0.22,0.46,0.82,-1.57,0.85,-1.76
1900-01-01 12:19:54.892,52.53,21.56,-30.23,0.37,0.79,0.48,-1.26,0.95,-0.35,27.63,11.17,27.9,0.2,0.48,0.9,-0.93,-0.03,-1.47
1900-01-01 12:19:54.985,50.9,23.03,-30.29,0.39,0.77,0.49,-1.83,-0.04,1.93,27.34,12.37,27.83,0.22,0.48,0.9,0.53,-3.06,0.08
1900-01-01 12:19:55.032,50.13,24.54,-30.01,0.39,0.72,0.46,-0.99,0.5,1.21,28.51,15.56,28.01,0.25,0.45,0.79,1.37,-2.04,-0.18
1900-01-01 12:19:55.116,52.34,21.82,-29.83,0.35,0.75,0.46,-0.37,2.26,-1.76,28.01,12.86,28.14,0.21,0.45,0.82,-1.15,2.05,-1.84
1900-01-01 12:19:55.203,52.25,21.45,-30.11,0.37,0.8,0.49,-0.7,1.71,-1.03,27.79,11.22,28.01,0.2,0.49,0.9,-1.0,1.33,-1.69
1900-01-01 12:19:55.285,50.36,23.94,-30.27,0.4,0.77,0.49,-1.47,0.18,1.0,27.63,13.51,27.91,0.24,0.48,0.89,0.08,-2.17,-0.54
1900-01-01 12:19:55.369,52.13,22.84,-30.13,0.37,0.75,0.45,-1.15,0.85,0.28,29.3,12.89,27.99,0.22,0.47,0.82,0.24,-0.98,-0.8
1900-01-01 12:19:55.448,52.47,21.81,-30.09,0.36,0.77,0.47,-0.78,1.82,-0.98,28.37,11.91,28.02,0.2,0.47,0.84,-0.4,1.42,-1.4
1900-01-01 12:19:55.495,51.4,22.77,-30.25,0.39,0.78,0.49,-0.74,1.27,-0.3,27.93,12.38,27.97,0.22,0.49,0.89,-0.53,0.49,-1.34
1900-01-01 12:19:55.589,51.5,23.31,-30.31,0.39,0.77,0.47,-1.06,0.88,0.52,28.88,13.03,27.92,0.23,0.49,0.86,0.5,-0.48,-0.78
1900-01-01 12:19:55.635,51.84,22.61,-30.24,0.37,0.75,0.46,-0.91,1.37,-0.11,28.25,13.2,27.96,0.22,0.46,0.83,0.16,-0.33,-0.7
1900-01-01 12:19:55.777,52.06,22.24,-30.26,0.37,0.77,0.47,-0.53,1.4,-1.24,27.8,12.54,28.01,0.22,0.46,0.85,-0.49,1.11,-1.95
1900-01-01 12:19:55.819,52.11,22.61,-30.46,0.38,0.78,0.48,-0.79,1.21,-0.56,28.66,12.05,27.87,0.21,0.49,0.87,-0.47,0.26,-1.51
1900-01-01 12:19:55.870,52.38,22.46,-30.55,0.38,0.78,0.47,-1.11,1.27,0.21,28.93,11.88,27.8,0.21,0.49,0.86,-0.08,-0.35,-0.64
1900-01-01 12:19:55.959,51.89,22.33,-30.53,0.37,0.76,0.47,-0.88,1.31,-0.09,28.05,12.56,27.86,0.22,0.47,0.85,0.0,0.03,-0.87
1900-01-01 12:19:56.111,52.35,22.07,-30.55,0.37,0.77,0.47,-0.67,1.15,-0.53,28.07,12.13,27.88,0.21,0.47,0.86,-0.57,0.32,-1.44
1900-01-01 12:19:56.111,52.16,22.56,-30.64,0.38,0.78,0.47,-1.08,0.99,0.03,28.65,12.19,27.82,0.22,0.49,0.87,-0.64,-0.2,-1.09
1900-01-01 12:19:56.195,52.33,22.49,-30.65,0.37,0.77,0.46,-0.9,0.73,-0.05,28.58,12.44,27.81,0.21,0.48,0.85,-0.18,-0.68,-1.26
1900-01-01 12:19:56.270,52.47,22.43,-30.66,0.37,0.78,0.46,-1.15,1.23,-0.27,29.07,12.15,27.78,0.21,0.49,0.85,-0.43,0.03,-1.12
1900-01-01 12:19:56.356,51.81,23.15,-30.71,0.38,0.77,0.47,-0.87,1.24,0.02,28.96,13.5,27.76,0.23,0.48,0.83,0.24,-0.28,-0.89
1900-01-01 12:19:56.436,53.61,21.08,-30.72,0.35,0.79,0.47,-0.96,2.29,-1.02,29.21,11.08,27.79,0.19,0.49,0.86,-0.95,2.38,-1.21
1900-01-01 12:19:56.517,53.86,20.42,-30.88,0.36,0.83,0.49,-1.14,0.78,0.79,28.07,9.11,27.76,0.17,0.51,0.93,-0.08,-0.17,-0.62
1900-01-01 12:19:56.568,50.31,24.11,-30.77,0.4,0.75,0.48,-3.15,-0.3,3.3,27.84,13.04,27.83,0.23,0.48,0.88,-0.68,-4.5,1.02
1900-01-01 12:19:56.661,49.76,25.81,-30.27,0.4,0.69,0.43,-3.09,0.01,0.21,28.35,17.56,28.14,0.27,0.43,0.75,-4.4,-4.12,-1.48
1900-01-01 12:19:56.765,54.48,21.12,-30.25,0.34,0.77,0.43,-0.31,2.84,-3.39,29.81,10.54,28.07,0.18,0.48,0.81,-1.91,3.57,-3.24
1900-01-01 12:19:56.799,53.35,20.55,-30.78,0.36,0.83,0.5,-0.5,2.62,-1.35,27.65,9.26,27.73,0.18,0.51,0.95,-0.92,3.13,-1.53
1900-01-01 12:19:56.893,49.57,24.56,-30.99,0.41,0.76,0.49,-2.05,0.45,2.17,26.44,14.21,27.66,0.26,0.47,0.91,0.9,-2.8,0.88
1900-01-01 12:19:56.940,52.51,22.68,-30.67,0.36,0.75,0.45,-1.21,1.54,-0.52,29.14,13.79,27.95,0.22,0.46,0.79,0.5,0.21,-1.04
1900-01-01 12:19:57.032,54.14,19.65,-30.76,0.33,0.79,0.47,-0.76,1.93,-0.76,27.23,9.25,27.95,0.16,0.47,0.89,-0.86,1.25,-1.15
1900-01-01 12:19:57.125,51.13,22.45,-30.88,0.39,0.79,0.51,-1.64,0.49,0.85,27.34,11.82,27.93,0.22,0.49,0.92,-0.28,-1.23,-0.85
1900-01-01 12:19:57.172,50.06,25.46,-30.76,0.42,0.74,0.46,-2.09,0.05,1.5,28.98,15.35,27.96,0.26,0.48,0.83,0.64,-3.19,-0.29
1900-01-01 12:19:57.275,53.73,21.36,-30.54,0.34,0.76,0.44,-1.34,2.29,0.05,29.37,10.97,28.08,0.18,0.47,0.82,-0.5,0.82,-0.24
1900-01-01 12:19:57.360,52.53,20.9,-30.54,0.35,0.79,0.49,-0.49,1.53,-0.31,26.82,11.51,28.2,0.2,0.46,0.88,-0.04,1.29,-0.99
1900-01-01 12:19:57.405,49.61,24.63,-30.6,0.41,0.75,0.49,-1.63,-0.02,1.28,26.96,14.15,28.2,0.25,0.47,0.89,-0.26,-3.0,-0.25
1900-01-01 12:19:57.497,52.04,23.48,-30.41,0.38,0.76,0.45,-1.35,0.78,-0.12,29.63,13.72,28.32,0.23,0.48,0.81,-0.17,-0.55,-1.3
1900-01-01 12:19:57.660,53.73,20.94,-30.44,0.35,0.79,0.46,-1.39,1.86,-0.13,28.71,10.39,28.28,0.18,0.48,0.86,-0.69,0.24,-0.59
1900-01-01 12:19:57.660,50.78,23.14,-30.47,0.39,0.77,0.49,-2.23,1.69,0.51,27.67,12.39,28.35,0.22,0.48,0.89,-1.44,-0.87,-0.13
1900-01-01 12:19:57.732,50.12,25.38,-30.4,0.41,0.74,0.46,-1.23,0.5,-0.05,27.95,16.43,28.49,0.28,0.46,0.82,-0.6,-1.56,-1.04
1900-01-01 12:19:57.777,54.24,21.01,-30.41,0.35,0.79,0.45,0.15,1.34,0.98,30.16,9.57,28.49,0.17,0.51,0.86,0.66,0.37,-0.34
1900-01-01 12:19:57.912,51.12,22.16,-30.27,0.37,0.77,0.5,-0.9,2.61,1.57,27.39,12.67,28.59,0.22,0.46,0.86,0.65,0.16,1.26
1900-01-01 12:19:57.936,49.9,23.23,-30.04,0.39,0.76,0.51,-2.5,1.82,0.82,25.95,14.1,28.94,0.25,0.45,0.9,-1.69,-1.01,0.56
1900-01-01 12:19:58.015,51.29,23.54,-29.92,0.39,0.76,0.47,-1.98,-0.63,0.5,27.9,13.5,29.19,0.23,0.47,0.86,-0.72,-2.61,-1.51
1900-01-01 12:19:58.104,51.88,24.09,-29.86,0.39,0.74,0.44,-0.91,0.11,-0.07,30.15,13.34,29.12,0.22,0.48,0.8,0.34,-1.25,-1.68
1900-01-01 12:19:58.197,51.31,23.51,-29.88,0.39,0.76,0.47,-0.26,1.98,-0.56,29.22,12.94,29.02,0.22,0.48,0.84,-0.48,1.42,-1.18
1900-01-01 12:19:58.245,50.96,23.36,-29.97,0.39,0.77,0.49,-1.09,2.61,-0.73,28.3,13.2,29.0,0.23,0.49,0.87,-1.35,1.69,-0.82
1900-01-01 12:19:58.338,50.68,23.27,-30.09,0.38,0.75,0.48,-1.35,1.57,-0.92,26.74,14.02,29.03,0.24,0.45,0.86,-0.69,0.13,-1.15
1900-01-01 12:19:58.412,52.27,22.75,-30.24,0.38,0.77,0.46,-0.83,1.26,-1.25,28.28,12.25,29.01,0.21,0.47,0.86,-1.04,0.51,-2.04
1900-01-01 12:19:58.512,52.19,22.77,-30.44,0.38,0.78,0.47,-1.08,1.85,-0.22,29.34,11.83,28.86,0.21,0.5,0.87,-0.89,0.33,-0.92
1900-01-01 12:19:58.577,51.65,22.55,-30.48,0.38,0.78,0.48,-1.47,2.07,0.46,28.37,12.36,28.87,0.22,0.49,0.87,-0.91,0.41,-0.15
1900-01-01 12:19:58.617,51.01,22.42,-30.42,0.37,0.75,0.49,-1.6,1.32,0.8,26.71,13.21,29.01,0.23,0.45,0.87,-0.22,-0.56,0.01
1900-01-01 12:19:58.726,51.43,22.53,-30.31,0.37,0.75,0.47,-0.58,0.44,-0.4,26.91,13.65,29.17,0.23,0.44,0.83,0.09,-0.46,-1.56
1900-01-01 12:19:58.819,51.8,23.04,-30.38,0.38,0.77,0.47,-0.71,1.15,-0.82,28.73,12.69,29.09,0.22,0.48,0.85,-0.76,0.38,-1.77
1900-01-01 12:19:58.899,51.54,23.07,-30.51,0.39,0.78,0.48,-1.15,1.13,0.25,28.63,12.33,28.98,0.22,0.5,0.88,-0.28,-0.37,-0.88
1900-01-01 12:19:58.942,51.41,22.94,-30.48,0.38,0.76,0.47,-1.17,1.05,0.46,27.96,12.94,29.0,0.22,0.47,0.85,0.1,-0.65,-0.48
1900-01-01 12:19:59.036,51.86,22.54,-30.42,0.37,0.76,0.47,-0.79,1.24,-0.24,28.28,12.42,29.08,0.21,0.47,0.85,-0.52,0.35,-1.12
1900-01-01 12:19:59.082,51.57,22.8,-30.46,0.38,0.77,0.48,-0.85,0.99,-0.37,28.13,12.76,29.07,0.22,0.48,0.86,-0.47,-0.04,-1.3
1900-01-01 12:19:59.176,51.93,23.03,-30.53,0.38,0.77,0.47,-1.27,1.13,-0.07,28.7,12.39,29.03,0.22,0.49,0.86,-0.88,-0.44,-1.17
1900-01-01 12:19:59.271,51.82,22.81,-30.55,0.38,0.77,0.47,-1.19,1.39,0.23,28.19,12.5,29.01,0.22,0.48,0.86,-0.37,-0.17,-0.56
1900-01-01 12:19:59.318,50.97,23.23,-30.52,0.38,0.76,0.48,-1.28,1.2,-0.04,27.96,13.02,29.08,0.23,0.47,0.86,-0.77,-0.49,-0.91
1900-01-01 12:19:59.410,52.54,22.17,-30.54,0.37,0.78,0.47,-1.85,1.24,-0.27,29.49,11.67,29.1,0.2,0.49,0.85,-1.17,-0.73,-1.27
1900-01-01 12:19:59.487,50.99,23.21,-30.59,0.39,0.76,0.48,-1.83,1.26,0.15,27.53,13.1,29.06,0.23,0.47,0.87,-0.89,-1.02,-0.57
1900-01-01 12:19:59.578,51.82,22.98,-30.57,0.38,0.76,0.46,-1.14,1.11,-0.32,28.66,12.6,29.14,0.22,0.48,0.84,-0.15,-0.25,-1.22
1900-01-01 12:19:59.638,52.24,22.58,-30.63,0.37,0.77,0.47,-1.24,1.98,-0.51,28.94,12.26,29.11,0.21,0.48,0.85,-1.22,0.82,-1.06
1900-01-01 12:19:59.730,51.58,22.69,-30.72,0.38,0.77,0.48,-1.28,1.64,-0.04,27.9,12.67,29.1,0.22,0.47,0.87,-0.79,-0.29,-0.69
1900-01-01 12:19:59.784,51.68,22.36,-30.73,0.37,0.77,0.48,-1.37,1.52,0.14,28.03,12.22,29.16,0.21,0.47,0.86,-0.6,-0.28,-0.6
1900-01-01 12:19:59.878,51.95,22.1,-30.72,0.36,0.76,0.47,-1.1,1.16,-0.31,27.6,12.48,29.22,0.22,0.46,0.86,-0.92,0.1,-1.22
1900-01-01 12:19:59.924,52.03,22.46,-30.77,0.37,0.77,0.47,-1.03,1.01,-0.37,27.87,12.31,29.19,0.22,0.47,0.87,-0.33,0.01,-1.39
1900-01-01 12:19:59.998,51.79,22.85,-30.84,0.38,0.77,0.47,-1.04,0.78,0.06,28.13,12.64,29.14,0.22,0.48,0.86,-0.15,-0.69,-1.15
1900-01-01 12:20:00.096,52.12,22.6,-30.84,0.37,0.77,0.47,-0.81,1.03,-0.15,28.48,12.48,29.12,0.22,0.48,0.85,-0.11,-0.06,-1.2
1900-01-01 12:20:00.232,52.09,22.48,-30.87,0.37,0.77,0.47,-0.82,1.3,-0.27,28.06,12.39,29.09,0.21,0.47,0.85,-0.35,0.08,-1.04
1900-01-01 12:20:00.232,51.99,22.37,-30.92,0.37,0.77,0.48,-0.97,1.02,-0.25,27.76,12.28,29.09,0.21,0.47,0.87,-0.31,-0.24,-1.18
1900-01-01 12:20:00.314,52.16,22.46,-30.97,0.38,0.78,0.47,-1.2,0.78,-0.05,28.36,11.75,29.07,0.21,0.48,0.87,-0.75,-0.56,-1.42
1900-01-01 12:20:00.420,52.26,22.56,-30.98,0.37,0.77,0.46,-0.92,0.62,-0.17,28.42,12.13,29.01,0.21,0.47,0.85,-0.09,-0.63,-1.43
1900-01-01 12:20:00.482,52.32,22.76,-31.02,0.38,0.77,0.46,-1.12,1.37,-0.43,28.93,12.27,28.95,0.21,0.48,0.85,-0.82,0.27,-1.18
1900-01-01 12:20:00.562,51.96,22.71,-31.09,0.38,0.78,0.48,-1.36,1.24,0.12,28.3,12.15,28.93,0.22,0.49,0.88,-0.73,-0.53,-0.78
1900-01-01 12:20:00.662,52.01,22.69,-31.08,0.38,0.77,0.47,-1.73,1.01,0.56,28.36,12.07,28.97,0.21,0.48,0.87,-0.52,-0.96,-0.45
1900-01-01 12:20:00.727,51.97,22.51,-31.01,0.37,0.77,0.47,-1.65,0.92,0.26,28.2,12.3,29.06,0.21,0.47,0.85,-0.71,-0.93,-0.76
1900-01-01 12:20:00.766,51.93,22.83,-30.97,0.38,0.77,0.47,-1.66,0.98,0.05,28.28,12.5,29.1,0.22,0.48,0.86,-1.03,-1.0,-1.01
1900-01-01 12:20:00.859,52.07,22.77,-30.97,0.38,0.78,0.47,-1.6,1.0,0.44,28.56,12.09,29.1,0.21,0.49,0.87,-0.5,-0.99,-0.64
1900-01-01 12:20:00.954,52.11,22.75,-30.92,0.38,0.77,0.47,-1.48,1.05,0.67,28.56,12.38,29.16,0.22,0.48,0.86,-0.34,-1.01,-0.44
1900-01-01 12:20:01.001,51.66,22.9,-30.82,0.38,0.76,0.47,-1.5,1.3,0.72,27.96,13.04,29.25,0.22,0.47,0.85,-0.21,-0.64,-0.11
1900-01-01 12:20:01.094,51.76,22.8,-30.72,0.38,0.77,0.47,-1.42,1.08,0.18,28.03,12.95,29.39,0.22,0.47,0.85,-0.82,-0.59,-0.85
1900-01-01 12:20:01.243,51.56,23.14,-30.7,0.39,0.77,0.47,-1.79,1.18,0.6,28.38,12.52,29.42,0.22,0.48,0.86,-0.66,-1.31,-0.35
1900-01-01 12:20:01.243,51.66,22.82,-30.62,0.38,0.77,0.47,-1.79,0.95,0.5,28.15,12.68,29.53,0.22,0.47,0.86,-0.21,-1.11,-0.6
1900-01-01 12:20:01.328,51.54,23.33,-30.55,0.39,0.77,0.47,-1.44,0.82,0.46,28.41,12.91,29.59,0.22,0.48,0.86,-0.41,-1.07,-0.68
1900-01-01 12:20:01.401,51.67,23.17,-30.49,0.39,0.77,0.47,-1.95,1.38,0.97,29.04,12.6,29.65,0.22,0.49,0.85,-0.71,-0.93,-0.08
1900-01-01 12:20:01.492,50.95,23.37,-30.35,0.38,0.75,0.47,-1.78,1.24,1.06,27.78,13.63,29.8,0.24,0.46,0.85,-0.6,-1.17,0.13
1900-01-01 12:20:01.551,50.87,23.34,-30.2,0.38,0.74,0.47,-1.28,1.04,0.05,27.39,13.91,29.97,0.24,0.45,0.84,-0.6,-0.56,-0.85
1900-01-01 12:20:01.635,51.1,23.58,-30.2,0.39,0.75,0.47,-0.99,1.29,-0.66,28.32,13.55,30.0,0.23,0.47,0.84,-0.65,0.21,-1.49
1900-01-01 12:20:01.718,50.96,23.75,-30.3,0.4,0.76,0.48,-0.99,1.4,-0.69,28.11,13.64,29.93,0.24,0.48,0.86,-0.78,0.24,-1.4
1900-01-01 12:20:01.799,51.27,23.38,-30.42,0.39,0.77,0.48,-1.09,1.34,-0.21,28.61,12.88,29.88,0.23,0.49,0.87,-0.46,0.2,-1.21
1900-01-01 12:20:01.841,51.36,23.31,-30.46,0.39,0.76,0.47,-1.19,1.53,-0.14,28.55,13.22,29.85,0.23,0.48,0.85,-0.6,0.0,-0.86
1900-01-01 12:20:01.934,51.26,23.08,-30.49,0.38,0.76,0.47,-1.02,1.48,-0.38,27.85,13.27,29.88,0.23,0.47,0.85,-0.62,0.08,-1.0
1900-01-01 12:20:02.116,51.25,23.0,-30.56,0.38,0.77,0.48,-1.21,1.48,-0.34,28.17,12.97,29.88,0.23,0.48,0.86,-0.96,0.17,-1.1
1900-01-01 12:20:02.116,51.37,22.9,-30.62,0.38,0.76,0.48,-0.87,1.01,-0.32,27.91,13.03,29.87,0.23,0.47,0.86,-0.4,-0.18,-1.34
1900-01-01 12:20:02.143,51.54,23.23,-30.67,0.38,0.76,0.47,-1.01,0.97,-0.23,28.45,12.9,29.83,0.22,0.48,0.85,-0.48,-0.5,-1.28
1900-01-01 12:20:02.225,51.47,23.22,-30.72,0.39,0.77,0.47,-1.17,1.25,-0.27,28.39,12.86,29.79,0.23,0.48,0.86,-1.04,0.02,-1.31
1900-01-01 12:20:02.315,51.33,23.2,-30.77,0.39,0.76,0.47,-1.02,1.03,0.08,28.13,13.13,29.74,0.23,0.48,0.86,-0.13,-0.39,-0.97
1900-01-01 12:20:02.371,51.71,23.2,-30.76,0.38,0.77,0.47,-1.01,1.14,-0.23,28.67,12.93,29.75,0.22,0.48,0.85,-0.3,-0.02,-1.27
1900-01-01 12:20:02.460,51.68,23.09,-30.81,0.38,0.77,0.47,-1.02,1.27,-0.01,28.46,12.66,29.72,0.22,0.48,0.86,0.07,0.08,-0.84
1900-01-01 12:20:02.544,51.54,22.99,-30.82,0.38,0.77,0.47,-1.03,1.24,-0.05,28.18,13.08,29.75,0.23,0.47,0.86,-0.04,0.02,-0.9
1900-01-01 12:20:02.640,51.98,22.97,-30.83,0.38,0.77,0.47,-1.26,1.46,-0.13,28.82,12.77,29.77,0.22,0.48,0.85,-0.53,0.11,-0.9
1900-01-01 12:20:02.682,51.45,23.05,-30.86,0.38,0.77,0.47,-1.15,1.51,-0.07,28.19,13.09,29.79,0.23,0.47,0.85,-0.43,-0.08,-0.69
1900-01-01 12:20:02.776,51.62,23.07,-30.88,0.38,0.77,0.47,-0.92,1.29,-0.05,28.27,12.83,29.84,0.22,0.48,0.86,-0.05,0.02,-0.85
1900-01-01 12:20:02.895,51.68,23.04,-30.9,0.38,0.77,0.47,-0.91,1.41,0.03,28.0,13.12,29.87,0.23,0.47,0.86,-0.37,0.44,-0.7
1900-01-01 12:20:02.923,51.31,22.92,-30.9,0.37,0.75,0.47,-0.2,0.85,0.43,28.26,12.8,29.92,0.22,0.47,0.85,0.13,0.14,-1.03
1900-01-01 12:20:03.009,51.56,23.42,-30.84,0.39,0.76,0.46,0.19,1.73,-0.8,28.25,14.12,29.92,0.24,0.46,0.83,0.2,0.69,-1.12
1900-01-01 12:20:03.061,52.66,20.97,-30.97,0.36,0.79,0.49,-1.15,2.35,-2.02,27.03,11.32,29.91,0.2,0.47,0.89,-1.19,1.09,-1.36
1900-01-01 12:20:03.171,53.24,22.01,-31.29,0.39,0.83,0.48,-1.2,-0.73,0.21,28.79,10.42,29.86,0.2,0.53,0.94,-1.27,-1.14,-2.3
1900-01-01 12:20:03.237,51.26,25.02,-31.27,0.42,0.78,0.46,-1.83,-1.78,4.51,30.87,12.53,29.66,0.23,0.54,0.87,1.79,-6.01,0.85
1900-01-01 12:20:03.317,49.41,26.37,-30.59,0.42,0.73,0.45,-2.44,0.19,4.15,29.04,16.43,29.95,0.28,0.47,0.81,1.24,-3.35,2.18
1900-01-01 12:20:03.407,52.22,22.7,-29.96,0.36,0.74,0.44,-2.34,1.18,1.64,29.26,12.97,30.45,0.21,0.46,0.8,-0.23,-0.85,0.3
1900-01-01 12:20:03.491,50.27,24.32,-29.72,0.39,0.74,0.47,-1.66,1.53,-0.34,27.57,15.56,30.65,0.26,0.45,0.81,-1.0,-0.39,-0.65
1900-01-01 12:20:03.525,51.21,24.07,-29.78,0.4,0.76,0.46,-0.94,2.37,-2.4,29.01,14.03,30.71,0.24,0.47,0.82,-1.94,1.05,-2.17
1900-01-01 12:20:03.619,50.4,24.81,-30.16,0.41,0.75,0.47,-1.26,2.56,-1.7,29.18,14.01,30.53,0.24,0.49,0.85,-2.07,1.07,-1.91
1900-01-01 12:20:03.667,51.5,23.7,-30.43,0.39,0.76,0.46,-1.16,2.67,-1.33,29.31,13.31,30.4,0.23,0.49,0.84,-1.87,1.23,-1.12
1900-01-01 12:20:03.821,51.36,23.92,-30.64,0.4,0.77,0.47,-0.76,3.27,-0.11,29.54,13.07,30.39,0.23,0.5,0.85,-1.91,0.94,0.0
1900-01-01 12:20:03.852,51.89,22.77,-30.66,0.4,0.81,0.49,-1.53,3.57,0.6,28.8,12.83,30.55,0.23,0.51,0.89,-1.44,1.6,1.17
1900-01-01 12:20:03.918,51.81,21.31,-30.58,0.37,0.79,0.5,-1.59,1.03,2.4,26.11,11.56,30.88,0.21,0.47,0.93,0.63,-1.31,1.22
1900-01-01 12:20:04.002,50.83,23.41,-30.22,0.37,0.73,0.46,-0.94,-0.08,1.99,27.84,13.8,31.23,0.23,0.45,0.82,1.89,-2.48,0.02
1900-01-01 12:20:04.077,50.87,23.91,-29.93,0.39,0.74,0.46,-1.56,1.58,-0.22,28.71,14.9,31.39,0.25,0.46,0.8,-0.7,-0.21,-0.86
1900-01-01 12:20:04.167,50.57,22.86,-29.97,0.38,0.76,0.49,-2.23,2.53,-1.22,27.13,13.64,31.42,0.24,0.46,0.87,-2.39,1.2,-1.06
1900-01-01 12:20:04.237,50.66,23.01,-30.17,0.38,0.76,0.49,-1.55,0.56,-1.25,26.7,13.65,31.41,0.24,0.46,0.87,-1.12,-0.73,-1.98
1900-01-01 12:20:04.312,51.18,23.72,-30.37,0.39,0.75,0.46,-0.73,-0.52,-1.37,28.7,13.52,31.27,0.23,0.48,0.84,-0.34,-0.83,-3.21
1900-01-01 12:20:04.395,51.28,24.18,-30.59,0.4,0.76,0.46,0.12,0.32,-1.29,29.7,13.85,30.93,0.24,0.49,0.83,0.11,0.42,-2.95
1900-01-01 12:20:04.487,52.07,23.38,-30.79,0.4,0.79,0.47,-0.27,1.32,-0.58,29.64,12.81,30.64,0.23,0.51,0.86,-0.19,0.59,-1.63
1900-01-01 12:20:04.518,51.85,23.01,-30.89,0.38,0.77,0.47,-0.6,1.33,0.6,28.68,12.46,30.55,0.22,0.49,0.87,0.45,-0.06,-0.32
1900-01-01 12:20:04.600,52.0,22.78,-30.81,0.38,0.77,0.47,-0.46,1.03,0.24,28.66,12.77,30.66,0.22,0.48,0.85,0.2,-0.03,-0.83
1900-01-01 12:20:04.693,51.67,23.56,-30.78,0.39,0.77,0.47,-1.08,1.27,0.06,28.83,13.5,30.69,0.23,0.48,0.85,-0.49,-0.18,-0.77
1900-01-01 12:20:04.749,51.65,23.38,-30.78,0.39,0.78,0.47,-1.69,1.4,0.47,28.95,13.01,30.73,0.23,0.49,0.86,-0.56,-0.82,-0.4
1900-01-01 12:20:04.840,50.93,23.43,-30.71,0.39,0.76,0.48,-2.39,1.83,0.51,28.08,13.68,30.83,0.24,0.47,0.86,-1.31,-1.04,0.09
1900-01-01 12:20:04.913,51.18,23.32,-30.64,0.38,0.76,0.47,-2.08,1.18,0.34,27.79,13.13,31.0,0.23,0.47,0.86,-1.11,-0.91,-0.47
1900-01-01 12:20:05.002,51.78,23.51,-30.6,0.39,0.77,0.46,-1.66,0.93,0.15,29.15,13.42,31.09,0.23,0.49,0.84,-0.73,-1.0,-0.92
1900-01-01 12:20:05.079,51.24,23.77,-30.59,0.39,0.76,0.47,-1.73,1.57,0.94,29.39,12.82,31.1,0.22,0.5,0.85,-0.5,-0.99,0.12
1900-01-01 12:20:05.168,50.65,23.57,-30.45,0.39,0.75,0.48,-1.66,1.83,0.64,28.25,13.79,31.28,0.24,0.47,0.85,-0.8,-0.35,-0.03
1900-01-01 12:20:05.232,50.69,23.36,-30.36,0.39,0.76,0.48,-1.59,1.56,0.43,27.75,13.7,31.44,0.24,0.47,0.86,-0.79,-0.36,-0.29
1900-01-01 12:20:05.300,51.14,23.35,-30.3,0.39,0.77,0.48,-1.24,1.02,0.48,28.19,13.29,31.55,0.23,0.48,0.86,-0.22,-0.66,-0.67
1900-01-01 12:20:05.402,50.84,23.64,-30.24,0.39,0.76,0.48,-1.79,0.88,0.7,28.11,13.98,31.6,0.24,0.47,0.85,-0.5,-1.5,-0.4
1900-01-01 12:20:05.440,50.85,23.83,-30.14,0.4,0.76,0.48,-1.6,0.65,0.92,28.47,13.43,31.7,0.24,0.48,0.86,-0.06,-1.66,-0.52
1900-01-01 12:20:05.532,51.08,23.84,-30.01,0.39,0.76,0.47,-1.63,0.88,0.89,28.6,13.73,31.78,0.24,0.48,0.85,-0.4,-0.96,-0.42
1900-01-01 12:20:05.582,51.02,24.07,-29.88,0.38,0.73,0.45,-0.72,0.54,1.27,28.39,13.88,31.88,0.23,0.47,0.83,1.06,-1.34,-0.16
1900-01-01 12:20:05.731,49.68,24.93,-29.69,0.4,0.72,0.46,0.36,1.57,-1.3,28.05,16.65,32.01,0.27,0.44,0.78,0.59,1.01,-1.62
1900-01-01 12:20:05.766,52.08,22.52,-29.9,0.38,0.79,0.48,-0.53,1.44,-2.36,27.64,12.45,31.92,0.23,0.49,0.9,-1.71,2.5,-3.08
1900-01-01 12:20:05.824,49.73,25.18,-30.27,0.43,0.77,0.49,-0.99,0.67,-0.15,28.61,14.76,31.61,0.26,0.49,0.87,-0.19,-1.4,-1.28
1900-01-01 12:20:05.893,52.22,23.65,-30.3,0.39,0.77,0.45,-1.31,1.14,-0.35,30.48,12.44,31.57,0.22,0.51,0.84,-0.78,-0.5,-1.66
1900-01-01 12:20:05.975,51.35,23.89,-30.36,0.4,0.76,0.46,-1.54,2.01,0.33,28.92,13.62,31.47,0.24,0.49,0.85,-0.53,0.14,0.01
1900-01-01 12:20:06.074,50.95,23.49,-30.32,0.39,0.76,0.48,-1.47,1.4,0.56,28.01,13.29,31.63,0.23,0.48,0.87,-0.6,-0.37,-0.27
1900-01-01 12:20:06.137,50.71,24.01,-30.24,0.39,0.75,0.47,-1.3,0.96,0.26,28.3,14.38,31.75,0.25,0.47,0.84,-0.18,-0.78,-0.76
1900-01-01 12:20:06.219,50.89,24.36,-30.21,0.4,0.75,0.46,-1.13,1.81,-0.69,29.17,14.18,31.79,0.24,0.48,0.83,-0.92,0.55,-1.14
1900-01-01 12:20:06.302,51.47,23.57,-30.33,0.4,0.77,0.47,-1.43,2.22,-0.52,28.73,13.1,31.78,0.23,0.49,0.86,-1.67,0.74,-0.91
1900-01-01 12:20:06.383,49.82,24.53,-30.42,0.4,0.74,0.48,-1.93,1.89,0.18,27.77,14.0,31.8,0.24,0.47,0.86,-0.86,-0.6,0.02
1900-01-01 12:20:06.470,51.39,24.02,-30.4,0.39,0.75,0.45,-0.13,1.13,-1.21,28.69,14.73,31.96,0.25,0.46,0.81,-0.24,0.56,-1.81
1900-01-01 12:20:06.514,53.64,21.72,-30.59,0.37,0.8,0.46,0.88,1.98,0.19,30.14,9.9,31.84,0.18,0.52,0.88,0.75,1.97,-0.79
1900-01-01 12:20:06.607,51.37,22.68,-30.57,0.39,0.79,0.49,-1.09,3.18,1.89,29.24,12.41,31.88,0.22,0.5,0.87,-0.27,0.13,1.41
1900-01-01 12:20:06.653,49.98,23.81,-30.29,0.4,0.76,0.49,-3.06,2.76,1.56,26.54,14.4,32.25,0.26,0.46,0.88,-1.7,-0.89,2.06
1900-01-01 12:20:06.798,50.48,23.82,-30.06,0.39,0.74,0.47,-1.98,-0.46,0.08,26.17,14.66,32.72,0.25,0.44,0.86,-1.25,-2.27,-1.18
1900-01-01 12:20:06.843,51.34,24.71,-30.06,0.4,0.74,0.44,-0.77,-0.59,-1.08,29.36,14.67,32.7,0.24,0.47,0.8,-0.63,-0.82,-2.89
1900-01-01 12:20:06.890,51.01,24.21,-30.23,0.4,0.75,0.46,-0.48,1.35,-1.39,28.92,14.2,32.42,0.24,0.48,0.83,-1.01,1.76,-2.55
1900-01-01 12:20:06.981,51.53,23.5,-30.45,0.39,0.77,0.47,-1.11,2.63,-1.38,28.7,13.04,32.18,0.23,0.49,0.86,-2.24,1.79,-1.49
1900-01-01 12:20:07.053,51.83,22.66,-30.67,0.38,0.78,0.48,-1.49,2.59,-0.34,28.04,12.41,32.11,0.22,0.48,0.88,-1.05,1.4,-0.6
1900-01-01 12:20:07.138,50.78,22.87,-30.73,0.38,0.76,0.49,-1.33,1.24,0.21,26.53,13.17,32.18,0.23,0.45,0.88,-0.09,-0.85,-0.4
1900-01-01 12:20:07.212,51.3,22.59,-30.71,0.37,0.76,0.48,-1.91,0.15,-0.26,26.88,13.09,32.28,0.23,0.45,0.87,-0.95,-2.04,-2.04
1900-01-01 12:20:07.301,51.2,23.12,-30.76,0.38,0.76,0.48,-2.18,0.08,-0.64,27.89,13.84,32.12,0.24,0.46,0.84,-0.28,-0.85,-2.93
1900-01-01 12:20:07.368,51.23,23.2,-30.86,0.39,0.77,0.48,-0.96,0.85,0.09,28.34,13.09,31.83,0.23,0.48,0.86,1.58,1.15,-2.76
1900-01-01 12:20:07.452,51.47,23.52,-30.86,0.39,0.76,0.46,-0.27,1.19,0.21,29.33,12.32,31.57,0.21,0.49,0.84,1.5,3.47,-2.11
1900-01-01 12:20:07.536,51.61,23.63,-30.83,0.39,0.76,0.46,0.15,1.89,-0.11,29.59,12.09,31.4,0.21,0.49,0.84,-0.34,5.44,-1.4
1900-01-01 12:20:07.588,51.51,23.32,-30.86,0.39,0.77,0.47,-0.89,1.71,-0.46,28.65,10.22,31.35,0.18,0.49,0.88,-1.47,3.3,-1.85
1900-01-01 12:20:07.683,51.39,23.17,-30.94,0.39,0.77,0.48,-1.17,1.05,0.17,28.21,10.6,31.22,0.19,0.48,0.88,-0.22,0.66,-1.22
1900-01-01 12:20:07.728,51.98,22.92,-30.92,0.38,0.76,0.46,-1.02,0.73,0.21,28.83,10.43,31.2,0.18,0.48,0.86,-0.21,-0.35,-1.37
1900-01-01 12:20:07.822,51.58,23.34,-30.9,0.39,0.77,0.47,-1.3,1.31,-0.34,29.39,10.9,31.14,0.19,0.49,0.85,-0.97,-0.19,-1.24
1900-01-01 12:20:07.948,51.66,23.42,-30.96,0.39,0.78,0.47,-1.38,1.47,-0.03,28.92,10.53,31.11,0.19,0.49,0.87,-0.9,-0.46,-0.89
1900-01-01 12:20:07.973,51.87,23.25,-30.97,0.39,0.77,0.47,-1.65,1.24,0.31,29.26,10.4,31.13,0.18,0.49,0.86,-0.08,-0.34,-0.77
1900-01-01 12:20:08.097,51.65,23.21,-30.93,0.39,0.77,0.47,-1.57,1.31,-0.07,28.99,11.03,31.17,0.19,0.48,0.85,-0.85,0.24,-1.34
1900-01-01 12:20:08.184,51.67,23.11,-30.95,0.39,0.77,0.47,-1.63,1.18,0.12,28.63,9.94,31.13,0.18,0.49,0.88,-0.47,-1.89,-1.5
1900-01-01 12:20:08.184,51.31,23.31,-30.94,0.39,0.76,0.47,-1.59,1.02,0.02,28.65,10.87,31.06,0.19,0.48,0.86,-0.88,-0.19,-1.32
1900-01-01 12:20:08.267,51.68,23.17,-30.95,0.38,0.76,0.47,-1.5,1.32,0.18,28.75,9.98,31.01,0.17,0.48,0.86,-1.82,-0.13,-1.18
1900-01-01 12:20:08.365,51.41,23.22,-30.93,0.39,0.77,0.47,-1.27,1.58,0.26,28.63,10.56,30.99,0.18,0.48,0.86,-0.62,0.4,-0.85
1900-01-01 12:20:08.432,51.16,23.14,-30.9,0.38,0.76,0.48,-1.57,1.47,0.15,28.17,10.53,31.02,0.18,0.48,0.87,-1.45,0.08,-0.9
1900-01-01 12:20:08.514,51.31,23.21,-30.89,0.38,0.76,0.47,-1.6,1.14,0.12,28.28,10.05,31.04,0.18,0.48,0.87,-1.02,0.43,-0.99
1900-01-01 12:20:08.596,51.83,22.96,-30.88,0.38,0.77,0.47,-1.18,0.97,0.1,28.16,9.91,31.05,0.17,0.47,0.87,-0.27,0.06,-0.95
1900-01-01 12:20:08.680,51.34,23.36,-30.87,0.39,0.77,0.47,-1.32,1.22,0.15,28.44,10.21,31.06,0.18,0.48,0.86,-0.1,-0.19,-0.32
1900-01-01 12:20:08.756,51.13,23.36,-30.85,0.39,0.76,0.48,-1.6,1.05,0.19,28.1,10.4,31.17,0.18,0.48,0.88,-0.92,-0.68,0.42
1900-01-01 12:20:08.803,50.94,23.41,-30.83,0.38,0.75,0.47,-1.6,0.89,0.08,27.75,11.54,31.39,0.2,0.46,0.86,-0.44,-2.2,0.89
1900-01-01 12:20:08.919,51.45,23.39,-30.83,0.39,0.76,0.47,-1.09,1.29,-0.24,28.32,10.69,31.69,0.19,0.48,0.86,-0.8,0.27,-1.03
1900-01-01 12:20:08.949,51.18,23.3,-30.87,0.39,0.77,0.48,-1.09,1.11,0.05,27.75,10.99,31.69,0.19,0.47,0.88,-0.11,-0.01,-1.04
1900-01-01 12:20:09.039,51.11,23.4,-30.88,0.39,0.76,0.47,-1.22,1.11,0.02,28.11,11.0,31.69,0.19,0.47,0.86,-0.6,-0.24,-1.29
1900-01-01 12:20:09.129,51.44,23.5,-30.88,0.39,0.76,0.47,-1.24,1.28,-0.04,28.75,10.73,31.65,0.19,0.48,0.86,-0.75,-0.35,-1.1
1900-01-01 12:20:09.192,51.09,23.43,-30.9,0.39,0.76,0.47,-1.09,1.24,-0.1,27.69,11.05,31.64,0.19,0.46,0.86,-0.05,-0.24,-1.02
1900-01-01 12:20:09.279,51.31,23.29,-30.92,0.39,0.76,0.47,-0.75,1.08,-0.4,28.01,10.67,31.64,0.18,0.47,0.86,-0.11,0.4,-1.52
1900-01-01 12:20:09.356,51.51,23.27,-30.99,0.38,0.76,0.47,-0.74,1.11,-0.2,28.29,10.25,31.57,0.18,0.48,0.87,0.13,0.84,-1.6
1900-01-01 12:20:09.466,51.54,23.4,-31.03,0.39,0.76,0.47,-0.69,1.02,-0.47,28.46,10.36,31.48,0.18,0.48,0.86,-0.79,0.09,-2.24
1900-01-01 12:20:09.514,51.48,23.36,-31.11,0.39,0.77,0.47,-1.12,1.56,-0.43,28.84,10.76,31.3,0.19,0.49,0.86,-0.91,1.24,-2.1
1900-01-01 12:20:09.596,51.27,23.26,-31.18,0.39,0.76,0.48,-1.08,1.4,-0.15,27.91,9.99,31.13,0.18,0.48,0.88,-0.79,0.67,-2.08
1900-01-01 12:20:09.678,51.74,22.88,-31.21,0.38,0.76,0.47,-1.51,1.34,-0.46,28.66,9.45,30.97,0.16,0.48,0.86,-2.01,0.53,-2.6
1900-01-01 12:20:09.735,51.76,22.95,-31.29,0.38,0.77,0.47,-1.28,1.33,-0.47,28.67,9.66,30.73,0.17,0.48,0.87,-1.37,2.18,-3.3
1900-01-01 12:20:09.913,51.63,22.85,-31.37,0.38,0.77,0.47,-1.08,1.23,-0.3,28.14,8.35,30.39,0.15,0.47,0.88,-0.82,1.07,-1.94
1900-01-01 12:20:09.913,51.73,23.28,-31.42,0.39,0.76,0.46,-0.82,1.21,-0.33,28.63,8.73,30.25,0.15,0.48,0.87,-0.99,1.92,-1.63
1900-01-01 12:20:09.966,51.86,23.07,-31.48,0.38,0.77,0.47,-0.85,1.5,-0.11,28.54,8.09,30.16,0.14,0.48,0.87,-0.53,0.85,-0.96
1900-01-01 12:20:10.083,51.88,22.84,-31.51,0.38,0.77,0.47,-1.09,1.42,-0.18,28.18,8.24,30.17,0.14,0.47,0.87,-0.85,0.46,-0.92
1900-01-01 12:20:10.108,52.06,22.8,-31.54,0.38,0.77,0.47,-1.21,1.21,-0.15,28.22,7.92,30.19,0.14,0.48,0.88,-0.76,0.05,-1.03
1900-01-01 12:20:10.199,51.78,23.04,-31.57,0.38,0.77,0.47,-1.17,1.06,0.04,28.13,8.37,30.19,0.15,0.47,0.87,-0.44,0.05,-0.94
1900-01-01 12:20:10.260,52.17,22.84,-31.58,0.38,0.77,0.46,-0.9,0.97,-0.16,28.42,7.75,30.21,0.13,0.47,0.87,-0.41,-0.22,-1.26
1900-01-01 12:20:10.347,52.01,23.1,-31.61,0.38,0.77,0.46,-0.98,1.36,-0.2,28.83,7.99,30.17,0.14,0.48,0.87,-0.63,0.5,-1.04
1900-01-01 12:20:10.423,51.98,22.87,-31.65,0.38,0.78,0.47,0.31,1.24,-0.73,28.02,8.76,30.17,0.15,0.47,0.87,1.95,0.63,-0.44
1900-01-01 12:20:10.515,51.87,22.38,-31.77,0.37,0.77,0.48,-0.95,1.47,0.6,27.52,6.7,30.26,0.12,0.47,0.9,0.17,-0.11,0.69
1900-01-01 12:20:10.582,49.91,23.59,-31.68,0.39,0.75,0.5,-3.02,0.64,-0.37,26.84,10.48,30.53,0.18,0.45,0.88,-2.18,-5.85,2.85
1900-01-01 12:20:10.666,54.01,20.73,-31.75,0.35,0.79,0.46,-3.43,-1.3,-1.44,28.1,8.06,31.12,0.14,0.48,0.89,-2.78,-5.3,-1.03
1900-01-01 12:20:10.710,53.43,22.7,-31.98,0.38,0.79,0.44,-1.21,-1.44,0.92,29.38,6.77,31.12,0.12,0.51,0.89,5.03,-8.39,2.69
1900-01-01 12:20:10.805,50.92,25.45,-31.85,0.43,0.77,0.46,-1.61,0.44,2.31,31.54,13.89,31.69,0.24,0.51,0.8,2.14,-4.91,1.64
1900-01-01 12:20:10.985,51.37,24.15,-31.5,0.39,0.74,0.45,-1.53,2.31,1.32,29.0,12.41,32.1,0.21,0.47,0.82,0.19,0.96,0.95
1900-01-01 12:20:10.985,51.59,22.88,-31.31,0.37,0.74,0.46,-0.63,2.13,0.33,28.59,10.9,32.4,0.18,0.46,0.83,-1.03,2.27,-0.53
1900-01-01 12:20:11.012,48.89,25.8,-31.27,0.42,0.73,0.48,0.61,2.44,-0.78,28.01,13.98,32.48,0.23,0.46,0.83,-0.82,3.25,-1.06
1900-01-01 12:20:11.090,53.08,21.71,-31.4,0.37,0.81,0.48,0.17,2.95,-2.85,29.04,9.74,32.48,0.17,0.5,0.88,-3.49,7.15,-3.48
1900-01-01 12:20:11.179,52.73,21.79,-31.84,0.37,0.8,0.48,-1.55,1.21,0.66,27.6,6.48,32.1,0.12,0.51,0.96,-1.6,1.73,-1.01
1900-01-01 12:20:11.273,50.21,24.86,-31.75,0.41,0.75,0.47,-1.51,1.02,0.65,28.72,12.3,32.11,0.21,0.47,0.83,1.44,-2.31,0.7
1900-01-01 12:20:11.320,53.27,21.33,-31.66,0.36,0.79,0.47,-1.74,1.84,-0.09,28.89,7.47,32.38,0.13,0.5,0.89,-1.24,0.68,-0.07
1900-01-01 12:20:11.412,51.75,23.02,-31.68,0.39,0.79,0.48,-2.39,-0.23,1.85,28.49,9.3,32.52,0.17,0.5,0.9,-0.02,-3.7,0.43
1900-01-01 12:20:11.504,49.48,25.98,-31.4,0.42,0.72,0.45,-1.72,0.33,1.7,28.95,13.15,32.75,0.22,0.47,0.81,1.31,-3.34,0.49
1900-01-01 12:20:11.551,51.93,23.24,-31.15,0.38,0.76,0.46,-1.34,2.42,-1.02,30.04,11.45,32.98,0.19,0.48,0.81,-1.47,2.47,-1.15
1900-01-01 12:20:11.643,52.61,21.7,-31.32,0.37,0.8,0.49,-1.76,1.51,-0.65,28.15,8.44,32.96,0.15,0.5,0.91,-1.73,0.11,-1.33
1900-01-01 12:20:11.737,49.95,24.69,-31.42,0.41,0.76,0.49,-2.74,0.69,1.79,28.14,10.47,32.92,0.19,0.5,0.91,-0.88,-3.27,0.66
1900-01-01 12:20:11.784,49.95,25.14,-31.16,0.41,0.73,0.46,-2.39,0.61,1.43,28.93,12.81,33.18,0.22,0.47,0.82,-0.54,-2.99,0.18
1900-01-01 12:20:11.877,51.81,23.03,-30.95,0.37,0.75,0.46,-1.85,1.76,-0.02,28.91,10.76,33.36,0.18,0.47,0.83,-0.98,0.23,-0.68
1900-01-01 12:20:11.994,51.07,23.16,-30.96,0.39,0.77,0.49,-1.34,1.98,-0.12,28.11,10.38,33.42,0.18,0.48,0.88,-1.11,0.73,-0.44
1900-01-01 12:20:12.015,50.19,24.6,-30.99,0.42,0.77,0.49,-2.18,1.34,0.99,28.46,11.5,33.51,0.21,0.5,0.89,-1.13,-1.0,-0.11
1900-01-01 12:20:12.110,50.37,24.21,-30.85,0.4,0.75,0.48,-2.76,1.15,2.38,28.63,11.42,33.65,0.2,0.49,0.87,-0.08,-2.28,1.43
1900-01-01 12:20:12.156,50.24,23.46,-30.49,0.38,0.73,0.47,-2.04,0.9,1.44,27.26,11.83,34.03,0.2,0.44,0.83,0.04,-1.92,0.45
1900-01-01 12:20:12.248,50.33,23.72,-30.28,0.38,0.73,0.47,-1.01,0.93,0.07,27.36,11.91,34.25,0.2,0.44,0.84,-0.58,-0.6,-1.15
1900-01-01 12:20:12.344,50.37,24.5,-30.28,0.39,0.73,0.46,0.25,1.05,-0.66,28.42,11.79,34.24,0.2,0.46,0.83,0.71,-0.15,-1.92
1900-01-01 12:20:12.389,48.93,25.59,-30.39,0.43,0.75,0.49,-0.33,2.44,-2.42,28.51,14.12,34.1,0.24,0.47,0.84,1.78,-1.61,0.0
1900-01-01 12:20:12.482,50.29,23.92,-30.77,0.41,0.77,0.49,-0.84,1.45,-1.59,28.22,12.15,34.26,0.22,0.5,0.9,-0.49,1.44,-1.81
1900-01-01 12:20:12.577,51.57,23.41,-31.02,0.39,0.77,0.47,-1.15,1.29,-0.48,29.5,11.66,34.14,0.2,0.49,0.85,-0.5,-1.31,-0.97
1900-01-01 12:20:12.623,51.1,23.17,-31.1,0.38,0.75,0.47,-1.28,2.05,-0.61,28.72,11.38,34.15,0.2,0.48,0.85,-1.44,0.37,-0.89
1900-01-01 12:20:12.717,50.48,23.75,-31.2,0.4,0.76,0.49,-0.82,1.92,-0.73,28.59,11.99,34.17,0.21,0.49,0.87,-1.84,1.09,-1.57
1900-01-01 12:20:12.824,50.75,23.85,-31.32,0.4,0.77,0.48,-1.02,1.32,0.73,28.41,11.53,34.09,0.21,0.49,0.88,0.05,0.16,-0.11
1900-01-01 12:20:12.854,49.81,23.97,-31.22,0.39,0.74,0.48,-0.84,1.2,0.75,28.22,13.0,34.23,0.22,0.47,0.84,0.82,-0.61,-0.21
1900-01-01 12:20:12.948,51.01,22.55,-31.11,0.37,0.75,0.48,-1.27,1.28,-0.77,27.16,12.1,34.36,0.21,0.45,0.85,-1.32,0.41,-1.53
1900-01-01 12:20:13.002,51.29,22.77,-31.24,0.39,0.78,0.49,-1.32,0.28,-0.76,28.22,10.71,34.28,0.19,0.49,0.88,-1.27,-0.51,-2.36
1900-01-01 12:20:13.089,49.84,24.78,-31.36,0.41,0.75,0.48,-1.16,-0.32,0.5,27.89,12.55,34.08,0.22,0.48,0.87,0.29,-1.02,-1.25
1900-01-01 12:20:13.182,50.96,24.91,-31.3,0.4,0.74,0.45,0.02,-0.06,-0.24,30.85,12.64,34.04,0.21,0.49,0.8,1.49,-0.85,-2.22
1900-01-01 12:20:13.260,51.65,23.49,-31.34,0.39,0.77,0.47,-0.87,2.66,-1.15,30.01,10.79,33.86,0.19,0.5,0.84,-1.98,1.81,-1.39
1900-01-01 12:20:13.343,50.84,23.51,-31.53,0.4,0.77,0.49,-0.82,1.21,0.35,27.63,10.75,33.81,0.2,0.49,0.91,-0.15,0.02,-0.79
1900-01-01 12:20:13.378,51.31,23.07,-31.48,0.38,0.76,0.47,-0.24,0.82,-0.55,28.79,11.72,33.85,0.2,0.47,0.84,0.69,0.12,-1.64
1900-01-01 12:20:13.462,51.35,23.55,-31.57,0.39,0.77,0.47,-0.83,0.76,-0.19,28.57,10.48,33.75,0.19,0.49,0.88,-0.52,0.25,-1.58
1900-01-01 12:20:13.556,52.04,23.14,-31.61,0.39,0.78,0.47,-1.15,0.44,0.13,29.52,11.02,33.67,0.19,0.5,0.86,0.19,-0.44,-1.42
1900-01-01 12:20:13.616,49.78,25.33,-31.6,0.42,0.74,0.47,-1.54,0.95,0.24,28.81,12.52,33.61,0.22,0.48,0.85,-0.11,-1.29,-0.56
1900-01-01 12:20:13.703,51.33,23.71,-31.57,0.39,0.77,0.47,-1.57,0.9,-0.01,29.41,11.36,33.68,0.2,0.5,0.86,-1.02,0.18,-1.39
1900-01-01 12:20:13.780,51.97,23.32,-31.58,0.39,0.77,0.46,-1.4,0.75,0.63,29.24,10.24,33.63,0.18,0.49,0.86,0.02,-1.44,-0.53
1900-01-01 12:20:13.880,50.94,23.67,-31.49,0.39,0.76,0.48,-1.55,1.35,-0.16,28.91,11.83,33.71,0.2,0.48,0.85,-1.25,0.05,-1.1
1900-01-01 12:20:13.940,50.51,24.88,-31.53,0.41,0.76,0.47,-1.56,0.47,1.14,28.79,11.7,33.7,0.21,0.5,0.88,-0.12,-1.77,-0.32
1900-01-01 12:20:14.038,51.9,23.24,-31.36,0.38,0.77,0.46,-1.5,0.96,0.21,29.4,11.89,33.81,0.2,0.48,0.82,0.33,-0.45,-0.7
1900-01-01 12:20:14.071,49.47,25.26,-31.34,0.41,0.73,0.47,-1.23,1.5,1.09,28.23,11.88,33.86,0.21,0.48,0.88,-0.88,-0.6,0.46
1900-01-01 12:20:14.163,49.03,25.32,-31.18,0.4,0.71,0.47,0.62,-0.24,1.18,27.88,14.9,34.09,0.25,0.45,0.81,1.47,-0.89,-1.14
1900-01-01 12:20:14.284,52.63,23.32,-31.01,0.39,0.78,0.45,0.67,1.42,-1.28,30.38,11.55,34.07,0.19,0.49,0.81,-0.34,1.24,-2.16
1900-01-01 12:20:14.312,52.94,22.79,-31.21,0.4,0.83,0.48,-1.17,2.11,-0.04,29.94,7.95,33.9,0.15,0.55,0.94,-2.08,1.95,-1.34
1900-01-01 12:20:14.394,51.14,24.54,-31.23,0.42,0.79,0.48,-3.53,1.06,1.72,29.27,10.71,33.85,0.2,0.52,0.91,-0.85,-4.4,0.94
1900-01-01 12:20:14.460,49.91,25.19,-30.97,0.41,0.75,0.47,-3.31,-0.61,3.28,29.08,12.83,34.15,0.22,0.49,0.85,0.27,-4.56,0.89
1900-01-01 12:20:14.552,49.62,25.82,-30.48,0.41,0.72,0.45,-2.65,-0.94,2.91,28.64,13.77,34.45,0.23,0.46,0.82,1.08,-3.51,0.69
1900-01-01 12:20:14.627,49.05,26.78,-30.04,0.42,0.7,0.44,-2.14,0.84,0.62,29.87,15.21,34.71,0.24,0.46,0.76,-0.21,-1.71,-0.27
1900-01-01 12:20:14.697,49.58,26.66,-29.96,0.42,0.72,0.44,0.14,2.86,-1.85,29.78,14.57,34.83,0.24,0.47,0.79,-1.39,2.67,-1.63
1900-01-01 12:20:14.797,48.59,26.63,-30.25,0.43,0.72,0.47,0.86,4.96,-2.27,29.83,14.73,34.74,0.25,0.48,0.81,0.08,4.93,-0.56
1900-01-01 12:20:14.862,48.67,25.02,-30.6,0.4,0.71,0.48,0.89,4.81,-4.82,26.33,15.01,34.81,0.25,0.43,0.83,1.98,-0.4,0.55
1900-01-01 12:20:14.907,51.05,23.69,-31.35,0.38,0.73,0.45,4.26,2.63,-6.47,28.32,12.63,35.06,0.21,0.46,0.83,1.35,5.03,-5.69
1900-01-01 12:20:15.002,56.12,19.99,-32.34,0.36,0.87,0.46,2.59,2.66,-7.07,31.62,10.18,34.35,0.18,0.54,0.85,-1.27,6.21,-5.89
1900-01-01 12:20:15.123,57.49,16.92,-33.43,0.32,0.92,0.49,0.47,1.16,-1.53,29.65,3.09,33.6,0.06,0.59,1.03,-1.19,5.78,-4.23
1900-01-01 12:20:15.146,53.11,21.12,-33.67,0.39,0.87,0.52,-3.18,-1.38,3.51,29.12,9.32,33.12,0.18,0.55,0.97,0.76,-3.96,0.66
1900-01-01 12:20:15.252,52.28,22.84,-33.15,0.4,0.81,0.48,-6.95,-1.91,7.15,29.93,8.79,33.38,0.17,0.55,0.93,-1.48,-8.63,2.98
1900-01-01 12:20:15.330,48.27,28.87,-32.06,0.44,0.68,0.42,-10.11,0.66,6.05,32.23,15.9,33.99,0.25,0.49,0.74,-5.24,-10.72,5.08
1900-01-01 12:20:15.376,48.48,28.32,-31.14,0.42,0.66,0.41,-0.67,-0.37,2.47,29.53,19.82,34.93,0.3,0.43,0.7,0.92,-0.66,0.61
1900-01-01 12:20:15.470,52.96,18.01,-30.77,0.28,0.72,0.47,1.33,2.3,1.97,28.43,6.74,35.18,0.1,0.43,0.78,4.76,-1.15,1.41
1900-01-01 12:20:15.517,46.1,28.43,-30.48,0.49,0.74,0.52,-0.43,5.25,-4.53,26.24,19.82,35.55,0.34,0.45,0.84,-4.7,7.01,-1.88
1900-01-01 12:20:15.601,51.43,24.79,-31.18,0.43,0.8,0.47,-0.01,-0.79,-1.71,29.35,10.15,35.42,0.2,0.56,0.97,-0.23,1.83,-4.36
1900-01-01 12:20:15.702,51.88,25.72,-31.45,0.41,0.74,0.41,-1.05,0.4,-0.17,33.51,12.47,34.91,0.21,0.53,0.77,0.05,-1.57,-1.92
1900-01-01 12:20:15.764,51.89,23.51,-31.49,0.37,0.74,0.44,-0.47,3.21,-2.33,29.92,12.0,34.78,0.2,0.47,0.79,-1.11,3.06,-1.38
1900-01-01 12:20:15.846,51.47,22.41,-31.85,0.38,0.78,0.49,-0.27,3.67,-3.79,28.48,11.0,34.72,0.19,0.48,0.86,-2.56,4.34,-3.02
1900-01-01 12:20:15.928,51.17,22.17,-32.44,0.38,0.78,0.5,-0.1,2.29,-2.28,27.66,10.26,34.42,0.19,0.49,0.92,-1.76,3.01,-2.49
1900-01-01 12:20:16.009,52.25,21.79,-32.8,0.37,0.78,0.48,0.65,0.18,0.35,28.03,9.95,34.2,0.18,0.48,0.89,1.57,-0.52,-1.34
1900-01-01 12:20:16.103,53.42,20.99,-32.76,0.35,0.8,0.47,1.27,-0.45,1.03,28.82,8.99,34.15,0.16,0.49,0.88,1.83,-0.24,-1.47
1900-01-01 12:20:16.127,51.92,23.02,-32.61,0.4,0.8,0.48,0.01,-0.18,1.62,29.69,10.44,34.09,0.19,0.51,0.88,1.59,-1.79,-0.53
1900-01-01 12:20:16.246,51.72,24.04,-32.37,0.41,0.79,0.47,-3.1,0.02,1.66,29.78,11.31,34.16,0.2,0.52,0.88,-1.65,-2.97,-0.37
1900-01-01 12:20:16.305,51.93,24.27,-32.12,0.4,0.76,0.45,-3.53,-1.57,2.07,30.32,10.99,34.27,0.19,0.51,0.85,-0.26,-4.6,-0.44
1900-01-01 12:20:16.416,52.02,25.27,-31.81,0.41,0.75,0.42,-1.95,-1.91,1.04,31.2,12.57,34.36,0.21,0.5,0.8,0.13,-3.57,-1.73
1900-01-01 12:20:16.446,52.27,25.54,-31.66,0.41,0.76,0.42,-1.08,-0.45,0.82,32.51,11.95,34.25,0.2,0.52,0.79,1.16,-2.09,-1.08
1900-01-01 12:20:16.540,51.54,24.9,-31.55,0.42,0.78,0.45,-2.13,3.36,0.22,32.36,11.46,34.24,0.2,0.53,0.82,-1.51,1.28,0.37
1900-01-01 12:20:16.597,50.96,24.83,-31.52,0.41,0.77,0.46,-2.24,2.99,0.95,29.1,12.5,34.46,0.22,0.5,0.87,-2.0,0.38,1.28
1900-01-01 12:20:16.686,51.78,23.77,-31.39,0.38,0.74,0.44,-1.81,1.66,1.24,29.33,11.57,34.81,0.2,0.48,0.83,-0.16,-0.99,0.81
1900-01-01 12:20:16.756,51.1,23.93,-31.2,0.39,0.75,0.46,-1.25,2.11,-1.22,29.31,12.22,35.09,0.2,0.47,0.82,-1.69,0.56,-1.41
1900-01-01 12:20:16.847,50.99,24.6,-31.4,0.42,0.78,0.48,-1.5,1.2,-0.92,29.36,11.73,35.04,0.21,0.51,0.89,-1.42,0.63,-1.76
1900-01-01 12:20:16.924,51.27,24.88,-31.55,0.42,0.77,0.46,-2.06,0.82,1.1,30.93,11.85,34.93,0.21,0.52,0.84,0.43,-2.15,0.08
1900-01-01 12:20:17.002,51.09,24.18,-31.39,0.41,0.77,0.47,-1.59,1.78,0.67,30.3,11.7,35.1,0.2,0.51,0.85,-0.34,0.21,-0.1
1900-01-01 12:20:17.096,50.96,24.64,-31.3,0.43,0.8,0.48,-2.42,2.44,1.4,30.13,12.12,35.24,0.22,0.52,0.88,-1.39,0.4,0.76
1900-01-01 12:20:17.127,50.52,24.44,-31.09,0.41,0.77,0.48,-3.27,0.15,4.73,29.59,11.2,35.51,0.21,0.52,0.9,0.21,-4.79,2.76
1900-01-01 12:20:17.239,48.56,26.07,-30.38,0.41,0.7,0.46,-3.12,-0.38,3.11,28.53,15.65,36.09,0.25,0.45,0.78,-0.43,-5.22,1.08
1900-01-01 12:20:17.286,48.94,27.47,-29.91,0.43,0.71,0.44,-1.29,1.0,-0.13,29.92,16.0,36.42,0.26,0.47,0.77,-1.05,-0.44,-1.21
1900-01-01 12:20:17.380,51.79,24.81,-29.94,0.41,0.76,0.44,-0.11,1.21,-0.47,32.1,11.34,36.39,0.19,0.53,0.82,0.5,0.78,-1.91
1900-01-01 12:20:17.426,48.81,26.08,-30.02,0.44,0.75,0.49,-1.1,3.79,-0.32,29.15,13.9,36.26,0.24,0.49,0.85,-0.84,1.93,0.38
1900-01-01 12:20:17.521,49.44,25.32,-30.08,0.43,0.76,0.49,-3.18,1.98,0.7,28.85,12.36,36.47,0.23,0.51,0.9,-1.31,-0.44,-0.06
1900-01-01 12:20:17.613,50.49,24.11,-29.98,0.39,0.74,0.47,-2.68,1.2,0.86,28.78,12.86,36.62,0.22,0.48,0.84,-0.43,-1.56,-0.08
1900-01-01 12:20:17.662,49.1,25.19,-29.86,0.41,0.72,0.48,-1.28,2.44,-0.8,29.08,13.62,36.77,0.23,0.47,0.81,-2.24,0.5,-1.02
1900-01-01 12:20:17.754,48.7,26.21,-29.99,0.43,0.74,0.48,-1.24,0.76,-1.27,28.33,14.15,36.77,0.25,0.49,0.87,-1.95,0.35,-2.57
1900-01-01 12:20:17.817,50.03,25.35,-30.19,0.42,0.75,0.47,-0.63,0.22,-0.95,30.34,12.17,36.53,0.21,0.51,0.84,0.29,-0.28,-2.63
1900-01-01 12:20:17.913,48.94,26.64,-30.34,0.44,0.74,0.47,-1.17,2.17,-1.69,30.3,14.23,36.29,0.24,0.5,0.82,-1.61,1.53,-1.95
1900-01-01 12:20:17.990,50.82,25.18,-30.61,0.42,0.76,0.46,-0.45,1.21,0.02,30.1,11.57,36.15,0.21,0.52,0.87,-0.17,0.22,-0.99
1900-01-01 12:20:18.062,49.78,24.48,-30.62,0.4,0.74,0.48,-0.76,1.44,0.38,29.07,11.96,36.16,0.21,0.49,0.86,-0.21,0.47,-0.3
1900-01-01 12:20:18.165,48.55,26.4,-30.57,0.42,0.72,0.47,-0.25,-0.02,0.83,28.62,13.38,36.27,0.23,0.48,0.85,-0.51,-1.22,-1.24
1900-01-01 12:20:18.227,51.84,24.98,-30.45,0.41,0.77,0.44,0.45,0.53,0.02,32.19,11.26,36.24,0.19,0.53,0.82,-0.09,0.15,-2.05
1900-01-01 12:20:18.265,50.48,24.44,-30.45,0.41,0.77,0.48,-0.44,2.53,0.11,29.8,11.69,36.08,0.21,0.5,0.86,-0.24,0.87,-0.05
1900-01-01 12:20:18.359,48.89,25.97,-30.45,0.44,0.75,0.49,-1.6,1.33,0.38,28.23,13.53,36.23,0.24,0.49,0.89,-1.25,-0.18,-0.52
1900-01-01 12:20:18.452,50.32,25.36,-30.4,0.41,0.74,0.46,-1.44,-0.94,0.98,29.36,12.88,36.31,0.22,0.49,0.84,1.07,-3.24,-1.07
1900-01-01 12:20:18.510,49.38,26.47,-30.25,0.43,0.73,0.46,-1.05,1.08,-0.96,30.5,14.32,36.31,0.24,0.48,0.79,-0.59,-0.77,-1.54
1900-01-01 12:20:18.632,50.07,26.19,-30.41,0.43,0.75,0.45,-0.79,1.15,-1.41,30.07,12.9,36.23,0.23,0.51,0.84,-1.1,0.68,-2.36
1900-01-01 12:20:18.667,50.95,25.33,-30.63,0.42,0.76,0.46,-0.73,1.61,-0.48,31.44,12.19,36.03,0.21,0.52,0.82,0.31,0.17,-1.04
1900-01-01 12:20:18.733,49.61,25.55,-30.72,0.43,0.76,0.48,-1.24,3.0,-0.86,29.51,13.02,36.03,0.23,0.51,0.86,-2.14,1.65,-0.7
1900-01-01 12:20:18.826,50.6,24.98,-30.86,0.42,0.77,0.47,-1.43,0.51,0.97,29.3,11.67,36.08,0.21,0.51,0.89,-0.4,-1.4,-0.57
1900-01-01 12:20:18.955,50.88,24.65,-30.72,0.4,0.75,0.46,-1.8,1.11,0.68,30.8,12.14,36.15,0.2,0.5,0.81,-0.09,-1.58,-0.21
1900-01-01 12:20:18.955,49.38,25.87,-30.62,0.43,0.75,0.48,-2.01,2.02,-0.22,28.99,13.62,36.28,0.24,0.49,0.85,-2.46,0.41,-0.6
1900-01-01 12:20:19.051,50.56,25.37,-30.66,0.42,0.76,0.46,-1.74,0.37,1.58,30.26,11.62,36.34,0.21,0.52,0.87,-0.05,-2.1,-0.18
