Time,Roll2,Pitch2,Yaw2,AccX2,AccY2,AccZ2,RotX2,RotY2,RotZ2,Roll1,Pitch1,Yaw1,AccX1,AccY1,AccZ1,RotX1,RotY1,RotZ1
1900-01-01 15:13:10.799,30.25,22.82,0.38,0.39,0.51,0.78,-0.53,-0.23,-1.11,33.62,12.23,-0.11,0.2,0.53,0.78,-1.29,1.34,-0.05
1900-01-01 15:13:10.799,30.12,22.84,0.37,0.39,0.51,0.78,-0.51,-0.31,-0.95,33.38,12.34,-0.12,0.21,0.53,0.78,-1.15,1.27,-0.02
1900-01-01 15:13:10.898,30.18,22.87,0.38,0.39,0.51,0.78,-0.44,-0.37,-1.15,33.26,12.34,-0.13,0.21,0.53,0.78,-1.21,1.35,-0.16
1900-01-01 15:13:10.944,30.23,22.79,0.36,0.39,0.51,0.78,-0.57,-0.16,-1.05,33.4,12.39,-0.16,0.21,0.53,0.78,-1.38,1.22,0.13
1900-01-01 15:13:10.992,30.38,22.79,0.36,0.39,0.51,0.77,-0.44,-0.21,-1.11,33.56,12.21,-0.15,0.2,0.53,0.78,-1.29,1.31,-0.03
1900-01-01 15:13:11.086,30.14,22.88,0.35,0.39,0.51,0.78,-0.56,-0.32,-0.94,33.35,12.39,-0.17,0.21,0.53,0.78,-1.18,1.33,-0.02
1900-01-01 15:13:11.214,30.19,22.73,0.37,0.39,0.51,0.78,-0.37,-0.38,-1.05,33.47,12.33,-0.18,0.21,0.53,0.78,-1.18,1.33,0.05
1900-01-01 15:13:11.231,30.24,22.79,0.36,0.39,0.51,0.78,-0.37,-0.39,-1.03,33.4,12.31,-0.18,0.21,0.53,0.78,-1.24,1.16,0.01
1900-01-01 15:13:11.320,30.25,22.68,0.36,0.39,0.51,0.78,-0.51,-0.16,-0.98,33.37,12.26,-0.19,0.2,0.53,0.78,-1.3,1.36,-0.03
1900-01-01 15:13:11.376,30.28,22.84,0.37,0.39,0.51,0.78,-0.8,0.15,-0.79,33.24,12.36,-0.2,0.21,0.53,0.78,-1.36,1.52,0.06
1900-01-01 15:13:11.493,30.4,22.77,0.41,0.39,0.51,0.78,-0.47,-0.1,-0.83,33.32,12.26,-0.2,0.2,0.53,0.78,-1.36,1.25,0.08
1900-01-01 15:13:11.577,30.35,22.67,0.44,0.39,0.51,0.78,-0.45,-0.14,-1.07,33.14,12.3,-0.19,0.21,0.53,0.78,-1.33,1.5,-0.05
1900-01-01 15:13:11.688,30.16,22.67,0.44,0.39,0.51,0.78,-0.71,0.05,-1.05,33.04,12.48,-0.21,0.21,0.52,0.78,-1.24,1.54,-0.01
1900-01-01 15:13:11.753,30.16,22.48,0.44,0.38,0.51,0.78,-0.6,-0.08,-0.95,32.97,12.29,-0.22,0.2,0.52,0.78,-1.32,1.29,0.04
1900-01-01 15:13:11.777,30.23,22.75,0.45,0.39,0.51,0.78,-0.5,-0.01,-1.08,33.07,12.36,-0.22,0.21,0.53,0.78,-1.31,1.54,-0.17
1900-01-01 15:13:11.924,30.52,22.49,0.44,0.39,0.51,0.78,-0.63,0.01,-1.03,33.57,12.21,-0.26,0.2,0.53,0.78,-1.37,1.5,0.01
1900-01-01 15:13:11.924,30.21,22.52,0.45,0.38,0.51,0.78,-0.44,-0.18,-1.26,33.6,11.97,-0.27,0.2,0.53,0.78,-1.3,1.34,-0.08
1900-01-01 15:13:12.045,30.03,22.54,0.41,0.39,0.5,0.78,-0.47,-0.27,-1.13,33.13,12.17,-0.29,0.2,0.53,0.78,-1.02,1.35,-0.15
1900-01-01 15:13:12.075,30.2,22.28,0.4,0.38,0.51,0.78,-0.73,-0.14,-1.07,33.0,12.1,-0.32,0.2,0.52,0.78,-1.33,1.33,-0.03
1900-01-01 15:13:12.206,30.16,22.44,0.39,0.38,0.51,0.78,-0.83,-0.05,-0.95,32.79,12.3,-0.33,0.21,0.52,0.78,-1.5,1.18,0.15
1900-01-01 15:13:12.232,30.5,22.41,0.41,0.38,0.51,0.78,-0.54,-0.22,-0.96,33.29,12.19,-0.32,0.2,0.53,0.78,-1.37,1.25,0.08
1900-01-01 15:13:12.351,30.59,22.22,0.42,0.38,0.51,0.78,-0.32,-0.18,-1.01,33.55,11.78,-0.31,0.2,0.53,0.78,-1.45,1.18,0.14
1900-01-01 15:13:12.411,30.49,22.5,0.42,0.39,0.51,0.78,-0.37,-0.29,-0.98,33.66,12.04,-0.3,0.2,0.54,0.78,-1.31,1.24,0.16
1900-01-01 15:13:12.447,30.48,22.29,0.43,0.38,0.51,0.78,-0.4,-0.36,-0.95,33.27,12.12,-0.29,0.2,0.53,0.78,-1.36,1.17,0.17
1900-01-01 15:13:12.541,30.61,22.4,0.45,0.38,0.51,0.78,-0.41,-0.4,-0.85,33.79,12.07,-0.27,0.2,0.54,0.78,-1.37,1.09,0.28
1900-01-01 15:13:12.589,30.27,22.44,0.47,0.38,0.51,0.78,-0.34,-0.64,-0.93,33.33,12.18,-0.23,0.2,0.53,0.78,-1.17,1.08,0.11
1900-01-01 15:13:12.680,30.28,22.52,0.49,0.39,0.51,0.78,-0.2,-0.69,-1.15,33.78,11.94,-0.22,0.2,0.54,0.78,-1.02,1.34,-0.12
1900-01-01 15:13:12.775,30.35,22.54,0.47,0.38,0.51,0.77,-0.44,-0.51,-0.79,33.32,12.07,-0.25,0.2,0.53,0.78,-1.25,1.15,0.11
1900-01-01 15:13:12.821,30.15,22.97,0.51,0.39,0.51,0.78,-0.41,-0.75,-0.91,33.39,12.57,-0.24,0.21,0.53,0.78,-1.08,1.21,0.07
1900-01-01 15:13:12.928,30.41,22.35,0.53,0.38,0.51,0.78,-0.4,-0.54,-1.03,33.34,12.03,-0.24,0.2,0.53,0.78,-1.05,1.24,-0.07
1900-01-01 15:13:13.010,30.31,23.05,0.53,0.4,0.51,0.78,-0.56,-0.47,-0.93,33.69,12.42,-0.26,0.21,0.54,0.78,-1.01,1.28,0.11
1900-01-01 15:13:13.057,30.27,22.49,0.55,0.38,0.51,0.78,-0.45,-0.58,-1.02,32.95,12.11,-0.25,0.2,0.52,0.78,-1.27,1.13,0.01
1900-01-01 15:13:13.152,30.16,23.08,0.55,0.4,0.51,0.78,-0.46,-0.53,-1.09,33.57,12.69,-0.26,0.21,0.54,0.78,-1.16,1.2,0.11
1900-01-01 15:13:13.200,30.46,22.79,0.54,0.39,0.51,0.77,-0.79,-0.15,-0.93,33.5,12.35,-0.25,0.21,0.53,0.77,-1.42,1.39,0.03
1900-01-01 15:13:13.293,30.64,22.75,0.56,0.39,0.52,0.78,-0.42,-0.47,-1.12,33.8,12.34,-0.26,0.21,0.54,0.78,-1.08,1.34,0.01
1900-01-01 15:13:13.388,30.28,22.83,0.55,0.39,0.51,0.78,-0.5,-0.33,-1.11,33.32,12.45,-0.26,0.21,0.53,0.78,-1.18,1.26,0.01
1900-01-01 15:13:13.434,30.2,22.67,0.54,0.39,0.51,0.78,-0.64,-0.33,-0.98,33.0,12.39,-0.27,0.21,0.52,0.78,-1.22,1.21,0.08
1900-01-01 15:13:13.527,30.6,22.86,0.55,0.39,0.51,0.78,-0.7,-0.29,-0.95,33.43,12.29,-0.27,0.21,0.53,0.78,-1.39,1.26,0.0
1900-01-01 15:13:13.623,30.68,22.79,0.56,0.39,0.51,0.77,-0.56,-0.18,-1.04,33.89,12.15,-0.27,0.2,0.54,0.77,-1.37,1.32,0.08
1900-01-01 15:13:13.670,30.38,22.81,0.56,0.39,0.51,0.77,-0.58,-0.22,-0.9,33.09,12.57,-0.27,0.21,0.52,0.78,-1.61,1.17,0.24
1900-01-01 15:13:13.764,30.37,22.91,0.58,0.39,0.51,0.78,-0.53,-0.24,-1.02,33.3,12.42,-0.24,0.21,0.53,0.78,-1.45,1.27,0.04
1900-01-01 15:13:13.812,30.91,22.74,0.58,0.39,0.52,0.77,-0.5,-0.22,-0.88,33.92,12.05,-0.25,0.2,0.54,0.77,-1.42,1.33,0.02
1900-01-01 15:13:13.907,30.63,23.0,0.61,0.39,0.51,0.77,-0.23,-0.56,-1.02,33.88,12.17,-0.25,0.2,0.54,0.77,-1.08,1.29,-0.03
1900-01-01 15:13:13.972,30.01,22.82,0.61,0.39,0.5,0.78,-0.32,-0.5,-1.18,33.53,12.45,-0.26,0.21,0.53,0.78,-0.89,1.31,-0.14
1900-01-01 15:13:14.050,30.28,22.9,0.59,0.39,0.51,0.78,-0.61,-0.13,-0.97,33.78,12.24,-0.29,0.2,0.54,0.77,-1.16,1.4,-0.02
1900-01-01 15:13:14.145,30.06,22.94,0.6,0.39,0.51,0.78,-0.79,-0.18,-0.97,32.64,12.72,-0.31,0.21,0.52,0.78,-1.39,1.28,0.13
1900-01-01 15:13:14.188,30.29,22.79,0.61,0.39,0.51,0.78,-0.69,-0.31,-1.0,32.93,12.66,-0.3,0.21,0.52,0.78,-1.47,1.21,0.08
1900-01-01 15:13:14.286,30.54,22.77,0.62,0.39,0.51,0.78,-0.63,-0.16,-0.95,33.41,12.41,-0.29,0.21,0.53,0.78,-1.47,1.22,0.15
1900-01-01 15:13:14.377,30.65,22.93,0.63,0.39,0.51,0.77,-0.6,-0.21,-0.98,33.74,12.21,-0.28,0.2,0.54,0.78,-1.49,1.27,0.15
1900-01-01 15:13:14.430,30.46,22.79,0.64,0.39,0.51,0.78,-0.29,-0.43,-1.23,33.92,12.12,-0.26,0.2,0.54,0.78,-1.15,1.32,-0.09
1900-01-01 15:13:14.516,30.28,22.66,0.61,0.39,0.51,0.78,-0.53,0.01,-0.98,33.57,12.31,-0.28,0.21,0.53,0.78,-1.21,1.6,-0.08
1900-01-01 15:13:14.611,30.15,22.62,0.62,0.39,0.51,0.78,-0.47,-0.21,-1.08,33.14,12.36,-0.31,0.21,0.53,0.78,-1.3,1.31,0.0
1900-01-01 15:13:14.657,30.32,22.79,0.62,0.39,0.51,0.78,-0.62,-0.04,-0.88,33.51,12.32,-0.31,0.21,0.53,0.78,-1.31,1.38,0.05
1900-01-01 15:13:14.750,30.42,22.62,0.64,0.39,0.51,0.78,-0.42,-0.16,-0.95,33.53,12.11,-0.31,0.2,0.53,0.78,-1.22,1.45,-0.05
1900-01-01 15:13:14.819,30.4,22.82,0.65,0.39,0.51,0.78,-0.4,-0.3,-0.99,33.55,12.23,-0.33,0.2,0.53,0.78,-1.21,1.36,-0.04
1900-01-01 15:13:14.910,30.16,22.72,0.66,0.39,0.51,0.78,-0.51,-0.18,-0.97,33.36,12.41,-0.35,0.21,0.53,0.78,-1.36,1.37,0.07
1900-01-01 15:13:14.957,30.17,22.8,0.67,0.39,0.51,0.78,-0.54,-0.09,-0.97,33.18,12.49,-0.34,0.21,0.53,0.78,-1.56,1.38,0.11
1900-01-01 15:13:15.050,30.35,22.73,0.68,0.39,0.51,0.78,-0.5,-0.4,-1.32,33.19,12.39,-0.34,0.21,0.53,0.78,-1.31,1.38,-0.11
1900-01-01 15:13:15.144,32.54,21.87,0.64,0.37,0.54,0.75,-0.85,0.65,-0.5,35.04,10.5,-0.36,0.18,0.55,0.77,-2.42,1.21,0.56
1900-01-01 15:13:15.193,30.59,23.31,0.72,0.4,0.51,0.77,-0.3,0.02,-1.09,33.68,12.05,-0.28,0.2,0.54,0.78,-2.08,1.32,0.1
1900-01-01 15:13:15.289,30.5,22.88,0.71,0.39,0.51,0.78,-0.14,-0.5,-1.19,34.01,11.97,-0.28,0.2,0.54,0.78,-1.24,1.34,-0.2
1900-01-01 15:13:15.336,30.38,22.56,0.69,0.39,0.51,0.78,-0.49,0.21,-1.11,34.22,11.79,-0.32,0.2,0.54,0.77,-0.98,1.56,-0.1
1900-01-01 15:13:15.429,30.1,22.99,0.68,0.39,0.51,0.78,-0.71,-0.03,-1.02,33.25,12.35,-0.34,0.21,0.53,0.78,-1.54,1.5,0.03
1900-01-01 15:13:15.523,30.26,22.31,0.68,0.38,0.51,0.78,-0.48,-0.39,-1.21,32.89,12.09,-0.34,0.2,0.52,0.78,-1.59,1.01,0.01
1900-01-01 15:13:15.572,30.71,22.68,0.66,0.39,0.52,0.78,-0.71,-0.26,-0.85,34.02,12.08,-0.35,0.2,0.54,0.77,-1.3,1.08,0.25
1900-01-01 15:13:15.666,30.41,22.32,0.68,0.38,0.51,0.78,-0.28,-0.87,-1.07,33.55,11.97,-0.32,0.2,0.53,0.78,-1.15,1.2,-0.01
1900-01-01 15:13:15.718,30.27,22.62,0.68,0.39,0.51,0.78,-0.1,-1.1,-1.19,33.78,12.22,-0.33,0.2,0.54,0.78,-0.97,0.96,0.02
1900-01-01 15:13:15.806,30.24,22.66,0.66,0.39,0.51,0.78,-0.56,-0.41,-0.97,33.5,12.24,-0.34,0.2,0.53,0.78,-1.23,1.27,0.11
1900-01-01 15:13:15.907,30.28,22.59,0.67,0.39,0.51,0.78,-0.55,-0.49,-0.85,33.18,12.33,-0.33,0.21,0.53,0.78,-1.17,1.24,0.08
1900-01-01 15:13:15.949,30.47,22.78,0.7,0.39,0.51,0.78,-0.31,-0.69,-1.01,33.62,12.17,-0.32,0.2,0.53,0.78,-1.2,1.07,0.11
1900-01-01 15:13:16.044,30.49,22.78,0.7,0.39,0.51,0.78,-0.48,-0.2,-0.92,33.48,12.37,-0.32,0.21,0.53,0.78,-1.42,1.31,0.13
1900-01-01 15:13:16.137,30.3,22.64,0.72,0.39,0.51,0.78,-0.33,-0.21,-0.96,33.26,12.35,-0.3,0.21,0.53,0.78,-1.27,1.35,0.04
1900-01-01 15:13:16.184,30.65,22.68,0.73,0.39,0.52,0.78,-0.18,0.15,-1.34,33.59,12.19,-0.31,0.2,0.53,0.78,-1.36,1.87,-0.38
1900-01-01 15:13:16.278,30.42,22.55,0.68,0.38,0.5,0.77,-0.55,0.03,-0.32,33.26,11.93,-0.37,0.2,0.53,0.78,-1.53,1.49,0.31
1900-01-01 15:13:16.327,30.59,22.71,0.79,0.39,0.51,0.77,-1.36,-1.06,0.59,33.66,11.91,-0.34,0.2,0.53,0.78,-1.92,1.24,0.32
1900-01-01 15:13:16.421,30.26,23.19,1.04,0.4,0.51,0.77,-3.55,-1.27,1.95,33.64,12.3,-0.3,0.21,0.54,0.78,-3.51,0.92,1.29
1900-01-01 15:13:16.514,27.96,23.27,1.5,0.4,0.47,0.8,-6.37,0.27,4.7,31.97,12.55,-0.11,0.21,0.51,0.79,-4.07,2.76,0.73
1900-01-01 15:13:16.561,27.8,24.13,2.37,0.41,0.46,0.78,-5.47,-1.34,7.66,32.66,12.12,-0.01,0.2,0.52,0.79,-3.56,1.49,1.63
1900-01-01 15:13:16.655,26.2,25.01,3.69,0.42,0.44,0.78,-5.71,-5.5,11.11,32.5,11.76,0.23,0.2,0.52,0.79,-6.78,4.15,1.66
1900-01-01 15:13:16.749,25.57,27.16,5.54,0.45,0.43,0.77,-6.85,-9.52,9.97,31.0,12.0,0.48,0.2,0.49,0.79,-13.46,5.47,2.49
1900-01-01 15:13:16.796,23.54,28.98,7.22,0.49,0.4,0.78,-1.18,-13.04,7.11,27.77,11.55,0.85,0.19,0.45,0.83,-3.02,0.82,1.06
1900-01-01 15:13:16.889,23.3,31.19,8.46,0.54,0.42,0.8,-0.62,-15.6,3.41,28.17,12.22,1.0,0.2,0.45,0.82,-7.68,6.13,1.24
1900-01-01 15:13:16.936,23.15,32.81,9.14,0.56,0.41,0.77,-3.51,-9.66,0.4,28.03,10.75,1.18,0.18,0.45,0.83,-4.79,3.59,-0.53
1900-01-01 15:13:17.030,22.32,33.73,9.36,0.57,0.39,0.76,0.08,-7.56,0.05,26.16,10.91,1.09,0.18,0.42,0.84,-2.72,2.15,0.05
1900-01-01 15:13:17.124,22.35,35.43,9.52,0.59,0.39,0.73,3.47,-4.73,-0.31,28.12,10.31,1.09,0.17,0.45,0.83,-1.15,0.96,0.25
1900-01-01 15:13:17.171,21.97,35.32,9.63,0.59,0.38,0.74,4.5,-2.64,3.42,26.84,11.24,1.12,0.19,0.43,0.84,0.02,0.93,0.84
1900-01-01 15:13:17.287,22.71,36.64,10.31,0.61,0.4,0.72,2.97,-2.53,5.28,26.96,11.1,1.24,0.18,0.43,0.83,-0.33,4.15,1.7
1900-01-01 15:13:17.331,23.1,37.21,11.27,0.62,0.4,0.71,3.5,1.24,1.63,27.48,10.94,1.49,0.18,0.44,0.83,0.82,3.06,-0.13
1900-01-01 15:13:17.428,23.91,36.36,11.67,0.6,0.41,0.71,4.36,3.16,0.06,28.11,9.83,1.46,0.16,0.45,0.83,2.14,1.42,-0.21
1900-01-01 15:13:17.478,23.7,36.58,11.84,0.61,0.41,0.72,0.94,5.73,-0.01,28.8,10.53,1.42,0.18,0.46,0.82,0.78,3.82,-0.99
1900-01-01 15:13:17.565,24.34,35.5,12.0,0.58,0.41,0.7,0.51,3.99,0.4,29.02,9.77,1.26,0.16,0.47,0.82,-0.73,1.28,0.33
1900-01-01 15:13:17.616,24.53,35.5,12.22,0.59,0.42,0.71,0.49,-0.52,-0.73,29.29,9.9,1.3,0.17,0.47,0.82,-0.11,0.65,-0.11
1900-01-01 15:13:17.709,24.27,35.51,12.27,0.59,0.42,0.71,0.32,-1.84,-1.53,29.31,9.53,1.28,0.16,0.47,0.82,-0.34,-0.43,-0.08
1900-01-01 15:13:17.803,23.86,35.69,12.19,0.61,0.42,0.74,-0.7,4.06,-2.85,29.74,10.66,1.26,0.18,0.48,0.82,-2.44,-0.4,0.06
1900-01-01 15:13:17.849,27.05,32.74,11.92,0.56,0.47,0.73,-3.61,17.08,-5.93,30.53,11.2,1.26,0.19,0.5,0.82,-4.45,-12.9,5.6
1900-01-01 15:13:17.943,24.53,31.16,11.17,0.57,0.46,0.83,-25.79,30.09,-22.02,23.25,13.49,2.11,0.22,0.38,0.85,-16.89,6.92,-4.82
1900-01-01 15:13:18.038,18.5,22.13,7.94,0.33,0.27,0.75,-3.82,12.31,-23.75,21.68,9.83,1.35,0.16,0.35,0.86,0.56,-0.67,1.43
1900-01-01 15:13:18.086,22.08,26.12,4.48,0.41,0.35,0.76,7.4,-9.87,-8.53,28.27,11.26,1.56,0.19,0.46,0.84,3.91,-0.16,-1.76
1900-01-01 15:13:18.185,23.6,26.2,3.34,0.43,0.39,0.78,4.33,-25.05,8.08,26.61,10.6,1.29,0.17,0.42,0.83,2.47,-0.9,-0.02
1900-01-01 15:13:18.228,24.68,29.36,4.73,0.52,0.44,0.8,4.65,-18.12,4.5,27.11,11.55,1.27,0.19,0.44,0.84,1.71,2.03,1.23
1900-01-01 15:13:18.338,24.01,32.47,5.57,0.59,0.45,0.81,3.36,-1.69,1.21,29.18,12.12,1.45,0.2,0.47,0.82,1.08,3.87,-1.95
1900-01-01 15:13:18.392,24.36,30.69,5.91,0.52,0.42,0.77,0.11,10.28,1.05,27.8,10.55,1.15,0.18,0.45,0.83,0.96,4.72,-0.39
1900-01-01 15:13:18.483,25.7,30.61,6.23,0.51,0.44,0.75,-2.66,9.88,-0.61,28.2,11.13,1.08,0.19,0.46,0.83,-1.05,3.47,0.39
1900-01-01 15:13:18.528,26.87,27.91,6.3,0.47,0.46,0.77,0.04,3.71,-6.04,28.78,10.61,1.13,0.18,0.46,0.82,0.44,1.09,-0.52
1900-01-01 15:13:18.623,27.08,27.32,5.54,0.47,0.47,0.78,2.72,-1.6,-12.12,29.11,11.39,1.04,0.19,0.47,0.82,1.55,-0.5,-1.13
1900-01-01 15:13:18.717,26.55,26.68,3.85,0.46,0.45,0.78,2.23,-0.62,-13.31,29.72,9.86,0.86,0.16,0.48,0.82,2.3,0.52,-2.13
1900-01-01 15:13:18.766,27.02,26.47,1.99,0.46,0.47,0.79,-3.23,4.41,-10.95,29.7,10.53,0.53,0.18,0.48,0.82,0.65,2.43,-1.21
1900-01-01 15:13:18.857,27.47,25.14,0.48,0.43,0.47,0.79,-4.14,7.51,-8.55,29.59,10.66,0.34,0.18,0.47,0.82,0.29,3.06,-1.24
1900-01-01 15:13:18.904,28.18,22.82,-0.66,0.39,0.47,0.79,-1.66,7.67,-7.95,30.58,10.01,0.14,0.17,0.49,0.81,0.46,2.46,-1.22
1900-01-01 15:13:18.997,28.57,21.42,-1.71,0.36,0.47,0.79,-1.61,5.06,-5.61,31.34,9.2,-0.05,0.15,0.5,0.81,-0.92,2.07,-0.46
1900-01-01 15:13:19.091,28.4,20.88,-2.41,0.35,0.47,0.8,-1.65,1.56,-2.73,31.19,9.24,-0.13,0.15,0.5,0.81,-1.27,2.11,0.05
1900-01-01 15:13:19.138,28.52,20.63,-2.66,0.35,0.48,0.8,-0.42,0.4,-1.75,30.8,9.44,-0.13,0.16,0.49,0.81,-2.05,1.75,0.66
1900-01-01 15:13:19.232,28.33,20.43,-2.77,0.35,0.47,0.81,0.02,-1.13,-0.34,30.58,9.36,-0.04,0.16,0.49,0.81,-1.73,1.33,0.41
1900-01-01 15:13:19.326,28.12,21.02,-2.66,0.36,0.48,0.81,-0.29,-0.84,0.92,30.08,9.82,0.02,0.16,0.48,0.81,-1.62,1.41,0.55
1900-01-01 15:13:19.373,28.53,20.89,-2.37,0.36,0.48,0.8,-0.03,-0.15,0.9,30.34,9.52,0.09,0.16,0.48,0.81,-1.39,1.5,0.48
1900-01-01 15:13:19.469,28.4,21.68,-2.07,0.36,0.47,0.79,1.12,-2.82,3.13,30.4,9.85,0.16,0.16,0.49,0.81,-1.0,-0.45,0.77
1900-01-01 15:13:19.519,29.52,22.12,-1.44,0.38,0.5,0.8,3.77,-5.47,3.21,30.97,9.97,0.26,0.17,0.49,0.81,-0.15,-0.61,0.41
1900-01-01 15:13:19.611,29.2,22.83,-0.79,0.39,0.5,0.79,3.27,-5.18,1.03,30.64,10.24,0.32,0.17,0.49,0.81,-0.56,-0.08,0.44
1900-01-01 15:13:19.712,28.95,23.5,-0.48,0.41,0.5,0.8,1.42,-1.46,-0.15,30.9,10.37,0.38,0.17,0.49,0.81,-0.45,1.27,0.5
1900-01-01 15:13:19.753,28.88,23.56,-0.34,0.41,0.49,0.8,-1.02,3.76,-0.2,30.95,10.44,0.44,0.17,0.5,0.81,-1.44,3.96,0.45
1900-01-01 15:13:19.853,29.08,23.22,-0.21,0.39,0.48,0.77,-3.15,5.02,1.31,30.74,9.82,0.5,0.16,0.49,0.81,-2.16,2.75,0.74
1900-01-01 15:13:19.900,30.45,22.72,0.14,0.39,0.51,0.77,0.12,0.05,-0.24,31.26,9.45,0.61,0.16,0.5,0.81,-0.95,1.0,0.05
1900-01-01 15:13:20.003,29.22,22.99,0.27,0.4,0.49,0.79,2.1,-2.29,-3.35,30.57,10.14,0.61,0.17,0.49,0.81,-0.17,0.23,-0.82
1900-01-01 15:13:20.042,29.3,22.88,-0.08,0.4,0.5,0.8,1.21,-0.65,-3.37,31.03,10.21,0.47,0.17,0.5,0.81,0.08,1.24,-1.12
1900-01-01 15:13:20.145,29.71,22.61,-0.44,0.38,0.5,0.78,0.41,0.51,-1.63,31.2,9.96,0.29,0.17,0.5,0.8,0.15,1.33,-0.55
1900-01-01 15:13:20.231,30.59,22.31,-0.53,0.38,0.51,0.78,0.31,0.41,-2.05,31.82,9.49,0.2,0.16,0.51,0.8,-0.3,1.32,-0.54
1900-01-01 15:13:20.279,30.47,22.28,-0.68,0.38,0.51,0.78,0.48,-0.5,-3.15,32.13,9.77,0.11,0.16,0.51,0.8,-0.39,-0.24,-0.71
1900-01-01 15:13:20.371,30.17,22.26,-1.0,0.38,0.51,0.78,-0.02,-0.71,-2.72,31.94,10.07,-0.01,0.17,0.51,0.8,0.5,1.24,0.47
1900-01-01 15:13:20.466,30.52,21.94,-1.26,0.38,0.51,0.78,1.44,-1.02,-2.05,32.27,9.47,0.06,0.16,0.51,0.8,-0.19,-0.54,-0.69
1900-01-01 15:13:20.518,30.87,22.31,-1.41,0.38,0.51,0.77,0.37,-0.78,-1.18,32.56,10.15,-0.06,0.17,0.52,0.79,0.84,1.95,-0.15
1900-01-01 15:13:20.609,31.29,22.4,-1.43,0.38,0.52,0.76,-0.37,-1.47,-0.22,32.62,10.17,-0.09,0.17,0.52,0.79,-0.8,-0.08,0.37
1900-01-01 15:13:20.655,31.36,22.51,-1.31,0.38,0.52,0.77,0.35,-2.91,-0.13,33.01,10.02,-0.04,0.17,0.52,0.79,-0.34,0.54,0.24
1900-01-01 15:13:20.750,31.25,22.95,-1.17,0.4,0.53,0.77,0.78,-2.76,-0.85,32.93,10.34,-0.01,0.17,0.52,0.79,0.06,0.52,-0.05
1900-01-01 15:13:20.849,31.08,23.29,-1.14,0.4,0.52,0.77,-0.84,-1.05,-0.92,32.86,10.69,-0.03,0.18,0.52,0.79,-1.19,0.72,-0.01
1900-01-01 15:13:20.905,31.31,23.02,-1.12,0.39,0.52,0.76,-1.21,-0.06,-0.4,32.99,10.27,-0.04,0.17,0.52,0.79,-1.25,1.25,0.3
1900-01-01 15:13:20.988,31.58,23.27,-1.02,0.4,0.53,0.76,-0.9,-1.0,-0.49,33.23,10.49,0.0,0.18,0.53,0.79,-1.24,0.76,0.34
1900-01-01 15:13:21.039,31.12,23.4,-0.94,0.4,0.52,0.76,0.18,-2.28,-0.47,33.02,10.69,0.04,0.18,0.52,0.79,-0.88,0.39,0.19
1900-01-01 15:13:21.132,31.06,23.63,-0.85,0.41,0.52,0.77,0.32,-2.3,-0.23,32.92,10.74,0.06,0.18,0.52,0.79,-0.61,0.44,0.34
1900-01-01 15:13:21.230,31.34,23.93,-0.73,0.41,0.53,0.76,0.05,-1.45,-0.82,33.2,10.7,0.1,0.18,0.53,0.79,-0.79,1.25,-0.25
1900-01-01 15:13:21.274,30.89,24.26,-0.69,0.42,0.52,0.76,-0.45,-0.28,-0.81,32.85,11.06,0.06,0.18,0.52,0.79,-1.23,1.27,0.07
1900-01-01 15:13:21.368,31.3,23.88,-0.66,0.41,0.52,0.76,-1.23,0.41,-0.19,33.11,10.82,0.06,0.18,0.53,0.78,-1.5,1.37,0.45
1900-01-01 15:13:21.416,31.5,24.08,-0.53,0.41,0.53,0.76,-0.67,0.16,-1.07,33.35,10.87,0.12,0.18,0.53,0.78,-1.32,1.41,0.04
1900-01-01 15:13:21.511,31.06,24.1,-0.53,0.41,0.52,0.76,-0.17,-0.39,-1.23,33.11,10.84,0.12,0.18,0.53,0.79,-1.3,1.0,-0.05
1900-01-01 15:13:21.604,31.37,23.84,-0.56,0.41,0.52,0.76,-0.37,-0.66,-0.93,33.22,10.72,0.1,0.18,0.53,0.78,-1.27,0.99,0.11
1900-01-01 15:13:21.653,31.14,24.2,-0.55,0.41,0.52,0.76,-0.19,-0.69,-1.02,33.25,11.0,0.11,0.18,0.53,0.78,-1.08,1.11,0.1
1900-01-01 15:13:21.746,31.17,24.09,-0.54,0.41,0.52,0.76,-0.4,-0.08,-0.76,33.23,10.69,0.11,0.18,0.53,0.78,-1.16,1.37,0.26
1900-01-01 15:13:21.841,31.26,24.16,-0.5,0.41,0.53,0.76,-0.69,0.1,-0.37,33.0,11.22,0.15,0.19,0.52,0.79,-1.22,1.66,0.27
1900-01-01 15:13:21.889,31.27,24.08,-0.4,0.41,0.52,0.76,-0.41,-0.56,-0.62,33.07,10.85,0.18,0.18,0.52,0.78,-1.03,1.14,0.15
1900-01-01 15:13:21.983,31.19,24.27,-0.33,0.42,0.52,0.76,0.1,-1.05,-0.9,33.29,11.08,0.19,0.19,0.53,0.79,-0.7,0.98,-0.01
1900-01-01 15:13:22.034,31.25,24.23,-0.31,0.41,0.52,0.76,-0.53,-0.44,-0.8,33.42,10.92,0.18,0.18,0.53,0.78,-1.11,1.43,0.08
1900-01-01 15:13:22.131,31.44,24.35,-0.28,0.42,0.53,0.75,-0.98,-0.07,-0.6,33.45,10.92,0.19,0.18,0.53,0.78,-1.28,1.47,0.29
1900-01-01 15:13:22.177,31.36,24.24,-0.21,0.41,0.52,0.75,-0.43,-0.34,-0.67,33.43,10.99,0.22,0.18,0.53,0.78,-1.15,1.34,0.21
1900-01-01 15:13:22.271,31.14,24.37,-0.15,0.42,0.52,0.76,-0.34,-0.56,-0.81,33.26,11.19,0.25,0.19,0.53,0.78,-0.99,1.38,0.1
1900-01-01 15:13:22.366,31.1,24.45,-0.12,0.42,0.52,0.76,-0.66,-0.32,-0.74,33.33,11.11,0.25,0.19,0.53,0.78,-1.15,1.34,0.18
1900-01-01 15:13:22.415,31.22,24.41,-0.07,0.42,0.52,0.75,-0.32,-0.29,-0.94,33.22,11.15,0.27,0.19,0.53,0.78,-1.21,1.24,0.12
1900-01-01 15:13:22.507,31.13,24.34,-0.06,0.42,0.52,0.76,-0.66,-0.03,-0.62,33.36,10.92,0.28,0.18,0.53,0.78,-1.28,1.37,0.23
1900-01-01 15:13:22.566,31.12,24.57,0.01,0.42,0.52,0.76,-0.4,0.01,-0.56,33.56,11.03,0.31,0.18,0.53,0.78,-1.27,1.43,-0.04
1900-01-01 15:13:22.650,31.18,24.47,0.08,0.42,0.52,0.76,-0.34,-0.11,-0.5,33.33,11.2,0.29,0.19,0.53,0.78,-1.3,1.15,0.22
1900-01-01 15:13:22.744,31.22,24.34,0.16,0.41,0.52,0.75,-0.34,-0.27,-1.13,33.39,10.86,0.32,0.18,0.53,0.78,-1.24,1.09,-0.02
1900-01-01 15:13:22.790,31.14,24.36,0.15,0.42,0.52,0.76,-0.57,-0.23,-1.17,33.38,11.07,0.31,0.18,0.53,0.78,-1.31,1.2,0.04
1900-01-01 15:13:22.884,30.85,24.42,0.13,0.42,0.52,0.76,-0.72,0.23,-1.08,33.12,10.98,0.31,0.18,0.52,0.78,-1.42,1.63,-0.11
1900-01-01 15:13:22.934,31.12,24.35,0.12,0.41,0.52,0.75,-0.69,0.18,-0.84,33.22,11.06,0.28,0.18,0.53,0.78,-1.44,1.33,0.09
1900-01-01 15:13:23.026,31.13,24.36,0.15,0.42,0.52,0.76,-0.47,-0.14,-1.0,33.25,11.0,0.29,0.18,0.53,0.78,-1.45,1.26,0.08
1900-01-01 15:13:23.121,31.23,24.19,0.16,0.41,0.52,0.76,-0.6,0.0,-1.02,33.25,10.85,0.29,0.18,0.53,0.78,-1.32,1.44,-0.02
1900-01-01 15:13:23.168,31.22,24.44,0.17,0.42,0.52,0.76,-0.64,-0.07,-0.95,33.44,11.01,0.28,0.18,0.53,0.78,-1.15,1.5,-0.05
1900-01-01 15:13:23.262,31.23,24.18,0.18,0.41,0.52,0.76,-0.56,-0.3,-1.08,33.36,10.91,0.26,0.18,0.53,0.78,-1.21,1.31,-0.03
1900-01-01 15:13:23.355,31.08,24.26,0.17,0.41,0.52,0.76,-0.42,-0.41,-1.06,33.45,11.01,0.25,0.18,0.53,0.78,-1.16,1.25,0.06
1900-01-01 15:13:23.403,31.2,24.14,0.17,0.41,0.52,0.76,-0.54,-0.33,-0.92,33.45,10.78,0.25,0.18,0.53,0.78,-1.2,1.28,0.1
1900-01-01 15:13:23.497,31.1,24.34,0.19,0.42,0.52,0.76,-0.52,-0.41,-1.03,33.49,10.92,0.26,0.18,0.53,0.78,-1.19,1.27,0.05
1900-01-01 15:13:23.545,31.16,24.28,0.19,0.41,0.52,0.76,-0.47,-0.64,-0.98,33.03,11.16,0.26,0.19,0.52,0.78,-1.2,1.08,0.08
1900-01-01 15:13:23.638,31.29,24.4,0.2,0.42,0.52,0.75,-0.56,-0.59,-1.05,33.33,11.07,0.26,0.18,0.53,0.78,-1.34,0.85,0.24
1900-01-01 15:13:23.735,31.05,24.34,0.2,0.42,0.52,0.76,-0.63,-0.56,-1.08,33.06,10.83,0.29,0.18,0.52,0.78,-1.18,1.35,-0.05
1900-01-01 15:13:23.780,31.18,24.43,0.19,0.42,0.52,0.75,-0.47,-0.42,-0.96,33.4,10.81,0.27,0.18,0.53,0.78,-1.37,0.96,0.21
1900-01-01 15:13:23.875,31.15,24.51,0.2,0.42,0.52,0.75,-0.46,-0.46,-0.87,33.26,11.06,0.3,0.18,0.53,0.78,-1.38,0.98,0.18
1900-01-01 15:13:23.969,31.27,24.39,0.23,0.42,0.52,0.75,-0.48,-0.36,-0.96,33.48,10.84,0.32,0.18,0.53,0.78,-1.21,1.21,0.09
1900-01-01 15:13:24.015,31.16,24.57,0.24,0.42,0.52,0.75,-0.56,-0.37,-0.99,33.6,10.96,0.32,0.18,0.53,0.78,-1.27,1.26,0.08
1900-01-01 15:13:24.111,31.46,24.53,0.25,0.42,0.53,0.75,-0.5,-0.47,-1.04,33.8,10.86,0.32,0.18,0.54,0.78,-1.37,1.21,0.05
1900-01-01 15:13:24.158,31.11,24.65,0.25,0.42,0.52,0.75,-0.5,-0.53,-0.98,33.49,11.08,0.32,0.19,0.53,0.78,-1.06,1.34,0.02
1900-01-01 15:13:24.252,31.23,24.47,0.26,0.42,0.52,0.75,-0.49,-0.44,-0.98,33.68,10.92,0.32,0.18,0.53,0.78,-1.13,1.31,0.02
1900-01-01 15:13:24.347,30.99,24.69,0.27,0.42,0.52,0.76,-0.56,-0.28,-1.04,33.41,11.17,0.31,0.19,0.53,0.78,-1.13,1.37,0.04
1900-01-01 15:13:24.393,31.24,24.47,0.27,0.42,0.52,0.75,-0.59,-0.27,-0.85,33.44,11.03,0.31,0.18,0.53,0.78,-1.28,1.21,0.18
1900-01-01 15:13:24.487,31.29,24.7,0.3,0.42,0.53,0.75,-0.51,-0.61,-1.02,33.41,11.19,0.33,0.19,0.53,0.78,-1.1,1.26,-0.05
1900-01-01 15:13:24.534,31.16,24.57,0.3,0.42,0.52,0.76,-0.4,-0.39,-1.04,33.51,11.06,0.31,0.18,0.53,0.78,-1.38,1.21,0.09
1900-01-01 15:13:24.636,31.16,24.63,0.3,0.42,0.52,0.75,-0.58,-0.22,-0.92,33.51,10.97,0.32,0.18,0.53,0.78,-1.24,1.37,0.09
1900-01-01 15:13:24.726,30.93,24.67,0.32,0.42,0.52,0.75,-0.66,-0.22,-0.93,33.09,11.23,0.32,0.19,0.52,0.78,-1.23,1.37,0.02
1900-01-01 15:13:24.771,31.15,24.59,0.34,0.42,0.52,0.75,-0.56,-0.34,-1.0,33.32,11.08,0.32,0.18,0.53,0.78,-1.3,1.14,0.14
1900-01-01 15:13:24.865,31.24,24.66,0.34,0.42,0.52,0.75,-0.57,-0.33,-0.95,33.38,11.2,0.33,0.19,0.53,0.78,-1.28,1.26,0.11
1900-01-01 15:13:24.912,31.18,24.59,0.36,0.42,0.52,0.75,-0.44,-0.32,-1.02,33.59,11.08,0.34,0.18,0.53,0.78,-1.37,1.22,0.11
1900-01-01 15:13:25.005,31.12,24.7,0.36,0.42,0.52,0.76,-0.59,-0.24,-0.9,33.64,11.03,0.35,0.18,0.53,0.78,-1.22,1.4,0.04
1900-01-01 15:13:25.100,31.3,24.76,0.38,0.42,0.53,0.75,-0.42,-0.37,-0.98,33.73,11.03,0.34,0.18,0.53,0.78,-1.14,1.35,-0.02
1900-01-01 15:13:25.147,31.21,24.64,0.39,0.42,0.52,0.75,-0.39,-0.28,-1.09,33.68,11.05,0.33,0.18,0.53,0.78,-1.21,1.21,0.07
1900-01-01 15:13:25.244,31.16,24.61,0.38,0.42,0.52,0.75,-0.47,-0.23,-1.05,33.56,11.01,0.33,0.18,0.53,0.78,-1.15,1.3,-0.06
1900-01-01 15:13:25.307,31.12,24.67,0.38,0.42,0.52,0.76,-0.68,-0.31,-1.0,33.35,11.24,0.31,0.19,0.53,0.78,-1.28,1.18,0.06
1900-01-01 15:13:25.401,31.04,24.63,0.39,0.42,0.52,0.75,-0.55,-0.25,-1.1,33.3,10.98,0.32,0.18,0.53,0.78,-1.34,1.4,-0.02
1900-01-01 15:13:25.454,31.31,24.66,0.38,0.42,0.52,0.75,-0.6,-0.17,-0.95,33.49,11.07,0.3,0.18,0.53,0.78,-1.47,1.36,0.15
1900-01-01 15:13:25.548,31.05,24.7,0.39,0.42,0.52,0.75,-0.5,-0.13,-0.93,33.32,11.22,0.32,0.19,0.53,0.78,-1.32,1.37,0.05
1900-01-01 15:13:25.639,31.28,24.59,0.41,0.42,0.52,0.75,-0.5,-0.22,-0.96,33.62,10.99,0.32,0.18,0.53,0.78,-1.35,1.24,0.08
1900-01-01 15:13:25.687,31.15,24.57,0.42,0.42,0.52,0.75,-0.6,-0.16,-1.02,33.4,11.18,0.32,0.19,0.53,0.78,-1.33,1.27,0.05
1900-01-01 15:13:25.780,31.15,24.66,0.43,0.42,0.52,0.75,-0.64,-0.12,-1.07,33.56,11.05,0.32,0.18,0.53,0.78,-1.39,1.43,-0.02
1900-01-01 15:13:25.828,31.04,24.51,0.42,0.42,0.52,0.76,-0.64,-0.02,-0.96,33.17,11.16,0.31,0.19,0.53,0.78,-1.4,1.37,0.04
1900-01-01 15:13:25.925,31.31,24.51,0.43,0.42,0.53,0.75,-0.62,-0.08,-0.98,33.42,11.08,0.31,0.19,0.53,0.78,-1.36,1.42,0.02
1900-01-01 15:13:26.018,31.16,24.43,0.44,0.42,0.52,0.76,-0.61,0.01,-1.01,33.28,11.08,0.3,0.19,0.53,0.78,-1.33,1.47,-0.05
1900-01-01 15:13:26.069,31.26,24.53,0.45,0.42,0.52,0.75,-0.58,0.04,-1.02,33.63,10.94,0.29,0.18,0.53,0.78,-1.35,1.38,0.03
1900-01-01 15:13:26.161,31.02,24.63,0.45,0.42,0.52,0.75,-0.52,-0.21,-0.89,33.35,11.1,0.28,0.19,0.53,0.78,-1.23,1.31,-0.02
1900-01-01 15:13:26.210,31.05,24.43,0.47,0.42,0.52,0.76,-0.35,-0.1,-1.15,33.52,10.96,0.27,0.18,0.53,0.78,-1.06,1.6,-0.24
1900-01-01 15:13:26.318,30.95,24.41,0.46,0.42,0.52,0.76,-0.73,0.08,-1.11,33.3,10.89,0.23,0.18,0.53,0.78,-1.37,1.44,0.02
1900-01-01 15:13:26.365,30.96,24.45,0.45,0.42,0.52,0.76,-0.72,0.08,-1.12,33.38,11.08,0.22,0.19,0.53,0.78,-1.4,1.41,-0.01
1900-01-01 15:13:26.466,31.23,24.28,0.44,0.41,0.52,0.75,-0.56,-0.38,-0.69,33.42,10.8,0.21,0.18,0.53,0.78,-1.23,1.13,0.12
1900-01-01 15:13:26.509,31.26,24.23,0.49,0.42,0.53,0.76,-0.5,-0.33,-1.01,33.34,11.08,0.22,0.19,0.53,0.78,-1.34,1.34,0.08
1900-01-01 15:13:26.591,31.27,24.16,0.49,0.41,0.52,0.76,-0.69,0.06,-1.33,33.42,10.88,0.23,0.18,0.53,0.78,-1.36,1.43,0.04
1900-01-01 15:13:26.686,30.92,24.57,0.45,0.42,0.52,0.75,-0.49,-0.41,-0.93,33.35,11.13,0.22,0.19,0.53,0.78,-1.21,1.05,0.07
1900-01-01 15:13:26.776,31.16,24.21,0.47,0.41,0.52,0.76,-0.25,-1.07,-0.6,33.22,10.8,0.22,0.18,0.53,0.78,-1.21,0.73,0.14
1900-01-01 15:13:26.823,31.22,24.32,0.53,0.42,0.52,0.76,-0.61,-0.58,-1.11,33.43,10.85,0.24,0.18,0.53,0.78,-1.32,1.16,0.27
1900-01-01 15:13:26.917,30.94,24.65,0.52,0.42,0.52,0.75,-0.6,-0.3,-1.13,33.24,11.21,0.27,0.19,0.53,0.78,-1.27,1.28,0.09
1900-01-01 15:13:26.963,31.24,24.39,0.51,0.42,0.52,0.75,-0.46,-0.72,-0.47,33.46,10.98,0.28,0.18,0.53,0.78,-1.41,0.85,0.28
1900-01-01 15:13:27.057,31.38,24.66,0.6,0.42,0.53,0.76,-0.21,-0.62,-1.15,33.61,11.1,0.31,0.19,0.53,0.78,-1.24,1.27,-0.02
1900-01-01 15:13:27.151,31.34,24.41,0.58,0.42,0.52,0.75,-0.39,-0.28,-1.31,33.75,10.84,0.3,0.18,0.53,0.77,-1.44,1.24,0.18
1900-01-01 15:13:27.197,31.13,24.96,0.54,0.43,0.52,0.75,-0.19,-0.5,-0.98,33.78,11.26,0.32,0.19,0.54,0.78,-1.11,1.2,0.01
1900-01-01 15:13:27.291,31.22,24.34,0.55,0.41,0.52,0.75,-0.39,-0.48,-0.87,33.33,10.97,0.31,0.18,0.53,0.78,-1.11,1.19,0.04
1900-01-01 15:13:27.386,31.17,24.62,0.57,0.42,0.52,0.75,-0.51,-0.35,-1.08,33.46,11.24,0.31,0.19,0.53,0.78,-1.19,1.15,0.28
1900-01-01 15:13:27.433,31.29,24.78,0.57,0.42,0.52,0.75,-0.47,-0.43,-0.73,33.56,11.09,0.34,0.19,0.53,0.78,-1.43,1.11,0.18
1900-01-01 15:13:27.526,31.13,24.56,0.62,0.42,0.52,0.75,-0.39,-0.66,-0.68,33.58,11.1,0.36,0.19,0.53,0.78,-1.2,1.21,0.18
1900-01-01 15:13:27.573,31.47,24.84,0.67,0.43,0.53,0.75,-0.53,-0.46,-0.77,33.64,11.22,0.38,0.19,0.53,0.78,-1.47,1.19,0.22
1900-01-01 15:13:27.667,31.32,24.58,0.71,0.42,0.52,0.75,-0.38,-0.33,-0.97,33.69,11.08,0.41,0.18,0.53,0.78,-1.37,1.27,0.09
1900-01-01 15:13:27.761,31.04,24.8,0.72,0.42,0.52,0.76,-0.51,-0.19,-0.96,33.44,11.42,0.41,0.19,0.53,0.78,-1.3,1.27,0.15
1900-01-01 15:13:27.808,31.24,24.64,0.74,0.42,0.52,0.75,-0.48,-0.32,-0.99,33.37,10.97,0.43,0.18,0.53,0.78,-1.2,1.21,0.01
1900-01-01 15:13:27.902,30.85,24.97,0.74,0.43,0.52,0.76,-0.44,-0.3,-1.21,33.32,11.37,0.42,0.19,0.53,0.78,-1.15,1.4,-0.14
1900-01-01 15:13:27.994,30.83,24.82,0.72,0.42,0.52,0.75,-0.6,-0.16,-1.08,33.22,11.33,0.39,0.19,0.53,0.78,-1.28,1.37,0.02
1900-01-01 15:13:28.058,31.27,24.69,0.71,0.42,0.52,0.75,-0.51,-0.23,-1.0,33.6,11.09,0.38,0.19,0.53,0.78,-1.21,1.25,0.09
1900-01-01 15:13:28.136,31.03,24.75,0.72,0.42,0.52,0.75,-0.47,-0.38,-0.95,33.29,11.12,0.39,0.19,0.53,0.78,-1.24,1.09,0.12
1900-01-01 15:13:28.190,30.97,24.71,0.73,0.42,0.52,0.75,-0.49,-0.38,-1.05,33.41,11.12,0.4,0.19,0.53,0.78,-1.11,1.31,0.01
1900-01-01 15:13:28.284,31.06,24.8,0.73,0.42,0.52,0.75,-0.44,-0.4,-0.9,33.34,11.44,0.39,0.19,0.53,0.78,-1.29,1.15,0.13
1900-01-01 15:13:28.338,31.22,24.77,0.75,0.42,0.52,0.75,-0.49,-0.37,-0.97,33.51,11.19,0.4,0.19,0.53,0.78,-1.32,1.25,0.05
1900-01-01 15:13:28.435,31.12,24.75,0.76,0.42,0.52,0.75,-0.49,-0.17,-1.01,33.32,11.21,0.4,0.19,0.53,0.78,-1.37,1.19,0.15
1900-01-01 15:13:28.528,31.29,24.86,0.77,0.42,0.52,0.75,-0.59,-0.15,-0.97,33.74,11.12,0.42,0.19,0.54,0.78,-1.43,1.34,0.07
1900-01-01 15:13:28.567,31.08,24.84,0.78,0.42,0.52,0.75,-0.5,-0.14,-0.99,33.62,11.13,0.42,0.19,0.53,0.78,-1.31,1.44,-0.01
1900-01-01 15:13:28.667,30.88,24.76,0.79,0.42,0.52,0.75,-0.51,-0.21,-1.09,33.44,11.05,0.41,0.18,0.53,0.78,-1.07,1.46,-0.08
1900-01-01 15:13:28.760,31.25,24.87,0.78,0.43,0.53,0.76,-0.6,-0.18,-0.92,33.61,11.35,0.39,0.19,0.53,0.78,-1.35,1.27,0.11
1900-01-01 15:13:28.807,31.18,24.58,0.8,0.42,0.52,0.75,-0.57,-0.07,-0.99,33.52,11.05,0.4,0.18,0.53,0.78,-1.44,1.39,0.09
1900-01-01 15:13:28.902,31.08,24.74,0.81,0.42,0.52,0.75,-0.69,-0.09,-0.97,33.33,11.29,0.4,0.19,0.53,0.78,-1.4,1.45,-0.02
1900-01-01 15:13:28.954,31.47,24.65,0.82,0.42,0.53,0.75,-0.27,-0.23,-1.02,33.96,11.06,0.39,0.19,0.54,0.78,-1.1,1.31,0.0
1900-01-01 15:13:29.045,31.14,24.73,0.82,0.42,0.52,0.75,-0.47,-0.08,-0.85,33.55,11.06,0.38,0.19,0.53,0.78,-1.34,1.38,0.02
1900-01-01 15:13:29.094,30.86,24.55,0.85,0.42,0.52,0.75,-0.35,-0.34,-1.18,33.43,10.88,0.38,0.18,0.53,0.78,-0.99,1.29,-0.12
1900-01-01 15:13:29.169,30.89,24.9,0.83,0.42,0.52,0.75,-0.59,-0.13,-1.07,33.36,11.31,0.35,0.19,0.53,0.78,-1.34,1.33,-0.01
1900-01-01 15:13:29.266,31.13,24.53,0.82,0.42,0.52,0.75,-0.66,-0.04,-1.0,33.19,11.22,0.34,0.19,0.53,0.78,-1.29,1.56,-0.1
1900-01-01 15:13:29.351,31.07,24.76,0.83,0.42,0.52,0.76,-0.73,0.07,-0.92,33.47,11.15,0.32,0.19,0.53,0.78,-1.54,1.44,0.07
1900-01-01 15:13:29.401,31.32,24.28,0.85,0.41,0.52,0.75,-0.36,-0.27,-1.13,33.58,10.72,0.32,0.18,0.53,0.78,-1.32,1.12,0.12
1900-01-01 15:13:29.494,31.14,24.73,0.83,0.42,0.52,0.76,-0.6,-0.26,-1.11,33.68,11.15,0.33,0.19,0.54,0.78,-1.18,1.36,0.02
1900-01-01 15:13:29.591,30.87,24.49,0.82,0.42,0.52,0.75,-0.43,-0.55,-1.04,33.11,11.09,0.32,0.18,0.52,0.78,-1.13,1.16,-0.02
1900-01-01 15:13:29.639,30.85,24.53,0.82,0.42,0.52,0.76,-0.5,-0.6,-1.05,32.96,11.45,0.31,0.19,0.52,0.78,-1.15,0.98,0.08
1900-01-01 15:13:29.705,30.83,24.46,0.82,0.42,0.52,0.76,-0.83,-0.41,-0.99,32.69,11.31,0.32,0.19,0.52,0.79,-1.4,1.02,0.25
1900-01-01 15:13:29.798,31.2,24.43,0.83,0.42,0.52,0.76,-0.89,-0.37,-0.95,32.85,11.4,0.34,0.19,0.52,0.78,-1.49,1.21,0.11
1900-01-01 15:13:29.888,31.45,24.43,0.84,0.42,0.53,0.75,-0.49,-0.68,-0.95,33.53,11.08,0.35,0.19,0.53,0.78,-1.22,0.95,0.18
1900-01-01 15:13:29.934,31.11,24.93,0.86,0.43,0.52,0.75,-0.4,-0.49,-1.07,33.87,11.28,0.37,0.19,0.54,0.78,-0.97,1.31,0.07
1900-01-01 15:13:30.026,30.59,24.5,0.85,0.42,0.51,0.76,-0.69,-0.38,-1.02,32.29,11.41,0.37,0.19,0.51,0.79,-1.24,1.21,-0.08
1900-01-01 15:13:30.122,31.65,24.74,0.86,0.42,0.53,0.75,-0.63,-0.29,-1.17,33.99,11.27,0.35,0.19,0.54,0.78,-1.43,1.05,0.16
1900-01-01 15:13:30.169,31.38,24.87,0.84,0.43,0.53,0.75,-0.01,-0.34,-1.53,34.84,10.82,0.37,0.18,0.55,0.77,-0.42,1.85,-0.34
1900-01-01 15:13:30.233,29.89,24.16,0.76,0.41,0.5,0.77,-0.38,-0.15,-1.92,31.97,11.37,0.31,0.19,0.5,0.79,-0.05,1.94,-0.7
1900-01-01 15:13:30.332,30.73,24.81,0.63,0.42,0.52,0.76,-1.92,0.96,-1.4,32.23,12.1,0.19,0.2,0.51,0.79,-2.08,1.3,0.44
1900-01-01 15:13:30.425,32.19,24.63,0.57,0.42,0.53,0.74,-0.78,-0.08,-0.82,34.3,10.62,0.25,0.18,0.54,0.78,-1.79,1.21,0.11
1900-01-01 15:13:30.471,32.11,24.09,0.61,0.41,0.53,0.75,0.84,-1.99,-0.82,34.63,10.44,0.26,0.17,0.55,0.77,-0.92,0.44,0.18
1900-01-01 15:13:30.565,30.97,24.94,0.64,0.43,0.52,0.76,1.48,-2.11,-0.95,34.34,10.69,0.28,0.18,0.56,0.79,-0.53,0.9,0.02
1900-01-01 15:13:30.613,31.78,25.07,0.66,0.43,0.53,0.75,0.05,0.05,-1.13,34.36,10.98,0.27,0.18,0.54,0.78,-1.24,1.96,-0.13
1900-01-01 15:13:30.706,31.84,24.51,0.64,0.42,0.53,0.75,-0.78,0.85,-1.65,33.92,10.6,0.25,0.18,0.53,0.77,-1.38,2.29,-0.45
1900-01-01 15:13:30.805,31.99,24.9,0.55,0.43,0.54,0.75,-1.0,1.46,-2.6,34.83,10.99,0.17,0.18,0.55,0.77,-0.91,2.4,-0.73
1900-01-01 15:13:30.846,31.83,23.66,0.31,0.4,0.53,0.75,-1.14,2.05,-3.56,34.12,10.38,0.05,0.17,0.54,0.77,-0.92,2.35,-0.85
1900-01-01 15:13:30.956,31.3,23.41,-0.07,0.4,0.52,0.76,-0.99,2.37,-3.34,33.82,10.45,-0.09,0.17,0.54,0.78,-0.64,2.57,-0.85
1900-01-01 15:13:31.003,31.39,23.14,-0.42,0.39,0.52,0.76,-1.86,2.72,-1.84,33.73,10.37,-0.22,0.17,0.53,0.78,-1.72,2.1,0.01
1900-01-01 15:13:31.082,32.22,22.7,-0.55,0.38,0.53,0.75,-1.22,0.95,-0.53,34.73,9.56,-0.23,0.16,0.55,0.78,-1.6,1.44,0.04
1900-01-01 15:13:31.175,32.01,22.84,-0.47,0.39,0.53,0.76,0.15,-1.11,-0.62,34.07,10.05,-0.23,0.17,0.54,0.78,-1.5,0.73,0.24
1900-01-01 15:13:31.222,31.69,22.83,-0.4,0.39,0.53,0.76,0.77,-1.68,-0.87,34.69,9.97,-0.21,0.17,0.55,0.77,-0.4,0.9,-0.05
1900-01-01 15:13:31.317,31.39,23.34,-0.38,0.4,0.53,0.77,-0.65,-0.46,-0.25,34.24,10.63,-0.22,0.18,0.54,0.78,-1.39,1.12,0.22
1900-01-01 15:13:31.417,31.41,23.03,-0.26,0.4,0.53,0.77,-0.76,0.11,-0.87,33.67,10.33,-0.2,0.17,0.53,0.78,-1.28,1.49,-0.19
1900-01-01 15:13:31.460,31.81,22.81,-0.23,0.39,0.53,0.76,-0.79,0.5,-1.69,33.96,10.18,-0.24,0.17,0.54,0.78,-1.52,1.59,-0.1
1900-01-01 15:13:31.554,31.43,22.87,-0.33,0.39,0.52,0.76,-0.46,0.51,-1.89,33.7,10.32,-0.26,0.17,0.53,0.78,-0.87,1.92,-0.29
1900-01-01 15:13:31.648,31.63,22.72,-0.46,0.39,0.52,0.76,-0.45,0.45,-0.89,33.73,10.23,-0.31,0.17,0.53,0.78,-1.2,1.44,0.18
1900-01-01 15:13:31.702,32.0,22.64,-0.44,0.39,0.53,0.76,-0.32,-0.41,-0.76,34.26,9.98,-0.29,0.17,0.54,0.78,-1.19,1.1,0.18
1900-01-01 15:13:31.791,31.87,22.92,-0.4,0.39,0.53,0.76,-0.6,-0.12,-1.06,34.32,10.18,-0.27,0.17,0.54,0.78,-1.4,1.31,0.05
1900-01-01 15:13:31.839,31.78,22.51,-0.4,0.38,0.53,0.76,-0.04,-0.43,-0.59,34.18,9.86,-0.27,0.16,0.54,0.78,-1.31,1.01,0.41
1900-01-01 15:13:31.931,31.5,23.11,-0.33,0.39,0.53,0.76,-1.07,-0.2,0.72,34.34,10.32,-0.22,0.17,0.54,0.78,-1.72,0.77,0.54
1900-01-01 15:13:32.028,31.89,22.6,-0.07,0.39,0.54,0.77,-1.14,-0.28,-0.4,33.84,10.09,-0.14,0.17,0.54,0.78,-1.85,1.2,0.31
1900-01-01 15:13:32.075,31.95,23.36,0.03,0.4,0.53,0.76,-0.17,-0.63,-1.54,33.76,10.83,-0.11,0.18,0.54,0.78,-2.12,0.31,0.14
1900-01-01 15:13:32.169,31.45,22.62,-0.05,0.39,0.52,0.77,0.0,0.05,-2.18,34.13,9.89,-0.09,0.17,0.54,0.78,-0.66,1.64,-0.89
1900-01-01 15:13:32.217,32.11,22.79,-0.22,0.39,0.54,0.77,-1.02,0.91,-1.99,34.49,10.02,-0.24,0.17,0.55,0.78,-1.2,1.88,-0.53
1900-01-01 15:13:32.315,31.14,22.45,-0.36,0.39,0.52,0.77,-1.59,2.3,-2.82,33.21,10.46,-0.33,0.17,0.53,0.78,-1.32,2.47,-0.61
1900-01-01 15:13:32.408,31.87,22.03,-0.64,0.37,0.53,0.76,-0.65,1.27,-1.82,34.02,9.98,-0.43,0.17,0.54,0.78,-1.21,1.44,-0.27
1900-01-01 15:13:32.459,32.07,21.64,-0.76,0.37,0.53,0.77,0.88,-1.13,-1.95,33.79,10.02,-0.48,0.17,0.53,0.78,-0.59,0.82,-0.62
1900-01-01 15:13:32.552,31.45,21.87,-0.9,0.37,0.53,0.77,0.72,-2.04,-0.93,33.14,10.36,-0.58,0.17,0.52,0.79,-1.08,0.36,-0.06
1900-01-01 15:13:32.600,31.84,21.95,-0.88,0.38,0.53,0.77,-1.06,-0.05,-0.83,33.77,10.29,-0.6,0.17,0.54,0.78,-2.04,1.01,0.55
1900-01-01 15:13:32.690,31.89,21.92,-0.85,0.37,0.53,0.77,-1.6,1.95,-0.6,34.56,9.78,-0.52,0.16,0.55,0.77,-1.72,1.86,0.4
1900-01-01 15:13:32.784,31.6,21.35,-0.78,0.36,0.52,0.77,-1.02,0.69,-0.34,32.91,10.31,-0.47,0.17,0.52,0.78,-1.34,1.76,0.31
1900-01-01 15:13:32.832,32.72,21.49,-0.67,0.37,0.54,0.76,-1.03,-0.66,-0.35,34.21,10.02,-0.43,0.17,0.54,0.78,-1.85,0.44,0.7
1900-01-01 15:13:32.931,31.93,21.9,-0.57,0.38,0.54,0.78,-0.21,-0.61,-0.62,34.11,10.26,-0.33,0.17,0.54,0.78,-1.45,1.3,0.2
1900-01-01 15:13:32.983,31.52,21.55,-0.51,0.37,0.52,0.77,-0.73,0.15,-0.9,34.3,9.8,-0.31,0.16,0.54,0.78,-0.97,1.93,0.2
1900-01-01 15:13:33.071,31.54,22.04,-0.48,0.38,0.53,0.77,-1.1,-0.16,0.08,33.98,10.41,-0.29,0.17,0.54,0.78,-1.15,1.23,0.65
1900-01-01 15:13:33.169,31.97,21.84,-0.31,0.37,0.53,0.77,-0.21,-0.73,-0.07,33.91,10.06,-0.2,0.17,0.54,0.78,-1.05,1.1,0.59
1900-01-01 15:13:33.217,31.62,22.19,-0.17,0.38,0.52,0.76,0.57,-1.83,-0.6,33.71,10.34,-0.12,0.17,0.53,0.78,-0.48,0.66,0.15
1900-01-01 15:13:33.308,32.02,22.72,-0.1,0.39,0.53,0.76,0.48,-3.91,0.48,34.11,10.36,-0.1,0.17,0.55,0.79,-1.33,-0.83,0.34
1900-01-01 15:13:33.403,31.78,23.01,0.13,0.39,0.53,0.76,0.48,-4.47,0.62,33.98,10.67,-0.06,0.18,0.54,0.78,-1.31,-0.42,0.27
1900-01-01 15:13:33.450,31.43,23.44,0.39,0.4,0.53,0.76,-0.28,-3.62,0.21,33.57,10.87,-0.03,0.18,0.53,0.78,-1.21,0.16,0.63
1900-01-01 15:13:33.544,31.96,24.43,0.58,0.42,0.54,0.75,-0.4,-1.74,0.05,34.41,11.14,0.06,0.19,0.55,0.77,-1.56,1.11,0.65
1900-01-01 15:13:33.590,31.96,23.88,0.74,0.4,0.53,0.74,-0.08,-1.18,0.25,34.51,10.53,0.15,0.17,0.54,0.77,-1.03,1.3,0.51
1900-01-01 15:13:33.686,31.92,24.77,0.94,0.43,0.54,0.75,-0.11,-0.57,0.82,34.78,11.45,0.22,0.19,0.55,0.77,-1.05,1.24,0.73
1900-01-01 15:13:33.780,31.65,24.32,1.22,0.41,0.53,0.75,-0.66,-0.13,-0.19,34.22,10.75,0.32,0.18,0.54,0.77,-1.0,1.56,-0.09
1900-01-01 15:13:33.826,31.64,24.75,1.35,0.42,0.53,0.75,-0.73,-0.3,-0.75,34.16,11.34,0.3,0.19,0.54,0.77,-1.26,1.37,0.31
1900-01-01 15:13:33.922,31.48,24.78,1.4,0.43,0.53,0.75,-0.88,-0.32,-1.69,34.07,11.39,0.34,0.19,0.54,0.78,-1.17,1.79,-0.42
1900-01-01 15:13:33.970,31.7,24.39,1.3,0.42,0.53,0.75,-0.95,0.57,-1.42,34.35,10.89,0.26,0.18,0.54,0.77,-1.69,1.84,-0.02
1900-01-01 15:13:34.065,31.54,24.42,1.24,0.42,0.53,0.75,-0.85,0.47,-1.19,34.0,11.36,0.25,0.19,0.54,0.78,-1.51,1.44,0.01
1900-01-01 15:13:34.158,31.78,24.34,1.22,0.42,0.53,0.75,-0.38,-0.2,-1.22,34.32,10.92,0.25,0.18,0.54,0.77,-1.34,1.13,-0.03
1900-01-01 15:13:34.219,31.71,24.09,1.19,0.41,0.53,0.75,-0.63,-0.07,-1.05,34.14,10.82,0.23,0.18,0.54,0.77,-1.44,1.06,0.12
1900-01-01 15:13:34.315,31.46,24.36,1.19,0.42,0.53,0.76,-0.24,-0.36,-1.44,34.07,11.18,0.24,0.19,0.54,0.78,-1.02,1.21,-0.23
1900-01-01 15:13:34.360,31.63,24.17,1.13,0.41,0.53,0.75,-0.71,0.04,-1.18,34.13,10.89,0.2,0.18,0.54,0.77,-1.47,1.36,-0.07
1900-01-01 15:13:34.455,31.68,24.17,1.11,0.41,0.53,0.75,-0.69,0.1,-1.29,34.17,10.97,0.18,0.18,0.54,0.78,-1.37,1.37,-0.06
1900-01-01 15:13:34.504,31.63,24.14,1.07,0.41,0.53,0.75,-0.66,0.2,-1.5,34.27,10.83,0.16,0.18,0.54,0.77,-1.5,1.33,-0.14
1900-01-01 15:13:34.601,31.63,24.0,1.0,0.41,0.53,0.75,-0.68,0.13,-1.31,34.04,10.87,0.13,0.18,0.54,0.78,-1.4,1.27,-0.03
1900-01-01 15:13:34.695,31.63,23.97,0.96,0.41,0.53,0.76,-0.54,0.11,-1.44,34.28,10.96,0.12,0.18,0.54,0.77,-1.51,1.5,-0.25
1900-01-01 15:13:34.742,31.52,23.87,0.9,0.41,0.52,0.75,-0.55,0.15,-1.42,33.97,10.87,0.07,0.18,0.54,0.78,-1.35,1.37,-0.14
1900-01-01 15:13:34.834,31.7,23.73,0.84,0.41,0.53,0.75,-0.77,0.21,-1.4,34.25,10.83,0.04,0.18,0.54,0.77,-1.4,1.5,-0.13
1900-01-01 15:13:34.882,31.51,23.62,0.79,0.4,0.53,0.76,-0.56,0.02,-1.29,34.06,10.71,0.02,0.18,0.54,0.78,-1.34,1.18,0.0
1900-01-01 15:13:34.978,31.85,23.63,0.75,0.4,0.53,0.76,-0.82,0.16,-1.08,34.03,10.77,0.01,0.18,0.54,0.78,-1.52,1.26,0.11
1900-01-01 15:13:35.075,31.63,23.46,0.74,0.4,0.53,0.76,-0.56,-0.06,-1.03,33.78,10.68,0.02,0.18,0.53,0.78,-1.38,1.33,0.01
1900-01-01 15:13:35.125,31.78,23.71,0.74,0.41,0.53,0.76,-0.54,-0.16,-1.01,34.15,10.89,0.01,0.18,0.54,0.78,-1.41,1.32,0.07
1900-01-01 15:13:35.222,31.72,23.43,0.75,0.4,0.53,0.76,-0.56,-0.16,-1.0,34.14,10.59,0.01,0.18,0.54,0.78,-1.3,1.39,0.0
1900-01-01 15:13:35.264,31.51,23.52,0.76,0.4,0.53,0.76,-0.57,-0.08,-1.09,34.25,10.74,0.0,0.18,0.54,0.78,-1.18,1.46,-0.05
1900-01-01 15:13:35.356,31.62,23.48,0.75,0.4,0.53,0.76,-0.67,-0.11,-1.19,34.03,10.85,-0.01,0.18,0.54,0.78,-1.25,1.29,0.04
1900-01-01 15:13:35.452,31.52,23.53,0.72,0.4,0.53,0.76,-0.63,-0.18,-1.07,33.88,10.74,-0.02,0.18,0.54,0.78,-1.4,1.25,0.0
1900-01-01 15:13:35.499,31.58,23.26,0.72,0.4,0.53,0.76,-0.62,-0.31,-1.21,34.28,10.59,-0.03,0.18,0.54,0.77,-1.27,1.31,0.0
1900-01-01 15:13:35.594,31.47,23.78,0.69,0.41,0.53,0.76,-0.76,-0.36,-1.09,34.0,10.96,-0.03,0.18,0.54,0.78,-1.39,1.37,-0.05
1900-01-01 15:13:35.648,31.52,23.12,0.69,0.39,0.52,0.76,-0.49,-0.54,-1.08,33.72,10.59,-0.05,0.18,0.53,0.78,-1.12,1.15,0.01
1900-01-01 15:13:35.737,31.58,23.56,0.68,0.4,0.53,0.76,-0.71,-0.46,-1.08,33.9,10.91,-0.06,0.18,0.54,0.78,-1.27,1.24,0.08
1900-01-01 15:13:35.797,31.59,23.44,0.68,0.4,0.53,0.76,-0.47,-0.61,-1.0,34.1,10.66,-0.06,0.18,0.54,0.77,-1.21,1.18,0.05
1900-01-01 15:13:35.879,31.44,23.59,0.68,0.4,0.53,0.76,-0.44,-0.72,-0.99,34.18,10.74,-0.06,0.18,0.54,0.78,-1.11,1.06,0.12
1900-01-01 15:13:35.972,31.37,23.83,0.69,0.41,0.53,0.76,-0.42,-0.69,-1.03,34.68,10.77,-0.05,0.18,0.55,0.77,-0.71,1.33,-0.01
1900-01-01 15:13:36.020,31.11,23.5,0.69,0.4,0.52,0.76,-0.57,-0.44,-1.02,33.53,10.69,-0.05,0.18,0.53,0.78,-1.01,1.39,-0.11
1900-01-01 15:13:36.115,31.39,23.69,0.69,0.4,0.52,0.76,-0.55,-0.43,-1.15,34.01,11.03,-0.08,0.18,0.54,0.78,-1.11,1.05,0.21
1900-01-01 15:13:36.209,31.84,24.03,0.68,0.41,0.53,0.75,-0.44,-0.44,-0.68,34.82,10.9,-0.06,0.18,0.55,0.77,-1.37,1.19,0.21
1900-01-01 15:13:36.256,31.44,23.32,0.73,0.4,0.52,0.76,0.07,-0.85,-1.13,33.7,10.54,-0.03,0.17,0.53,0.77,-0.72,1.36,-0.31
1900-01-01 15:13:36.367,31.55,24.05,0.72,0.41,0.53,0.76,-0.74,-0.28,-1.02,34.33,11.29,-0.09,0.19,0.55,0.78,-1.23,1.31,0.21
1900-01-01 15:13:36.416,31.59,23.86,0.72,0.41,0.53,0.75,-0.56,-0.21,-0.98,34.07,10.94,-0.06,0.18,0.54,0.78,-1.46,1.37,0.05
1900-01-01 15:13:36.508,31.88,23.42,0.73,0.4,0.53,0.75,-0.29,-0.48,-0.82,34.25,10.57,-0.06,0.18,0.54,0.77,-1.08,1.08,0.1
1900-01-01 15:13:36.555,31.62,24.0,0.76,0.41,0.53,0.76,-0.44,-0.4,-0.98,34.41,11.14,-0.06,0.19,0.55,0.77,-1.08,1.34,0.09
1900-01-01 15:13:36.650,31.67,23.68,0.77,0.41,0.53,0.76,-0.32,-0.4,-1.09,34.49,10.56,-0.05,0.18,0.54,0.77,-1.13,1.37,-0.13
1900-01-01 15:13:36.744,31.44,23.7,0.77,0.4,0.52,0.76,-0.4,-0.36,-1.07,33.97,10.94,-0.08,0.18,0.54,0.78,-1.11,1.13,0.09
1900-01-01 15:13:36.792,31.25,24.17,0.76,0.42,0.53,0.76,-0.6,-0.24,-1.11,34.1,11.38,-0.07,0.19,0.54,0.78,-1.24,1.35,0.01
1900-01-01 15:13:36.892,31.88,23.39,0.75,0.4,0.53,0.75,-0.78,-0.16,-0.94,33.91,10.61,-0.08,0.18,0.53,0.77,-1.47,1.31,0.06
1900-01-01 15:13:36.937,31.63,24.02,0.77,0.41,0.53,0.76,-0.55,-0.21,-0.97,34.26,11.22,-0.08,0.19,0.54,0.77,-1.37,1.26,0.15
1900-01-01 15:13:37.032,31.56,23.7,0.78,0.4,0.53,0.76,-0.49,-0.4,-1.02,34.09,10.76,-0.07,0.18,0.54,0.77,-1.27,1.32,-0.03
1900-01-01 15:13:37.125,31.86,23.72,0.78,0.41,0.53,0.76,-0.36,-0.44,-1.11,34.59,10.8,-0.08,0.18,0.55,0.77,-1.02,1.25,-0.07
1900-01-01 15:13:37.173,31.33,24.01,0.77,0.41,0.53,0.76,-0.75,-0.15,-1.0,33.99,11.16,-0.1,0.19,0.54,0.78,-1.37,1.51,0.03
1900-01-01 15:13:37.267,31.57,23.52,0.77,0.4,0.53,0.76,-0.62,-0.26,-0.95,33.8,10.82,-0.1,0.18,0.53,0.77,-1.29,1.25,0.03
1900-01-01 15:13:37.318,31.51,23.88,0.79,0.41,0.53,0.76,-0.63,-0.2,-0.82,33.92,11.14,-0.11,0.19,0.54,0.78,-1.37,1.15,0.18
1900-01-01 15:13:37.410,31.67,23.59,0.82,0.4,0.53,0.75,-0.55,-0.15,-0.88,34.06,10.76,-0.09,0.18,0.54,0.78,-1.29,1.44,0.05
1900-01-01 15:13:37.503,31.52,23.78,0.84,0.41,0.53,0.76,-0.58,-0.29,-0.89,33.98,11.06,-0.09,0.18,0.54,0.78,-1.12,1.27,0.06
1900-01-01 15:13:37.551,31.62,23.9,0.87,0.41,0.53,0.76,-0.27,-0.6,-1.02,34.41,10.86,-0.09,0.18,0.54,0.77,-1.15,1.11,0.05
1900-01-01 15:13:37.645,31.68,23.7,0.87,0.4,0.53,0.75,-0.53,-0.32,-0.88,33.91,11.02,-0.09,0.18,0.54,0.78,-1.25,1.23,0.16
1900-01-01 15:13:37.699,31.51,23.86,0.9,0.41,0.53,0.76,-0.51,-0.37,-1.02,33.97,11.15,-0.07,0.19,0.54,0.78,-1.28,1.23,0.09
1900-01-01 15:13:37.788,31.71,23.72,0.9,0.41,0.53,0.76,-0.64,-0.14,-0.95,34.17,10.81,-0.07,0.18,0.54,0.77,-1.44,1.33,0.11
1900-01-01 15:13:37.882,31.61,23.94,0.91,0.41,0.53,0.75,-0.59,-0.16,-1.04,33.91,11.1,-0.06,0.19,0.54,0.78,-1.38,1.33,0.05
1900-01-01 15:13:37.928,31.48,23.93,0.91,0.41,0.52,0.75,-0.66,-0.2,-0.95,34.21,10.89,-0.06,0.18,0.54,0.77,-1.41,1.29,0.07
1900-01-01 15:13:38.025,31.55,23.76,0.93,0.41,0.53,0.76,-0.6,-0.04,-1.04,34.02,11.05,-0.06,0.18,0.54,0.78,-1.46,1.42,-0.03
1900-01-01 15:13:38.116,31.5,23.53,0.93,0.4,0.53,0.76,-0.72,0.21,-1.03,33.56,11.16,-0.07,0.18,0.53,0.77,-1.42,1.47,0.05
1900-01-01 15:13:38.165,31.54,23.87,0.93,0.41,0.53,0.76,-0.93,0.27,-0.92,33.77,11.17,-0.07,0.19,0.54,0.78,-1.76,1.41,0.08
1900-01-01 15:13:38.260,31.4,23.19,0.95,0.39,0.52,0.76,-0.4,-0.23,-1.24,33.8,10.54,-0.07,0.18,0.53,0.78,-1.01,1.25,-0.11
1900-01-01 15:13:38.306,31.54,23.99,0.92,0.41,0.53,0.76,-0.87,0.11,-1.08,34.25,11.09,-0.09,0.19,0.54,0.78,-1.31,1.4,0.03
1900-01-01 15:13:38.401,31.22,23.53,0.91,0.4,0.52,0.76,-0.74,-0.1,-1.11,33.14,11.06,-0.1,0.18,0.52,0.78,-1.37,1.43,-0.18
1900-01-01 15:13:38.495,31.73,23.43,0.9,0.4,0.53,0.76,-0.7,-0.01,-1.05,34.04,10.83,-0.13,0.18,0.54,0.78,-1.64,1.11,0.21
1900-01-01 15:13:38.547,31.65,23.51,0.9,0.4,0.53,0.76,-0.63,-0.02,-0.99,34.15,10.73,-0.11,0.18,0.54,0.78,-1.37,1.41,-0.02
1900-01-01 15:13:38.636,31.83,23.53,0.9,0.4,0.53,0.76,-0.62,-0.04,-0.85,34.19,10.73,-0.12,0.18,0.54,0.77,-1.38,1.53,-0.02
1900-01-01 15:13:38.732,31.34,23.32,0.93,0.4,0.52,0.76,-0.49,-0.26,-1.16,33.54,10.8,-0.13,0.18,0.53,0.78,-1.21,1.26,-0.04
1900-01-01 15:13:38.779,31.81,23.38,0.91,0.4,0.53,0.76,-0.6,-0.15,-1.02,34.3,10.65,-0.14,0.18,0.54,0.77,-1.4,1.18,0.12
1900-01-01 15:13:38.872,31.55,23.28,0.92,0.4,0.53,0.76,-0.44,-0.56,-0.82,33.91,10.65,-0.13,0.18,0.54,0.78,-1.16,1.11,0.11
1900-01-01 15:13:38.919,31.43,23.71,0.95,0.41,0.53,0.76,-0.2,-0.85,-1.13,34.2,11.05,-0.13,0.19,0.54,0.78,-1.13,1.14,0.03
1900-01-01 15:13:39.018,31.42,23.41,0.94,0.4,0.53,0.76,-0.62,-0.37,-0.93,33.91,10.78,-0.13,0.18,0.53,0.77,-1.09,1.33,0.06
1900-01-01 15:13:39.117,31.49,23.73,0.95,0.41,0.53,0.76,-0.62,-0.28,-0.8,34.02,11.07,-0.13,0.18,0.54,0.78,-1.31,1.24,0.18
1900-01-01 15:13:39.156,31.35,23.6,0.99,0.4,0.52,0.76,-0.41,-0.67,-0.83,33.39,11.08,-0.11,0.18,0.53,0.78,-1.24,1.03,0.1
1900-01-01 15:13:39.252,31.68,23.66,1.02,0.4,0.53,0.76,-0.39,-0.76,-0.91,34.25,10.97,-0.1,0.18,0.54,0.78,-1.19,1.12,0.21
1900-01-01 15:13:39.299,31.63,23.59,1.04,0.4,0.53,0.76,-0.36,-0.6,-0.89,34.55,10.4,-0.08,0.17,0.55,0.77,-1.05,1.32,-0.01
1900-01-01 15:13:39.393,31.34,23.64,1.06,0.4,0.52,0.76,-0.25,-0.7,-0.97,33.95,10.91,-0.09,0.18,0.54,0.78,-0.97,1.03,0.1
1900-01-01 15:13:39.490,31.18,23.93,1.07,0.41,0.52,0.76,-0.49,-0.54,-0.98,33.69,11.12,-0.08,0.19,0.53,0.78,-1.18,1.23,0.05
1900-01-01 15:13:39.536,31.43,23.6,1.08,0.4,0.52,0.76,-0.55,-0.3,-1.0,33.9,11.04,-0.08,0.18,0.53,0.77,-1.26,1.18,0.18
1900-01-01 15:13:39.629,31.65,23.92,1.09,0.41,0.53,0.76,-0.65,-0.25,-0.98,33.97,11.05,-0.07,0.18,0.54,0.78,-1.41,1.34,0.09
1900-01-01 15:13:39.676,31.49,23.67,1.1,0.4,0.53,0.76,-0.49,-0.41,-1.07,33.92,10.87,-0.06,0.18,0.53,0.77,-1.08,1.27,-0.02
1900-01-01 15:13:39.771,31.74,23.98,1.09,0.41,0.53,0.76,-0.55,-0.38,-0.94,34.11,11.15,-0.07,0.19,0.54,0.78,-1.3,1.21,0.08
1900-01-01 15:13:39.866,31.58,23.68,1.11,0.4,0.53,0.76,-0.6,-0.23,-1.08,34.01,10.81,-0.07,0.18,0.54,0.77,-1.3,1.4,0.01
1900-01-01 15:13:39.914,31.53,23.87,1.1,0.41,0.53,0.76,-0.62,-0.26,-1.01,34.1,11.06,-0.08,0.19,0.54,0.78,-1.27,1.34,0.05
1900-01-01 15:13:40.009,31.44,23.81,1.11,0.41,0.53,0.76,-0.48,-0.37,-0.91,33.96,10.98,-0.08,0.18,0.54,0.77,-1.22,1.28,-0.03
1900-01-01 15:13:40.059,31.52,23.77,1.13,0.41,0.53,0.76,-0.48,-0.29,-0.98,33.93,10.99,-0.09,0.18,0.54,0.78,-1.3,1.27,0.09
1900-01-01 15:13:40.150,31.54,23.9,1.14,0.41,0.52,0.75,-0.49,-0.27,-0.98,34.21,10.96,-0.09,0.18,0.54,0.77,-1.27,1.2,0.09
1900-01-01 15:13:40.255,31.51,23.8,1.15,0.41,0.53,0.76,-0.44,-0.41,-1.03,33.92,11.06,-0.08,0.18,0.54,0.78,-1.24,1.18,0.02
1900-01-01 15:13:40.297,31.48,23.82,1.15,0.41,0.53,0.76,-0.69,-0.27,-0.95,33.87,10.99,-0.09,0.18,0.54,0.78,-1.25,1.36,0.05
1900-01-01 15:13:40.390,31.57,23.85,1.16,0.41,0.53,0.76,-0.73,-0.17,-0.97,33.84,11.03,-0.09,0.18,0.54,0.78,-1.37,1.25,0.13
1900-01-01 15:13:40.484,31.59,23.79,1.17,0.41,0.53,0.76,-0.6,-0.25,-1.01,33.85,10.91,-0.08,0.18,0.54,0.78,-1.37,1.28,0.05
1900-01-01 15:13:40.529,31.52,23.83,1.17,0.41,0.53,0.76,-0.51,-0.22,-0.98,33.94,10.97,-0.08,0.18,0.54,0.78,-1.28,1.34,0.08
1900-01-01 15:13:40.626,31.52,23.93,1.18,0.41,0.53,0.75,-0.48,-0.44,-0.87,33.95,11.05,-0.07,0.18,0.54,0.78,-1.25,1.14,0.05
1900-01-01 15:13:40.672,31.47,23.82,1.21,0.41,0.53,0.76,-0.47,-0.23,-1.05,33.93,11.11,-0.07,0.19,0.54,0.78,-1.47,1.28,0.03
1900-01-01 15:13:40.765,31.64,23.81,1.21,0.41,0.53,0.75,-0.66,-0.02,-1.02,34.14,11.03,-0.08,0.18,0.54,0.77,-1.42,1.33,0.17
1900-01-01 15:13:40.860,31.55,23.77,1.21,0.41,0.53,0.76,-0.45,-0.31,-1.09,34.05,10.78,-0.06,0.18,0.54,0.78,-1.33,1.24,0.02
1900-01-01 15:13:40.907,31.35,23.95,1.2,0.41,0.52,0.76,-0.41,-0.41,-0.95,33.95,11.07,-0.06,0.18,0.54,0.78,-1.11,1.18,0.0
1900-01-01 15:13:41.002,31.5,23.89,1.22,0.41,0.53,0.76,-0.47,-0.49,-0.85,34.04,11.02,-0.07,0.18,0.54,0.78,-1.02,1.22,-0.01
1900-01-01 15:13:41.049,31.66,23.82,1.25,0.41,0.53,0.76,-0.41,-0.4,-1.07,33.94,11.15,-0.08,0.19,0.54,0.78,-1.35,1.28,0.02
1900-01-01 15:13:41.145,31.39,23.85,1.24,0.41,0.52,0.76,-0.82,0.19,-1.15,33.79,11.12,-0.09,0.19,0.53,0.78,-1.4,1.57,0.05
1900-01-01 15:13:41.238,31.61,23.82,1.23,0.41,0.53,0.75,-0.66,0.04,-0.79,34.11,10.99,-0.09,0.18,0.54,0.77,-1.42,1.34,0.07
1900-01-01 15:13:41.285,31.6,23.82,1.26,0.41,0.53,0.76,-0.38,-0.32,-0.97,34.06,10.91,-0.09,0.18,0.54,0.78,-1.28,1.31,-0.06
1900-01-01 15:13:41.386,31.48,23.57,1.27,0.4,0.53,0.76,-0.82,0.17,-1.28,33.92,10.93,-0.1,0.18,0.54,0.78,-1.53,1.61,0.05
1900-01-01 15:13:41.472,31.42,23.81,1.24,0.41,0.52,0.75,-0.69,0.1,-0.98,33.84,11.04,-0.1,0.18,0.54,0.78,-1.42,1.32,0.06
1900-01-01 15:13:41.519,31.31,23.79,1.25,0.41,0.52,0.76,-0.32,-0.38,-0.87,33.87,11.04,-0.1,0.18,0.54,0.78,-1.15,1.17,-0.14
1900-01-01 15:13:41.619,31.51,23.63,1.27,0.41,0.53,0.76,-0.79,-0.05,-0.94,33.87,10.86,-0.13,0.18,0.54,0.78,-1.47,1.34,0.11
1900-01-01 15:13:41.661,31.39,23.67,1.29,0.4,0.52,0.76,-0.87,0.24,-1.46,33.75,10.95,-0.12,0.18,0.53,0.78,-1.5,1.68,-0.02
1900-01-01 15:13:41.755,31.29,23.75,1.22,0.4,0.52,0.76,-0.5,-0.21,-0.89,33.88,10.89,-0.14,0.18,0.54,0.78,-1.15,1.26,-0.06
1900-01-01 15:13:41.849,31.55,23.58,1.25,0.4,0.53,0.76,-0.5,-0.52,-0.79,33.8,10.82,-0.15,0.18,0.54,0.78,-1.15,1.3,-0.02
1900-01-01 15:13:41.895,31.48,23.45,1.29,0.4,0.53,0.76,-0.64,-0.05,-1.18,33.79,10.82,-0.17,0.18,0.54,0.78,-1.47,1.29,0.13
1900-01-01 15:13:42.002,31.13,23.74,1.26,0.41,0.52,0.76,-0.76,0.04,-1.07,33.72,10.94,-0.15,0.18,0.53,0.78,-1.31,1.49,-0.02
1900-01-01 15:13:42.037,31.37,23.53,1.26,0.4,0.53,0.76,-0.52,-0.24,-0.96,33.96,10.71,-0.17,0.18,0.54,0.78,-1.24,1.4,-0.1
1900-01-01 15:13:42.131,31.35,23.37,1.27,0.4,0.53,0.77,-0.72,-0.13,-1.2,33.55,11.14,-0.19,0.19,0.53,0.78,-1.34,1.38,0.08
1900-01-01 15:13:42.228,31.34,23.53,1.25,0.4,0.52,0.76,-0.6,-0.05,-1.02,33.83,10.9,-0.19,0.18,0.54,0.78,-1.25,1.05,0.08
1900-01-01 15:13:42.274,31.74,23.36,1.25,0.4,0.53,0.76,-0.52,-0.33,-0.95,33.95,10.67,-0.18,0.18,0.54,0.78,-1.2,1.0,0.07
1900-01-01 15:13:42.372,31.43,23.5,1.26,0.4,0.52,0.76,-0.61,-0.45,-1.24,33.87,10.8,-0.18,0.18,0.54,0.78,-1.33,1.24,0.08
1900-01-01 15:13:42.419,31.23,23.69,1.23,0.4,0.52,0.76,-0.38,-0.62,-0.97,33.69,10.98,-0.18,0.18,0.53,0.78,-1.2,1.0,-0.02
1900-01-01 15:13:42.505,31.51,23.41,1.24,0.4,0.53,0.76,-0.47,-0.56,-0.77,33.77,10.86,-0.19,0.18,0.53,0.78,-1.31,0.91,0.21
1900-01-01 15:13:42.592,31.45,23.53,1.28,0.4,0.53,0.76,-0.69,-0.31,-1.07,33.81,10.85,-0.16,0.18,0.54,0.78,-1.21,1.32,0.07
1900-01-01 15:13:42.686,31.44,23.76,1.28,0.41,0.53,0.76,-0.69,-0.47,-0.91,33.83,11.06,-0.16,0.18,0.54,0.78,-1.26,1.12,0.15
1900-01-01 15:13:42.733,31.42,23.75,1.3,0.41,0.53,0.76,-0.24,-0.95,-0.89,33.97,11.04,-0.15,0.18,0.54,0.77,-1.11,0.96,-0.01
1900-01-01 15:13:42.829,31.48,23.59,1.32,0.41,0.53,0.76,-0.52,-0.55,-0.95,34.16,11.05,-0.16,0.18,0.54,0.77,-1.13,1.38,0.14
1900-01-01 15:13:42.877,31.43,23.77,1.33,0.41,0.53,0.76,-0.68,-0.24,-0.96,33.85,11.2,-0.14,0.19,0.54,0.78,-1.2,1.38,0.16
1900-01-01 15:13:42.971,31.49,23.82,1.35,0.41,0.52,0.75,-0.4,-0.6,-0.79,33.93,11.11,-0.13,0.19,0.54,0.78,-1.1,1.12,0.08
1900-01-01 15:13:43.066,31.53,23.76,1.38,0.41,0.53,0.76,-0.31,-0.71,-1.03,34.1,11.04,-0.12,0.18,0.54,0.78,-1.11,1.14,0.11
1900-01-01 15:13:43.113,31.22,23.83,1.38,0.41,0.52,0.76,-0.66,-0.31,-1.16,33.7,11.25,-0.12,0.19,0.53,0.78,-1.31,1.34,0.06
1900-01-01 15:13:43.207,31.49,23.85,1.37,0.41,0.52,0.75,-0.49,-0.45,-0.84,33.86,11.12,-0.12,0.19,0.54,0.78,-1.27,1.11,0.11
1900-01-01 15:13:43.302,31.54,23.78,1.4,0.41,0.53,0.76,-0.44,-0.43,-0.93,33.82,11.08,-0.11,0.18,0.54,0.78,-1.23,1.32,0.06
1900-01-01 15:13:43.349,31.44,23.82,1.41,0.41,0.53,0.76,-0.53,-0.29,-0.98,33.78,11.27,-0.11,0.19,0.53,0.78,-1.2,1.27,0.07
1900-01-01 15:13:43.444,31.56,23.97,1.42,0.41,0.53,0.76,-0.48,-0.39,-0.85,34.05,11.22,-0.1,0.19,0.54,0.78,-1.24,1.25,0.06
1900-01-01 15:13:43.495,31.6,23.8,1.45,0.41,0.53,0.76,-0.53,-0.4,-1.05,33.92,11.06,-0.1,0.18,0.54,0.78,-1.39,1.15,0.13
1900-01-01 15:13:43.586,31.45,24.0,1.45,0.41,0.53,0.76,-0.56,-0.24,-1.06,34.04,11.14,-0.09,0.19,0.54,0.78,-1.28,1.3,0.05
1900-01-01 15:13:43.681,31.54,23.81,1.45,0.41,0.53,0.76,-0.56,-0.16,-0.99,33.99,11.0,-0.09,0.18,0.54,0.78,-1.33,1.43,0.02
1900-01-01 15:13:43.727,31.42,23.93,1.45,0.41,0.53,0.76,-0.58,-0.27,-1.0,33.96,11.16,-0.1,0.19,0.54,0.77,-1.22,1.35,0.02
1900-01-01 15:13:43.824,31.51,23.77,1.46,0.41,0.53,0.76,-0.32,-0.5,-1.0,33.91,11.26,-0.1,0.19,0.53,0.77,-1.16,1.13,-0.02
1900-01-01 15:13:43.870,31.38,23.82,1.47,0.41,0.53,0.76,-0.63,-0.19,-1.04,33.68,11.25,-0.11,0.19,0.53,0.78,-1.4,1.36,0.09
1900-01-01 15:13:43.965,31.67,23.91,1.47,0.41,0.53,0.75,-0.6,-0.29,-0.89,33.88,11.13,-0.11,0.19,0.54,0.78,-1.35,1.18,0.09
1900-01-01 15:13:44.028,31.41,23.97,1.49,0.41,0.52,0.76,-0.31,-0.44,-0.93,33.88,11.05,-0.1,0.18,0.54,0.78,-1.23,1.25,0.05
1900-01-01 15:13:44.124,31.58,24.0,1.51,0.41,0.53,0.76,-0.5,-0.33,-0.91,33.98,11.24,-0.1,0.19,0.54,0.78,-1.2,1.29,0.04
1900-01-01 15:13:44.215,31.53,24.01,1.53,0.41,0.53,0.75,-0.57,-0.09,-1.16,34.12,11.15,-0.11,0.19,0.54,0.77,-1.4,1.28,0.08
1900-01-01 15:13:44.262,31.57,23.77,1.51,0.41,0.53,0.76,-1.11,0.5,-1.58,33.47,11.38,-0.1,0.19,0.53,0.78,-1.55,1.75,-0.15
1900-01-01 15:13:44.361,31.36,23.93,1.42,0.41,0.52,0.75,-0.92,0.11,-1.21,33.76,11.05,-0.13,0.18,0.53,0.78,-1.1,1.6,-0.12
1900-01-01 15:13:44.404,31.66,23.8,1.4,0.41,0.53,0.75,-0.32,-1.02,-0.39,34.08,11.06,-0.16,0.19,0.54,0.78,-1.19,0.7,0.11
1900-01-01 15:13:44.499,31.57,23.72,1.5,0.41,0.53,0.76,-0.24,-0.6,-0.5,33.98,11.1,-0.15,0.19,0.54,0.78,-1.12,1.17,0.18
1900-01-01 15:13:44.594,31.56,23.89,1.58,0.41,0.53,0.76,-1.05,0.27,-1.08,33.92,11.08,-0.13,0.19,0.54,0.78,-1.5,1.61,0.17
1900-01-01 15:13:44.640,31.19,24.01,1.57,0.41,0.52,0.76,-0.63,0.27,-1.44,33.87,11.13,-0.11,0.19,0.54,0.78,-1.41,1.66,-0.24
1900-01-01 15:13:44.735,31.26,23.76,1.51,0.4,0.52,0.76,-0.79,0.03,-1.13,33.7,11.06,-0.16,0.18,0.53,0.78,-1.45,1.47,-0.01
1900-01-01 15:13:44.782,31.36,23.83,1.5,0.41,0.52,0.76,-0.51,-0.18,-1.14,33.9,11.06,-0.17,0.19,0.54,0.78,-1.27,1.37,-0.12
1900-01-01 15:13:44.877,31.39,23.7,1.48,0.41,0.53,0.76,-0.79,0.02,-1.03,33.91,10.93,-0.2,0.18,0.54,0.78,-1.31,1.52,-0.01
1900-01-01 15:13:44.975,31.28,23.64,1.49,0.4,0.52,0.76,-0.75,0.03,-1.08,33.89,10.94,-0.21,0.18,0.54,0.78,-1.28,1.46,0.02
1900-01-01 15:13:45.020,31.51,23.54,1.48,0.4,0.53,0.76,-0.45,-0.31,-0.96,33.95,10.86,-0.21,0.18,0.54,0.78,-1.24,1.24,-0.02
1900-01-01 15:13:45.114,31.44,23.64,1.49,0.41,0.53,0.76,-0.44,-0.35,-1.1,33.86,11.04,-0.22,0.18,0.54,0.78,-1.18,1.34,-0.03
1900-01-01 15:13:45.161,31.25,23.62,1.48,0.4,0.52,0.76,-0.54,-0.08,-1.04,33.89,10.88,-0.24,0.18,0.54,0.78,-1.31,1.31,0.02
1900-01-01 15:13:45.255,31.36,23.58,1.48,0.4,0.52,0.76,-0.65,-0.15,-0.99,33.87,10.96,-0.24,0.18,0.54,0.78,-1.34,1.33,0.08
1900-01-01 15:13:45.490,31.36,23.6,1.49,0.4,0.52,0.76,-0.53,-0.31,-1.03,33.72,10.85,-0.24,0.18,0.53,0.78,-1.32,1.3,0.02
1900-01-01 15:13:45.490,31.46,23.64,1.49,0.41,0.53,0.76,-0.51,-0.56,-0.98,33.9,11.02,-0.24,0.18,0.54,0.78,-1.24,1.16,0.08
1900-01-01 15:13:45.490,31.4,23.69,1.5,0.41,0.53,0.76,-0.6,-0.39,-1.02,33.75,11.0,-0.24,0.18,0.53,0.78,-1.34,1.3,0.08
1900-01-01 15:13:45.570,31.44,23.74,1.5,0.4,0.52,0.76,-0.56,-0.54,-0.97,33.81,10.96,-0.24,0.18,0.53,0.78,-1.22,1.12,0.08
1900-01-01 15:13:45.663,31.35,23.7,1.51,0.41,0.53,0.76,-0.48,-0.71,-0.89,33.84,10.89,-0.23,0.18,0.54,0.78,-1.19,1.09,0.15
1900-01-01 15:13:45.718,31.38,23.86,1.53,0.41,0.53,0.76,-0.45,-0.6,-0.9,33.81,11.13,-0.22,0.19,0.53,0.77,-1.09,1.21,0.1
1900-01-01 15:13:45.806,31.53,23.78,1.56,0.41,0.53,0.76,-0.49,-0.59,-0.87,33.96,11.14,-0.21,0.19,0.54,0.78,-1.23,1.1,0.2
1900-01-01 15:13:45.851,31.45,23.84,1.58,0.41,0.53,0.76,-0.3,-0.65,-1.01,34.03,11.04,-0.19,0.18,0.54,0.78,-1.23,1.05,0.11
1900-01-01 15:13:45.951,31.32,23.9,1.59,0.41,0.52,0.76,-0.39,-0.55,-0.95,33.9,11.12,-0.18,0.19,0.54,0.78,-1.16,1.21,0.11
1900-01-01 15:13:46.042,31.35,23.88,1.6,0.41,0.53,0.76,-0.41,-0.48,-0.92,34.03,11.06,-0.18,0.18,0.54,0.78,-1.12,1.24,0.09
1900-01-01 15:13:46.086,31.38,24.03,1.62,0.41,0.53,0.76,-0.46,-0.49,-0.9,33.93,11.27,-0.17,0.19,0.54,0.78,-1.18,1.24,0.11
1900-01-01 15:13:46.182,31.5,23.96,1.64,0.41,0.53,0.75,-0.36,-0.47,-0.83,33.82,11.11,-0.16,0.19,0.53,0.78,-1.21,1.08,0.21
1900-01-01 15:13:46.230,31.62,24.12,1.67,0.41,0.53,0.75,-0.36,-0.6,-0.92,34.0,11.18,-0.14,0.19,0.54,0.78,-1.15,1.18,0.06
1900-01-01 15:13:46.323,31.5,23.95,1.69,0.41,0.53,0.76,-0.5,-0.37,-0.95,33.93,11.14,-0.14,0.19,0.54,0.77,-1.33,1.36,0.1
1900-01-01 15:13:46.418,31.63,24.19,1.7,0.41,0.53,0.75,-0.47,-0.32,-0.91,34.03,11.29,-0.13,0.19,0.54,0.77,-1.27,1.18,0.14
1900-01-01 15:13:46.465,31.42,24.06,1.72,0.41,0.52,0.75,-0.43,-0.34,-0.87,33.88,11.07,-0.12,0.18,0.54,0.78,-1.24,1.18,0.11
1900-01-01 15:13:46.563,31.57,24.03,1.75,0.41,0.53,0.76,-0.52,-0.33,-0.94,34.0,11.21,-0.11,0.19,0.54,0.78,-1.27,1.27,0.08
1900-01-01 15:13:46.658,31.49,24.26,1.76,0.41,0.53,0.75,-0.55,-0.37,-0.94,34.02,11.3,-0.1,0.19,0.54,0.77,-1.24,1.23,0.05
1900-01-01 15:13:46.709,31.63,24.17,1.78,0.41,0.53,0.75,-0.47,-0.37,-1.02,33.99,11.22,-0.11,0.19,0.54,0.78,-1.33,1.1,0.11
1900-01-01 15:13:46.799,31.56,24.13,1.78,0.41,0.53,0.75,-0.58,-0.27,-0.92,34.03,11.32,-0.1,0.19,0.54,0.77,-1.24,1.3,0.08
1900-01-01 15:13:46.846,31.57,24.14,1.8,0.41,0.53,0.75,-0.55,-0.27,-0.95,34.02,11.18,-0.09,0.19,0.54,0.77,-1.2,1.36,0.04
1900-01-01 15:13:46.945,31.53,24.16,1.81,0.41,0.53,0.75,-0.53,-0.27,-1.01,34.05,11.22,-0.1,0.19,0.54,0.77,-1.26,1.26,0.1
1900-01-01 15:13:47.036,31.39,24.26,1.82,0.41,0.52,0.75,-0.56,-0.26,-0.98,34.06,11.14,-0.09,0.19,0.54,0.77,-1.34,1.24,0.11
1900-01-01 15:13:47.086,31.43,24.26,1.83,0.42,0.53,0.76,-0.38,-0.53,-0.87,34.07,11.24,-0.08,0.19,0.54,0.78,-1.16,1.16,0.02
1900-01-01 15:13:47.176,31.49,24.2,1.85,0.42,0.53,0.76,-0.48,-0.4,-0.97,33.86,11.39,-0.09,0.19,0.54,0.78,-1.27,1.39,0.03
1900-01-01 15:13:47.222,31.65,24.25,1.86,0.41,0.53,0.75,-0.79,-0.16,-0.95,34.1,11.24,-0.09,0.19,0.54,0.77,-1.4,1.35,0.11
1900-01-01 15:13:47.315,31.58,24.35,1.88,0.42,0.53,0.75,-0.62,-0.17,-1.02,34.01,11.27,-0.08,0.19,0.54,0.77,-1.25,1.44,-0.08
1900-01-01 15:13:47.411,31.47,24.25,1.88,0.41,0.53,0.75,-0.58,-0.09,-0.9,34.04,11.24,-0.1,0.19,0.54,0.77,-1.3,1.4,0.03
1900-01-01 15:13:47.459,31.49,24.19,1.9,0.41,0.53,0.75,-0.62,-0.02,-1.05,34.08,11.17,-0.11,0.19,0.54,0.78,-1.3,1.4,0.02
1900-01-01 15:13:47.552,31.6,24.06,1.9,0.41,0.53,0.75,-0.6,-0.15,-1.05,34.04,11.04,-0.11,0.18,0.54,0.78,-1.38,1.34,-0.05
1900-01-01 15:13:47.600,31.42,24.17,1.9,0.41,0.53,0.76,-0.64,-0.05,-1.05,33.98,11.22,-0.13,0.19,0.54,0.78,-1.35,1.5,-0.02
1900-01-01 15:13:47.690,31.44,24.15,1.9,0.41,0.53,0.75,-0.65,0.05,-1.02,33.83,11.17,-0.14,0.19,0.53,0.78,-1.41,1.37,0.05
1900-01-01 15:13:47.784,31.48,23.98,1.9,0.41,0.53,0.76,-0.72,0.05,-1.06,33.94,11.01,-0.14,0.18,0.54,0.78,-1.45,1.4,0.03
1900-01-01 15:13:47.834,31.57,23.97,1.9,0.41,0.53,0.76,-0.86,-0.02,-1.02,33.9,10.98,-0.14,0.18,0.54,0.78,-1.42,1.5,-0.01
1900-01-01 15:13:47.925,31.4,24.01,1.9,0.41,0.53,0.76,-0.66,-0.02,-1.08,33.97,11.1,-0.15,0.19,0.54,0.78,-1.39,1.4,-0.02
1900-01-01 15:13:48.022,31.49,23.84,1.9,0.41,0.53,0.76,-0.62,-0.18,-1.08,33.83,11.07,-0.17,0.18,0.54,0.78,-1.34,1.27,0.03
1900-01-01 15:13:48.071,31.35,23.89,1.89,0.41,0.52,0.76,-0.6,0.06,-1.15,33.85,11.02,-0.17,0.18,0.53,0.78,-1.33,1.58,-0.1
1900-01-01 15:13:48.162,31.38,23.84,1.87,0.41,0.53,0.76,-0.62,0.02,-0.95,33.68,11.17,-0.19,0.19,0.53,0.78,-1.38,1.38,0.08
1900-01-01 15:13:48.207,31.28,23.86,1.88,0.41,0.52,0.76,-0.39,-0.21,-0.99,33.69,11.11,-0.19,0.19,0.53,0.78,-1.34,1.2,0.07
1900-01-01 15:13:48.300,31.56,23.72,1.89,0.41,0.53,0.76,-0.39,-0.39,-0.97,33.98,10.79,-0.19,0.18,0.54,0.78,-1.28,1.19,0.07
1900-01-01 15:13:48.395,31.45,23.89,1.9,0.41,0.53,0.76,-0.45,-0.43,-1.05,33.99,10.97,-0.19,0.18,0.54,0.78,-1.18,1.32,-0.02
1900-01-01 15:13:48.441,31.32,23.78,1.9,0.41,0.52,0.76,-0.51,-0.51,-1.01,33.78,11.12,-0.2,0.19,0.53,0.78,-1.27,1.19,0.11
1900-01-01 15:13:48.575,31.45,23.88,1.9,0.41,0.53,0.76,-0.47,-0.45,-0.95,33.78,11.16,-0.19,0.19,0.54,0.78,-1.2,1.22,0.11
1900-01-01 15:13:48.615,31.46,23.82,1.92,0.41,0.53,0.76,-0.55,-0.43,-0.92,33.83,11.08,-0.18,0.18,0.53,0.78,-1.19,1.21,0.1
1900-01-01 15:13:48.712,31.35,24.01,1.94,0.41,0.52,0.76,-0.44,-0.57,-0.94,33.9,11.12,-0.18,0.19,0.54,0.78,-1.21,1.07,0.19
1900-01-01 15:13:48.756,31.46,23.95,1.95,0.41,0.53,0.76,-0.41,-0.54,-0.98,33.81,11.09,-0.16,0.18,0.53,0.78,-1.27,1.09,0.16
1900-01-01 15:13:48.852,31.37,23.96,1.96,0.41,0.52,0.76,-0.4,-0.51,-0.87,33.87,11.11,-0.14,0.19,0.54,0.78,-1.17,1.12,0.13
1900-01-01 15:13:48.899,31.43,24.11,1.99,0.41,0.53,0.76,-0.39,-0.6,-0.97,33.89,11.21,-0.13,0.19,0.54,0.78,-1.18,1.22,0.03
1900-01-01 15:13:48.994,31.42,23.98,2.0,0.41,0.53,0.76,-0.56,-0.4,-1.05,33.79,11.1,-0.13,0.19,0.53,0.78,-1.37,1.18,0.13
1900-01-01 15:13:49.100,31.45,24.07,2.0,0.41,0.53,0.76,-0.54,-0.42,-1.0,33.93,11.17,-0.12,0.19,0.54,0.78,-1.23,1.24,0.02
1900-01-01 15:13:49.136,31.42,24.16,2.0,0.41,0.53,0.76,-0.52,-0.47,-0.89,33.7,11.29,-0.13,0.19,0.53,0.78,-1.11,1.21,0.03
1900-01-01 15:13:49.230,31.52,24.01,2.02,0.41,0.53,0.76,-0.58,-0.36,-0.94,33.78,11.29,-0.13,0.19,0.54,0.78,-1.2,1.37,0.07
1900-01-01 15:13:49.291,31.57,24.23,2.04,0.41,0.53,0.75,-0.53,-0.41,-0.91,33.78,11.23,-0.13,0.19,0.54,0.78,-1.18,1.18,0.11
1900-01-01 15:13:49.374,31.48,24.14,2.06,0.41,0.53,0.76,-0.26,-0.56,-0.97,33.97,11.19,-0.12,0.19,0.54,0.78,-1.22,1.05,0.08
1900-01-01 15:13:49.468,31.49,24.14,2.07,0.41,0.53,0.75,-0.34,-0.47,-0.89,34.0,11.06,-0.11,0.18,0.54,0.78,-1.15,1.18,0.06
1900-01-01 15:13:49.515,31.46,24.3,2.09,0.42,0.53,0.75,-0.56,-0.29,-1.01,33.72,11.34,-0.11,0.19,0.53,0.78,-1.18,1.34,0.01
1900-01-01 15:13:49.612,31.51,24.1,2.1,0.41,0.53,0.76,-0.77,0.02,-1.27,33.92,11.26,-0.12,0.19,0.54,0.78,-1.4,1.63,0.04
1900-01-01 15:13:49.659,31.39,24.21,2.06,0.41,0.52,0.75,-0.6,-0.14,-0.98,33.85,11.44,-0.12,0.19,0.54,0.77,-1.18,1.4,0.06
1900-01-01 15:13:49.755,31.52,24.24,2.07,0.41,0.53,0.75,-0.03,-0.92,-0.81,33.96,11.23,-0.12,0.19,0.54,0.77,-1.08,0.77,0.17
1900-01-01 15:13:49.848,31.42,24.21,2.11,0.41,0.53,0.76,0.03,-0.96,-0.83,33.98,11.31,-0.11,0.19,0.54,0.78,-0.94,1.06,0.08
1900-01-01 15:13:49.896,31.63,24.34,2.14,0.42,0.53,0.75,-0.46,-0.35,-0.59,34.05,11.28,-0.1,0.19,0.54,0.77,-1.18,1.27,0.24
1900-01-01 15:13:49.991,31.62,24.38,2.21,0.42,0.53,0.75,-0.43,-0.29,-0.77,34.04,11.36,-0.07,0.19,0.54,0.78,-1.29,1.15,0.17
1900-01-01 15:13:50.037,31.61,24.36,2.25,0.42,0.53,0.75,-0.65,-0.44,-0.88,34.11,11.22,-0.06,0.19,0.54,0.77,-1.29,1.12,0.17
1900-01-01 15:13:50.132,31.49,24.49,2.27,0.42,0.53,0.75,-0.68,-0.26,-1.08,33.96,11.35,-0.04,0.19,0.54,0.78,-1.39,1.31,-0.03
1900-01-01 15:13:50.232,31.45,24.42,2.27,0.42,0.53,0.75,-0.7,-0.21,-1.18,33.92,11.41,-0.05,0.19,0.54,0.77,-1.47,1.33,-0.01
1900-01-01 15:13:50.275,31.53,24.28,2.25,0.42,0.53,0.76,-0.75,-0.22,-1.06,33.99,11.39,-0.06,0.19,0.54,0.78,-1.44,1.33,0.02
1900-01-01 15:13:50.368,31.49,24.33,2.24,0.42,0.53,0.75,-0.6,-0.26,-1.08,33.9,11.41,-0.07,0.19,0.54,0.77,-1.24,1.3,-0.09
1900-01-01 15:13:50.463,31.47,24.44,2.24,0.42,0.53,0.75,-0.58,-0.44,-0.98,33.94,11.45,-0.09,0.19,0.54,0.77,-1.22,1.23,-0.01
1900-01-01 15:13:50.511,31.6,24.26,2.25,0.41,0.53,0.75,-0.39,-0.56,-1.03,33.99,11.31,-0.1,0.19,0.54,0.78,-1.15,1.21,0.03
1900-01-01 15:13:50.604,31.45,24.37,2.25,0.42,0.53,0.75,-0.47,-0.4,-0.93,34.02,11.35,-0.1,0.19,0.54,0.77,-1.14,1.26,0.14
1900-01-01 15:13:50.652,31.5,24.39,2.26,0.42,0.53,0.75,-0.54,-0.08,-1.03,34.12,11.41,-0.09,0.19,0.54,0.77,-1.19,1.5,0.09
1900-01-01 15:13:50.748,31.28,24.48,2.27,0.42,0.52,0.75,-0.89,0.53,-0.83,33.85,11.44,-0.08,0.19,0.54,0.77,-1.44,1.73,0.21
1900-01-01 15:13:50.842,31.71,24.37,2.3,0.42,0.53,0.75,-0.87,0.24,-0.72,34.02,11.23,-0.06,0.19,0.54,0.78,-1.37,1.48,0.08
1900-01-01 15:13:50.890,31.49,24.28,2.35,0.41,0.53,0.75,-0.59,-0.14,-1.11,33.84,11.41,-0.06,0.19,0.54,0.78,-1.36,1.31,-0.03
1900-01-01 15:13:50.985,31.51,24.11,2.34,0.41,0.53,0.76,-0.87,0.2,-1.31,33.91,11.21,-0.07,0.19,0.54,0.78,-1.56,1.57,-0.01
1900-01-01 15:13:51.033,31.43,24.28,2.3,0.41,0.52,0.75,-0.84,0.19,-1.22,33.79,11.33,-0.08,0.19,0.53,0.78,-1.47,1.35,-0.06
1900-01-01 15:13:51.125,31.41,23.96,2.27,0.41,0.53,0.76,-0.62,-0.02,-1.18,34.01,11.17,-0.1,0.19,0.54,0.78,-1.36,1.33,-0.11
1900-01-01 15:13:51.220,31.52,24.1,2.25,0.41,0.53,0.75,-0.71,0.1,-1.14,33.93,11.19,-0.12,0.19,0.54,0.78,-1.56,1.3,-0.05
1900-01-01 15:13:51.267,31.48,23.92,2.23,0.41,0.53,0.75,-0.69,-0.01,-1.35,33.84,11.08,-0.14,0.18,0.53,0.78,-1.47,1.26,-0.1
1900-01-01 15:13:51.363,31.4,23.94,2.18,0.41,0.52,0.76,-0.55,-0.14,-1.36,33.84,11.07,-0.16,0.18,0.54,0.78,-1.24,1.34,-0.1
1900-01-01 15:13:51.409,31.38,23.95,2.13,0.41,0.53,0.76,-0.76,0.15,-1.08,33.77,11.19,-0.18,0.19,0.53,0.78,-1.28,1.54,-0.01
1900-01-01 15:13:51.502,31.47,23.86,2.13,0.41,0.53,0.76,-0.61,0.14,-1.2,33.78,11.2,-0.19,0.19,0.54,0.78,-1.38,1.34,-0.1
1900-01-01 15:13:51.596,31.52,23.74,2.1,0.4,0.52,0.75,-0.54,-0.19,-0.95,33.75,11.07,-0.22,0.18,0.53,0.78,-1.44,1.25,0.1
1900-01-01 15:13:51.642,31.48,23.74,2.12,0.41,0.53,0.76,-0.35,-0.35,-1.21,33.9,10.96,-0.21,0.18,0.54,0.78,-1.21,1.36,-0.11
1900-01-01 15:13:51.736,31.31,23.83,2.09,0.41,0.52,0.76,-0.52,-0.24,-1.08,33.81,11.13,-0.24,0.19,0.54,0.78,-1.21,1.26,0.06
1900-01-01 15:13:51.832,31.47,23.78,2.08,0.4,0.52,0.75,-0.62,-0.23,-0.91,33.83,11.06,-0.24,0.18,0.54,0.78,-1.19,1.34,0.08
1900-01-01 15:13:51.992,31.47,23.86,2.1,0.41,0.53,0.76,-0.41,-0.57,-1.02,33.94,10.99,-0.23,0.18,0.54,0.78,-1.23,1.16,0.02
1900-01-01 15:13:51.992,31.38,23.93,2.11,0.41,0.52,0.76,-0.44,-0.58,-1.06,33.8,11.17,-0.24,0.19,0.54,0.78,-1.21,1.13,0.08
1900-01-01 15:13:52.039,31.56,23.81,2.1,0.41,0.53,0.76,-0.68,-0.26,-0.96,33.8,11.18,-0.24,0.19,0.53,0.78,-1.37,1.18,0.15
1900-01-01 15:13:52.134,31.6,23.77,2.12,0.41,0.53,0.76,-0.66,-0.29,-1.06,33.82,11.05,-0.22,0.18,0.54,0.78,-1.24,1.36,0.0
1900-01-01 15:13:52.180,31.28,23.96,2.11,0.41,0.52,0.76,-0.53,-0.2,-0.98,33.69,11.22,-0.23,0.19,0.53,0.78,-1.21,1.39,-0.02
1900-01-01 15:13:53.392,31.47,23.82,2.12,0.41,0.53,0.76,-0.5,-0.2,-1.02,33.97,11.22,-0.24,0.19,0.54,0.78,-1.17,1.23,-0.01
1900-01-01 15:13:53.392,31.54,23.81,2.12,0.41,0.53,0.75,-0.56,-0.32,-0.9,33.87,11.05,-0.25,0.18,0.54,0.78,-1.23,1.24,0.01
1900-01-01 15:13:53.392,31.78,23.63,2.14,0.41,0.53,0.76,-0.69,-0.44,-1.24,33.9,11.13,-0.26,0.19,0.54,0.78,-1.36,1.4,-0.09
1900-01-01 15:13:53.392,31.13,23.96,2.11,0.41,0.52,0.76,-0.73,0.08,-1.73,33.63,11.46,-0.28,0.19,0.53,0.78,-1.31,1.6,-0.29
1900-01-01 15:13:53.392,31.44,23.43,2.01,0.4,0.52,0.76,-0.36,0.21,-1.69,33.65,10.81,-0.33,0.18,0.53,0.78,-1.27,1.41,-0.14
1900-01-01 15:13:53.392,31.52,23.52,1.91,0.4,0.53,0.76,-0.4,0.15,-1.89,33.78,11.05,-0.36,0.18,0.53,0.78,-0.94,1.53,-0.21
1900-01-01 15:13:53.392,31.43,23.74,1.78,0.4,0.52,0.75,-0.38,-0.72,-0.92,33.69,11.14,-0.4,0.19,0.53,0.78,-1.18,0.76,-0.02
1900-01-01 15:13:53.392,31.66,23.65,1.8,0.41,0.53,0.76,-0.79,-1.01,-0.37,33.97,10.98,-0.42,0.18,0.54,0.78,-1.27,0.95,0.37
1900-01-01 15:13:53.392,31.75,23.74,1.9,0.41,0.53,0.76,-0.56,-0.43,-0.68,34.06,11.16,-0.37,0.19,0.54,0.78,-1.42,1.18,0.21
1900-01-01 15:13:53.392,31.49,23.59,1.95,0.4,0.52,0.76,-0.89,-0.1,-0.6,33.79,11.2,-0.35,0.19,0.53,0.78,-1.54,1.23,0.55
1900-01-01 15:13:53.392,31.61,23.87,2.02,0.41,0.53,0.76,-0.56,-0.63,-0.69,33.82,11.32,-0.27,0.19,0.54,0.78,-1.2,1.2,0.14
1900-01-01 15:13:53.392,31.3,23.81,2.07,0.41,0.52,0.76,-0.32,-0.98,-0.79,33.69,11.16,-0.26,0.19,0.53,0.78,-1.15,1.04,0.06
1900-01-01 15:13:53.392,31.58,24.0,2.11,0.41,0.53,0.75,-0.43,-0.99,-0.62,33.76,11.28,-0.26,0.19,0.54,0.78,-1.4,0.82,0.21
1900-01-01 15:13:53.392,31.25,24.15,2.18,0.41,0.52,0.76,-0.29,-0.05,-1.03,33.65,11.33,-0.23,0.19,0.53,0.78,-1.3,1.53,-0.18
1900-01-01 15:13:53.392,31.79,23.7,2.18,0.4,0.53,0.75,-1.05,0.15,-0.94,34.07,11.06,-0.27,0.18,0.54,0.77,-1.33,1.21,0.43
1900-01-01 15:13:53.422,31.4,24.26,2.19,0.42,0.53,0.76,-0.24,0.09,-1.41,33.84,11.45,-0.21,0.19,0.54,0.78,-1.19,1.52,-0.19
1900-01-01 15:13:53.477,31.54,23.71,2.14,0.4,0.52,0.75,-0.56,-0.09,-0.51,33.78,10.92,-0.25,0.18,0.53,0.78,-1.22,1.31,0.29
1900-01-01 15:13:53.734,31.65,24.2,2.22,0.42,0.53,0.76,0.04,-0.85,-1.34,34.03,11.42,-0.21,0.19,0.54,0.78,-1.1,0.92,-0.03
1900-01-01 15:13:53.734,31.22,23.79,2.17,0.41,0.52,0.76,-0.34,-0.38,-0.66,33.77,11.2,-0.23,0.19,0.53,0.78,-1.28,1.39,0.11
1900-01-01 15:13:53.734,31.75,23.95,2.23,0.41,0.53,0.75,-0.89,-0.01,-0.69,34.06,11.2,-0.22,0.19,0.54,0.78,-1.28,1.18,0.33
1900-01-01 15:13:53.776,31.54,24.16,2.28,0.41,0.53,0.75,-0.28,-0.85,-1.15,33.85,11.38,-0.18,0.19,0.54,0.78,-1.21,1.03,-0.15
1900-01-01 15:13:53.868,31.31,23.96,2.26,0.41,0.52,0.76,-0.67,-0.18,-0.94,33.73,11.44,-0.21,0.19,0.53,0.78,-1.37,1.41,0.19
1900-01-01 15:13:53.962,31.72,24.03,2.28,0.41,0.53,0.75,-0.78,-0.12,-0.56,33.94,11.21,-0.19,0.19,0.54,0.77,-1.34,1.36,0.14
1900-01-01 15:13:54.009,31.55,24.1,2.35,0.41,0.53,0.75,-0.15,-0.77,-1.05,33.69,11.33,-0.18,0.19,0.53,0.78,-1.27,0.99,-0.02
1900-01-01 15:13:54.103,31.53,24.1,2.35,0.41,0.53,0.76,-0.54,0.01,-1.48,33.92,11.35,-0.19,0.19,0.54,0.78,-1.58,1.68,-0.08
1900-01-01 15:13:54.197,31.42,23.96,2.28,0.41,0.53,0.76,-0.85,0.92,-1.6,33.88,11.08,-0.21,0.19,0.54,0.78,-1.37,2.02,-0.2
1900-01-01 15:13:54.243,31.28,23.89,2.2,0.41,0.52,0.75,-0.86,0.63,-1.47,33.91,11.01,-0.25,0.18,0.54,0.78,-1.49,1.6,-0.13
1900-01-01 15:13:54.338,31.5,23.77,2.13,0.4,0.52,0.75,-0.48,-0.62,-0.3,33.96,11.05,-0.27,0.18,0.54,0.78,-1.29,0.85,0.17
1900-01-01 15:13:54.419,31.4,24.0,2.24,0.41,0.53,0.76,-0.12,-1.18,-0.5,33.91,11.16,-0.26,0.19,0.54,0.78,-1.07,0.95,-0.08
1900-01-01 15:13:54.479,31.55,23.64,2.33,0.41,0.53,0.76,-0.75,-0.38,-1.07,33.85,11.09,-0.28,0.18,0.53,0.77,-1.57,1.27,0.2
1900-01-01 15:13:54.572,31.42,24.08,2.32,0.41,0.53,0.76,-0.9,0.49,-1.65,34.0,11.42,-0.25,0.19,0.54,0.77,-1.56,1.82,-0.08
1900-01-01 15:13:54.619,31.3,23.62,2.23,0.4,0.52,0.75,-1.15,0.82,-1.18,33.63,10.88,-0.27,0.18,0.53,0.78,-1.49,1.91,0.08
1900-01-01 15:13:54.714,31.61,23.77,2.21,0.41,0.53,0.76,-0.54,-0.16,-0.69,33.94,11.13,-0.27,0.19,0.54,0.78,-1.12,1.17,-0.11
1900-01-01 15:13:54.807,31.16,23.49,2.26,0.4,0.52,0.76,-0.15,-0.76,-1.23,33.65,10.9,-0.3,0.18,0.53,0.78,-1.14,1.08,-0.15
1900-01-01 15:13:54.855,31.57,23.76,2.23,0.41,0.53,0.76,-0.85,-0.47,-1.02,33.66,11.47,-0.33,0.19,0.53,0.78,-1.37,1.16,0.25
1900-01-01 15:13:54.948,31.24,23.84,2.24,0.41,0.52,0.76,-0.21,-0.11,-1.7,33.63,11.2,-0.3,0.19,0.53,0.78,-1.34,1.39,-0.34
1900-01-01 15:13:54.995,31.44,23.35,2.13,0.4,0.52,0.76,-1.12,-0.07,-0.74,33.69,10.8,-0.36,0.18,0.53,0.78,-1.23,1.37,0.31
1900-01-01 15:13:55.088,31.59,23.89,2.18,0.41,0.53,0.76,-0.39,-0.29,-1.19,33.93,11.23,-0.32,0.19,0.54,0.78,-1.14,1.36,-0.21
1900-01-01 15:13:55.181,31.16,23.04,2.16,0.39,0.52,0.76,-0.47,-0.44,-1.15,33.39,10.71,-0.36,0.18,0.53,0.78,-1.05,1.24,0.08
1900-01-01 15:13:55.228,31.44,24.02,2.14,0.41,0.53,0.76,-0.63,-0.42,-0.95,33.69,11.52,-0.35,0.19,0.54,0.78,-1.23,0.99,0.16
1900-01-01 15:13:55.322,31.53,23.41,2.15,0.4,0.52,0.76,-0.51,-0.52,-0.84,33.63,10.87,-0.34,0.18,0.53,0.78,-1.26,1.16,0.09
1900-01-01 15:13:55.433,31.46,23.72,2.18,0.41,0.53,0.76,-0.47,-0.44,-0.81,33.87,10.92,-0.33,0.18,0.54,0.78,-1.21,1.24,0.12
1900-01-01 15:13:55.463,31.45,23.89,2.22,0.41,0.53,0.76,-0.38,-0.9,-1.01,33.58,11.15,-0.32,0.19,0.53,0.78,-1.24,0.85,0.0
1900-01-01 15:13:55.557,31.39,23.84,2.22,0.41,0.53,0.76,-0.37,-0.78,-1.22,33.78,11.27,-0.33,0.19,0.54,0.78,-1.16,1.16,-0.04
1900-01-01 15:13:55.604,31.37,23.87,2.2,0.41,0.53,0.76,-0.86,-0.13,-0.85,33.84,11.19,-0.35,0.19,0.54,0.78,-1.29,1.37,0.16
1900-01-01 15:13:55.698,31.66,23.72,2.22,0.4,0.53,0.75,-0.55,-0.14,-0.92,33.94,11.23,-0.33,0.19,0.54,0.78,-1.32,1.29,0.03
1900-01-01 15:13:55.752,31.6,23.67,2.24,0.4,0.53,0.75,-0.47,-0.63,-0.88,33.79,11.06,-0.33,0.18,0.53,0.78,-1.15,1.06,0.16
1900-01-01 15:13:55.840,31.42,23.88,2.27,0.41,0.53,0.76,-0.3,-0.72,-1.18,33.94,11.37,-0.32,0.19,0.54,0.78,-1.16,1.0,-0.06
1900-01-01 15:13:55.936,31.41,23.9,2.25,0.41,0.53,0.76,-0.52,-0.22,-0.83,33.74,11.29,-0.34,0.19,0.53,0.78,-1.23,1.59,-0.01
1900-01-01 15:13:55.986,31.46,23.88,2.28,0.41,0.52,0.75,-0.57,-0.29,-0.94,33.75,11.2,-0.34,0.19,0.53,0.78,-1.21,1.2,0.2
1900-01-01 15:13:56.078,31.46,24.12,2.29,0.41,0.53,0.76,-0.37,-0.63,-1.05,33.83,11.42,-0.32,0.19,0.54,0.78,-1.24,1.02,0.01
1900-01-01 15:13:56.173,31.35,23.87,2.29,0.41,0.53,0.76,-0.64,0.03,-1.08,33.74,11.15,-0.33,0.19,0.53,0.78,-1.2,1.79,-0.04
1900-01-01 15:13:56.220,31.75,23.97,2.29,0.41,0.53,0.75,-0.82,-0.19,-0.79,34.02,11.26,-0.34,0.19,0.54,0.77,-1.44,1.21,0.33
1900-01-01 15:13:56.314,31.49,24.03,2.32,0.41,0.53,0.76,-0.27,-0.63,-1.2,33.95,11.24,-0.3,0.19,0.54,0.78,-1.3,1.11,-0.18
1900-01-01 15:13:56.447,31.45,23.89,2.3,0.41,0.52,0.76,-0.53,-0.31,-0.73,33.91,11.12,-0.34,0.19,0.54,0.78,-1.13,1.36,0.15
1900-01-01 15:13:56.447,31.47,24.07,2.35,0.41,0.53,0.76,-0.43,-0.37,-1.05,33.78,11.47,-0.32,0.19,0.54,0.78,-1.21,1.22,0.05
1900-01-01 15:13:56.552,31.47,23.81,2.35,0.41,0.53,0.76,-0.61,-0.34,-1.05,33.71,11.18,-0.33,0.19,0.53,0.78,-1.4,1.18,0.06
1900-01-01 15:13:56.599,31.36,24.07,2.34,0.41,0.52,0.76,-0.61,-0.09,-0.92,33.82,11.23,-0.33,0.19,0.54,0.78,-1.31,1.41,0.1
1900-01-01 15:13:56.695,31.62,23.95,2.36,0.41,0.53,0.75,-0.56,-0.31,-0.94,33.8,11.25,-0.32,0.19,0.54,0.78,-1.34,1.22,0.05
1900-01-01 15:13:58.583,31.56,23.98,2.38,0.41,0.53,0.76,-0.48,-0.34,-1.11,33.93,11.33,-0.32,0.19,0.54,0.78,-1.35,1.21,0.08
1900-01-01 15:13:58.583,31.42,23.96,2.37,0.41,0.52,0.76,-0.6,-0.07,-1.0,33.84,11.29,-0.32,0.19,0.54,0.78,-1.33,1.46,0.03
1900-01-01 15:13:58.583,31.52,23.98,2.37,0.41,0.53,0.75,-0.48,-0.35,-0.86,34.03,11.18,-0.32,0.19,0.54,0.77,-1.09,1.21,0.01
1900-01-01 15:13:58.583,31.42,24.05,2.4,0.41,0.53,0.76,-0.36,-0.49,-1.13,33.64,11.43,-0.33,0.19,0.53,0.78,-1.23,1.36,-0.12
1900-01-01 15:13:58.583,31.57,23.91,2.38,0.41,0.53,0.75,-0.76,0.18,-1.02,34.02,10.99,-0.35,0.18,0.54,0.77,-1.43,1.58,0.08
1900-01-01 15:13:58.583,31.56,24.04,2.39,0.41,0.53,0.76,-0.63,0.09,-0.97,33.9,11.34,-0.35,0.19,0.54,0.78,-1.4,1.5,-0.02
1900-01-01 15:13:58.583,31.6,23.73,2.4,0.41,0.53,0.76,-0.34,-0.18,-1.05,33.99,11.01,-0.36,0.18,0.54,0.77,-1.31,1.24,0.0
1900-01-01 15:13:58.583,31.42,23.88,2.4,0.41,0.53,0.76,-0.68,0.05,-1.12,33.85,11.29,-0.37,0.19,0.54,0.78,-1.2,1.53,-0.05
1900-01-01 15:13:58.583,31.49,23.73,2.38,0.41,0.53,0.76,-0.75,0.09,-1.22,33.79,11.06,-0.39,0.18,0.53,0.78,-1.36,1.48,-0.06
1900-01-01 15:13:58.583,31.26,23.75,2.36,0.4,0.52,0.76,-0.63,0.04,-1.23,33.76,11.1,-0.4,0.19,0.53,0.78,-1.24,1.39,-0.06
1900-01-01 15:13:58.583,31.6,23.62,2.33,0.4,0.53,0.76,-0.69,0.08,-1.04,33.75,11.01,-0.42,0.18,0.53,0.78,-1.47,1.4,-0.04
1900-01-01 15:13:58.583,31.34,23.62,2.33,0.4,0.53,0.76,-0.8,0.09,-1.22,33.51,11.27,-0.44,0.19,0.53,0.78,-1.38,1.47,-0.05
1900-01-01 15:13:58.583,31.45,23.68,2.3,0.4,0.52,0.76,-0.85,0.19,-1.19,33.73,11.02,-0.45,0.18,0.53,0.78,-1.44,1.44,-0.03
1900-01-01 15:13:58.583,31.61,23.48,2.28,0.4,0.53,0.76,-0.49,-0.24,-0.86,33.85,10.96,-0.47,0.18,0.53,0.78,-1.15,1.1,0.02
1900-01-01 15:13:58.583,31.59,23.56,2.3,0.4,0.53,0.76,-0.35,-0.4,-1.1,33.92,11.03,-0.47,0.18,0.54,0.78,-1.23,1.33,-0.05
1900-01-01 15:13:58.583,31.42,23.33,2.29,0.4,0.53,0.76,-0.84,-0.13,-1.17,33.73,10.92,-0.49,0.18,0.53,0.78,-1.31,1.53,-0.02
1900-01-01 15:13:58.583,31.34,23.61,2.27,0.4,0.52,0.76,-0.66,-0.33,-1.2,33.74,11.16,-0.5,0.19,0.54,0.78,-1.22,1.41,-0.08
1900-01-01 15:13:58.583,31.35,23.36,2.25,0.4,0.52,0.76,-0.27,-0.73,-0.82,33.8,10.93,-0.52,0.18,0.53,0.78,-1.07,0.94,0.12
1900-01-01 15:13:58.583,31.5,23.58,2.28,0.4,0.53,0.76,-0.4,-0.73,-1.0,33.79,11.21,-0.51,0.19,0.54,0.78,-1.03,1.14,0.05
1900-01-01 15:13:58.583,31.52,23.49,2.29,0.4,0.53,0.76,-0.74,-0.4,-1.11,33.71,11.09,-0.51,0.18,0.53,0.78,-1.22,1.42,-0.01
1900-01-01 15:13:58.583,31.34,23.69,2.28,0.4,0.52,0.76,-0.63,-0.41,-0.95,33.5,11.34,-0.52,0.19,0.53,0.78,-1.18,1.11,0.14
1900-01-01 15:13:58.583,31.65,23.63,2.29,0.4,0.53,0.76,-0.43,-0.53,-0.76,33.89,11.04,-0.51,0.18,0.53,0.77,-1.34,0.99,0.2
1900-01-01 15:13:58.583,31.61,23.6,2.33,0.4,0.53,0.76,-0.44,-0.45,-0.97,34.09,11.03,-0.48,0.18,0.54,0.77,-1.27,1.24,0.11
1900-01-01 15:13:58.583,31.59,23.86,2.34,0.41,0.53,0.76,-0.71,-0.14,-1.03,33.79,11.22,-0.48,0.19,0.54,0.78,-1.35,1.47,0.05
1900-01-01 15:13:58.606,31.49,23.67,2.35,0.41,0.53,0.76,-0.65,-0.02,-0.86,33.69,11.26,-0.48,0.19,0.53,0.78,-1.39,1.34,0.13
1900-01-01 15:13:58.672,31.75,23.61,2.37,0.41,0.53,0.76,-0.73,0.14,-1.4,33.93,10.96,-0.47,0.18,0.54,0.78,-1.41,1.67,-0.36
1900-01-01 15:13:58.767,31.28,23.48,2.32,0.4,0.53,0.77,-0.09,0.05,-2.11,33.33,11.11,-0.53,0.19,0.53,0.78,-1.04,1.65,-0.48
1900-01-01 15:13:58.815,31.41,23.61,2.15,0.4,0.52,0.76,-0.31,0.15,-2.3,34.13,11.1,-0.61,0.19,0.54,0.77,-0.98,1.52,-0.32
1900-01-01 15:13:58.909,31.73,23.24,1.96,0.4,0.53,0.76,-0.45,0.17,-1.58,33.81,10.89,-0.67,0.18,0.53,0.78,-1.19,1.46,-0.28
1900-01-01 15:13:58.955,31.8,23.1,1.88,0.39,0.53,0.76,-0.34,0.11,-1.66,34.18,10.68,-0.72,0.18,0.54,0.78,-0.99,1.34,0.08
1900-01-01 15:13:59.049,31.83,23.07,1.79,0.39,0.53,0.75,-0.27,-0.51,-1.34,34.15,10.72,-0.72,0.18,0.54,0.78,-0.92,1.37,0.0
1900-01-01 15:13:59.144,32.07,22.93,1.74,0.39,0.54,0.76,-0.05,-0.53,-1.24,34.42,10.54,-0.73,0.18,0.54,0.77,-1.05,1.25,0.05
1900-01-01 15:13:59.192,31.6,23.25,1.71,0.4,0.53,0.77,-0.69,0.84,-1.82,33.95,11.02,-0.73,0.18,0.54,0.78,-0.87,2.1,-0.28
1900-01-01 15:13:59.285,32.26,22.71,1.59,0.39,0.54,0.75,-1.13,0.51,-1.15,34.06,10.65,-0.78,0.18,0.54,0.78,-1.26,1.5,0.19
1900-01-01 15:13:59.335,32.25,22.75,1.57,0.39,0.54,0.76,-0.3,-0.39,-1.65,34.21,10.81,-0.76,0.18,0.54,0.78,-1.56,0.88,-0.08
1900-01-01 15:13:59.428,31.95,22.55,1.48,0.39,0.54,0.77,-1.4,0.89,-2.31,34.01,10.65,-0.78,0.18,0.54,0.78,-1.76,1.79,-0.24
1900-01-01 15:13:59.578,32.26,22.13,1.29,0.38,0.54,0.76,-2.06,1.28,-2.54,33.74,10.67,-0.82,0.18,0.53,0.78,-1.36,1.85,-0.23
1900-01-01 15:13:59.578,32.17,22.11,1.06,0.38,0.54,0.76,-0.37,-0.02,-3.09,33.82,10.91,-0.87,0.18,0.53,0.78,-0.89,1.47,-0.47
1900-01-01 15:13:59.650,32.22,21.65,0.74,0.37,0.53,0.76,0.9,-1.73,-1.62,34.3,10.09,-0.95,0.17,0.54,0.77,-0.64,1.0,-0.02
1900-01-01 15:13:59.745,32.23,21.91,0.65,0.38,0.54,0.77,0.1,0.48,-2.08,34.46,10.57,-0.96,0.18,0.54,0.77,-0.69,1.92,-0.15
1900-01-01 15:13:59.801,32.01,21.92,0.5,0.37,0.53,0.76,-1.05,1.57,-0.36,34.55,10.22,-0.99,0.17,0.54,0.77,-1.37,1.92,0.32
1900-01-01 15:13:59.902,32.64,21.7,0.6,0.37,0.54,0.76,-0.54,-0.05,0.01,34.17,10.3,-0.95,0.17,0.54,0.78,-1.34,0.92,0.33
1900-01-01 15:13:59.952,32.73,21.72,0.76,0.38,0.55,0.77,0.68,-1.97,-1.56,34.36,10.43,-0.91,0.17,0.54,0.78,-0.99,0.34,0.04
1900-01-01 15:14:00.045,31.82,21.8,0.68,0.38,0.53,0.77,-0.54,0.39,-1.82,34.36,10.47,-0.91,0.18,0.54,0.78,-1.15,1.89,-0.22
1900-01-01 15:14:00.152,32.59,21.5,0.56,0.37,0.54,0.76,-1.94,1.05,-0.14,34.07,10.32,-0.95,0.17,0.54,0.78,-1.73,1.35,0.47
1900-01-01 15:14:00.190,32.98,21.68,0.7,0.37,0.55,0.76,-0.15,-0.92,-1.1,34.25,10.67,-0.89,0.18,0.54,0.78,-1.48,0.72,0.06
1900-01-01 15:14:00.280,32.13,21.92,0.69,0.37,0.53,0.76,0.03,-1.06,-0.98,34.3,10.59,-0.89,0.18,0.54,0.77,-1.06,0.98,0.08
1900-01-01 15:14:00.334,32.13,21.92,0.7,0.37,0.53,0.76,-0.88,-0.76,0.01,34.23,10.59,-0.88,0.18,0.54,0.78,-1.48,0.66,0.69
1900-01-01 15:14:00.434,32.37,22.49,0.86,0.39,0.55,0.77,-0.25,-0.76,-0.24,34.16,11.35,-0.79,0.19,0.54,0.78,-1.31,0.89,0.24
1900-01-01 15:14:00.585,32.71,21.77,0.98,0.38,0.55,0.77,0.17,1.82,-2.87,34.83,10.43,-0.76,0.17,0.55,0.77,-1.05,2.9,-1.27
1900-01-01 15:14:00.592,31.88,21.45,0.7,0.36,0.52,0.75,-1.86,2.13,-1.11,34.03,10.16,-0.96,0.17,0.54,0.78,-1.69,1.69,0.02
1900-01-01 15:14:00.659,32.31,21.79,0.69,0.37,0.53,0.76,-1.9,-1.08,0.75,33.74,10.75,-0.97,0.18,0.54,0.78,-2.27,-0.01,0.85
1900-01-01 15:14:00.709,32.03,21.78,0.97,0.37,0.53,0.76,-0.53,-3.92,1.21,33.26,10.8,-0.85,0.18,0.53,0.78,-2.05,-0.45,0.74
1900-01-01 15:14:00.799,32.81,21.82,1.31,0.38,0.55,0.77,-0.67,-2.43,0.69,34.49,10.25,-0.74,0.17,0.55,0.77,-1.73,0.32,0.99
1900-01-01 15:14:00.890,31.99,22.9,1.57,0.4,0.54,0.77,-1.11,0.6,-0.92,34.28,11.19,-0.6,0.19,0.54,0.78,-1.79,1.94,0.24
1900-01-01 15:14:00.936,31.94,22.63,1.59,0.39,0.53,0.76,-1.03,1.0,-0.89,33.95,11.01,-0.57,0.18,0.54,0.78,-1.47,1.87,-0.13
1900-01-01 15:14:03.691,31.49,22.5,1.61,0.38,0.53,0.77,-0.33,-0.92,-0.69,32.72,11.64,-0.6,0.19,0.52,0.79,-1.63,0.59,0.35
1900-01-01 15:14:03.691,31.71,22.65,1.67,0.39,0.53,0.77,-0.29,-0.61,-1.4,33.51,11.1,-0.55,0.19,0.53,0.78,-1.5,1.55,-0.16
1900-01-01 15:14:03.691,31.95,22.61,1.61,0.39,0.53,0.76,-1.09,0.51,-0.71,33.64,11.13,-0.59,0.19,0.53,0.78,-1.59,1.72,0.26
1900-01-01 15:14:03.691,31.65,22.59,1.66,0.39,0.53,0.76,-0.33,-0.6,-0.9,33.65,11.09,-0.56,0.18,0.53,0.78,-1.05,1.12,-0.03
1900-01-01 15:14:03.691,32.41,22.32,1.68,0.38,0.54,0.76,0.22,-0.73,-1.12,34.97,10.13,-0.57,0.17,0.55,0.77,-0.88,1.31,-0.22
1900-01-01 15:14:03.691,31.83,22.98,1.67,0.4,0.53,0.76,-0.49,-0.31,-0.73,34.23,11.35,-0.61,0.19,0.54,0.77,-0.98,1.29,0.2
1900-01-01 15:14:03.691,31.67,22.58,1.72,0.38,0.53,0.76,-0.26,-0.47,-1.11,34.26,10.85,-0.59,0.18,0.54,0.77,-1.05,0.97,0.03
1900-01-01 15:14:03.691,31.54,22.63,1.71,0.39,0.53,0.77,-0.64,-0.29,-0.83,33.11,11.41,-0.59,0.19,0.53,0.79,-1.18,1.11,0.16
1900-01-01 15:14:03.691,31.98,22.78,1.74,0.39,0.54,0.76,-0.89,-0.26,-0.63,33.85,11.31,-0.58,0.19,0.54,0.78,-1.47,1.27,0.21
1900-01-01 15:14:03.691,31.64,22.58,1.8,0.39,0.53,0.76,-0.05,-0.97,-1.23,33.9,11.23,-0.55,0.19,0.54,0.78,-0.8,0.95,0.05
1900-01-01 15:14:03.691,31.42,22.91,1.77,0.39,0.53,0.77,-0.34,-0.68,-1.11,33.96,11.39,-0.55,0.19,0.54,0.78,-0.78,1.27,0.0
1900-01-01 15:14:03.691,31.4,22.52,1.76,0.38,0.52,0.77,-0.9,-0.26,-0.8,32.89,11.44,-0.56,0.19,0.52,0.78,-1.39,1.25,0.18
1900-01-01 15:14:03.691,32.22,22.74,1.8,0.39,0.54,0.76,-0.82,-0.28,-0.95,33.93,11.25,-0.55,0.19,0.54,0.78,-1.71,1.08,0.31
1900-01-01 15:14:03.691,31.92,22.66,1.81,0.39,0.53,0.76,-0.39,-0.66,-1.18,34.15,10.97,-0.51,0.18,0.54,0.77,-1.19,1.29,-0.02
1900-01-01 15:14:03.691,32.28,22.78,1.79,0.39,0.54,0.76,-0.24,-0.63,-1.15,35.46,10.62,-0.52,0.18,0.56,0.76,-0.5,1.48,-0.35
1900-01-01 15:14:03.691,31.59,22.75,1.77,0.39,0.53,0.76,-0.41,-0.3,-1.0,34.13,11.05,-0.58,0.18,0.54,0.78,-0.96,1.34,0.02
1900-01-01 15:14:03.691,31.03,22.92,1.78,0.39,0.52,0.77,-0.53,-0.48,-1.19,33.53,11.49,-0.58,0.19,0.53,0.78,-0.89,1.28,-0.11
1900-01-01 15:14:03.691,31.57,22.62,1.76,0.39,0.53,0.77,-0.85,-0.04,-0.8,33.06,11.58,-0.61,0.19,0.53,0.78,-1.48,1.07,0.26
1900-01-01 15:14:03.691,31.98,22.95,1.79,0.39,0.54,0.76,-0.63,-0.28,-0.95,34.06,11.25,-0.58,0.19,0.54,0.78,-1.42,1.31,0.1
1900-01-01 15:14:03.691,31.85,22.78,1.81,0.39,0.53,0.76,-0.58,-0.45,-1.18,33.99,11.1,-0.57,0.19,0.54,0.77,-1.18,1.33,-0.12
1900-01-01 15:14:03.691,31.43,23.16,1.78,0.4,0.53,0.76,-0.47,-0.6,-1.36,34.15,11.24,-0.6,0.19,0.54,0.78,-0.73,1.4,-0.34
1900-01-01 15:14:03.691,31.56,22.45,1.73,0.38,0.52,0.76,-1.04,0.0,-0.76,33.14,11.16,-0.66,0.19,0.53,0.78,-1.33,1.25,0.18
1900-01-01 15:14:03.691,31.41,22.79,1.78,0.39,0.52,0.77,-0.64,-0.36,-1.06,32.92,11.82,-0.64,0.2,0.52,0.78,-1.24,1.08,0.16
1900-01-01 15:14:03.691,31.84,22.71,1.77,0.39,0.53,0.76,-0.92,-0.02,-0.9,33.6,11.37,-0.62,0.19,0.53,0.77,-1.62,1.34,0.11
1900-01-01 15:14:03.691,32.24,22.98,1.79,0.39,0.54,0.76,-0.44,-0.47,-0.98,34.52,11.06,-0.62,0.19,0.55,0.77,-1.22,1.15,0.15
1900-01-01 15:14:03.691,31.77,22.94,1.8,0.39,0.53,0.76,-0.22,-0.65,-1.21,34.11,11.15,-0.6,0.19,0.54,0.78,-1.06,1.35,-0.29
1900-01-01 15:14:03.691,31.66,22.7,1.78,0.39,0.53,0.77,-0.76,-0.27,-1.07,33.84,11.19,-0.65,0.19,0.53,0.77,-1.1,1.5,-0.06
1900-01-01 15:14:03.691,31.59,23.03,1.77,0.39,0.53,0.76,-0.92,0.06,-0.98,33.12,11.63,-0.67,0.19,0.53,0.78,-1.83,1.33,0.21
1900-01-01 15:14:03.691,31.94,22.65,1.78,0.39,0.53,0.76,-0.7,-0.19,-1.11,33.95,10.95,-0.65,0.18,0.54,0.78,-1.39,1.18,0.11
1900-01-01 15:14:03.691,32.06,23.16,1.77,0.4,0.54,0.76,-0.82,-0.21,-0.92,34.28,11.22,-0.64,0.19,0.54,0.77,-1.44,1.39,0.02
1900-01-01 15:14:03.691,31.87,22.58,1.79,0.39,0.53,0.77,-0.59,-0.34,-1.39,33.7,11.15,-0.64,0.19,0.53,0.78,-1.27,1.49,-0.18
1900-01-01 15:14:03.691,31.87,22.82,1.74,0.39,0.53,0.76,-0.26,0.37,-2.17,33.86,11.36,-0.68,0.19,0.54,0.78,-1.27,1.8,-0.41
1900-01-01 15:14:03.691,31.83,22.66,1.56,0.39,0.53,0.76,-0.38,0.53,-1.72,33.95,11.29,-0.75,0.19,0.54,0.78,-1.45,1.6,-0.42
1900-01-01 15:14:03.691,31.47,22.62,1.46,0.39,0.54,0.78,-0.39,2.23,-1.11,34.01,11.29,-0.82,0.19,0.54,0.78,-1.18,2.79,-0.64
1900-01-01 15:14:03.691,31.62,21.52,1.45,0.37,0.52,0.77,-2.9,3.78,-0.85,33.47,10.52,-0.93,0.17,0.53,0.78,-1.91,2.62,0.44
1900-01-01 15:14:03.691,32.07,21.8,1.48,0.37,0.53,0.76,-0.86,0.56,-1.04,34.19,10.25,-0.87,0.17,0.54,0.78,-0.9,1.48,0.04
1900-01-01 15:14:03.780,31.96,21.43,1.48,0.36,0.53,0.76,0.68,-3.43,-1.59,33.36,10.66,-0.88,0.18,0.53,0.78,-0.63,-0.6,0.21
1900-01-01 15:14:03.874,31.78,22.34,1.39,0.39,0.53,0.77,0.98,-4.27,-1.74,33.99,11.2,-0.85,0.19,0.54,0.78,-0.53,-0.16,-0.18
1900-01-01 15:14:03.921,31.84,22.21,1.29,0.38,0.53,0.77,-0.47,-1.63,-1.11,33.88,11.0,-0.89,0.18,0.53,0.77,-1.36,0.82,0.11
1900-01-01 15:14:04.016,32.23,22.55,1.27,0.39,0.54,0.76,-1.66,0.23,-0.43,34.17,11.05,-0.88,0.18,0.54,0.78,-1.88,1.24,0.51
1900-01-01 15:14:04.063,32.05,22.33,1.37,0.38,0.53,0.76,-1.02,-0.29,-0.69,33.68,11.12,-0.81,0.18,0.53,0.78,-1.66,1.02,0.24
1900-01-01 15:14:04.158,31.74,22.95,1.42,0.39,0.53,0.76,-0.06,-1.47,-0.92,34.06,11.37,-0.78,0.19,0.54,0.78,-1.0,0.85,-0.04
1900-01-01 15:14:04.251,31.85,22.66,1.44,0.39,0.53,0.76,-0.35,-0.94,-0.85,33.82,11.13,-0.8,0.19,0.53,0.78,-1.2,1.21,-0.09
1900-01-01 15:14:04.298,31.89,22.77,1.47,0.39,0.53,0.76,-0.73,-0.12,-1.02,34.04,11.35,-0.82,0.19,0.54,0.77,-1.25,1.5,0.06
1900-01-01 15:14:04.393,31.85,22.79,1.47,0.39,0.53,0.76,-0.94,0.42,-1.04,33.66,11.25,-0.82,0.19,0.53,0.78,-1.52,1.73,-0.05
1900-01-01 15:14:04.440,32.08,22.56,1.47,0.39,0.53,0.76,-0.82,0.27,-1.24,33.94,11.11,-0.83,0.19,0.54,0.78,-1.37,1.56,0.04
1900-01-01 15:14:04.534,32.22,22.47,1.44,0.38,0.54,0.76,-0.66,-0.06,-1.15,33.96,11.02,-0.84,0.18,0.54,0.78,-1.31,1.44,-0.06
1900-01-01 15:14:04.630,32.08,22.36,1.42,0.39,0.54,0.77,-0.05,-0.08,-1.47,33.99,11.26,-0.85,0.19,0.54,0.78,-0.9,1.65,-0.36
1900-01-01 15:14:04.678,32.11,22.28,1.36,0.38,0.54,0.77,-0.38,0.91,-2.09,34.16,11.11,-0.92,0.19,0.54,0.77,-1.14,1.99,-0.44
1900-01-01 15:14:04.771,32.0,21.98,1.2,0.38,0.53,0.76,-0.64,1.25,-2.05,34.25,10.68,-0.99,0.18,0.54,0.77,-1.44,1.98,-0.21
1900-01-01 15:14:04.818,31.91,21.96,1.04,0.37,0.53,0.76,-0.68,0.54,-2.11,34.2,10.75,-1.03,0.18,0.54,0.78,-0.81,1.75,-0.23
1900-01-01 15:14:04.911,32.0,21.78,0.88,0.37,0.53,0.76,-0.63,-0.18,-1.58,34.16,10.64,-1.08,0.18,0.54,0.77,-1.2,0.73,0.03
1900-01-01 15:14:05.005,32.25,21.89,0.8,0.38,0.54,0.77,-0.54,-0.2,-0.96,33.95,11.22,-1.08,0.19,0.54,0.78,-1.37,1.15,0.16
1900-01-01 15:14:05.052,32.26,21.54,0.81,0.37,0.53,0.76,-0.09,-0.43,-0.84,33.89,10.74,-1.06,0.18,0.53,0.78,-0.95,1.73,-0.05
1900-01-01 15:14:05.146,32.33,21.58,0.84,0.37,0.54,0.76,-0.48,-1.02,-0.87,34.23,10.72,-1.08,0.18,0.54,0.78,-1.19,0.7,0.4
1900-01-01 15:14:05.239,32.31,21.84,0.87,0.37,0.54,0.76,-0.5,-1.24,-0.65,34.34,10.72,-1.03,0.18,0.54,0.77,-1.23,0.41,0.47
1900-01-01 15:14:05.286,31.97,22.3,0.93,0.38,0.53,0.76,-0.12,-1.5,0.05,33.97,11.36,-0.96,0.19,0.54,0.78,-0.65,0.88,0.47
1900-01-01 15:14:05.379,32.29,22.42,1.09,0.38,0.54,0.76,-0.48,-1.92,0.64,33.77,11.21,-0.9,0.19,0.53,0.78,-1.4,0.53,0.44
1900-01-01 15:14:05.426,32.36,22.71,1.35,0.39,0.54,0.76,0.48,-2.36,-0.57,34.01,11.4,-0.84,0.19,0.54,0.77,-0.9,0.46,-0.18
1900-01-01 15:14:05.520,31.94,22.89,1.42,0.39,0.54,0.76,-0.26,-0.98,-1.02,33.89,11.43,-0.88,0.19,0.54,0.77,-1.19,1.27,0.15
1900-01-01 15:14:05.625,32.06,23.0,1.42,0.39,0.53,0.76,-1.18,0.47,-0.63,34.24,11.36,-0.86,0.19,0.54,0.77,-1.37,1.53,0.23
1900-01-01 15:14:05.661,32.08,22.99,1.48,0.39,0.53,0.75,-1.03,0.01,-0.35,34.02,11.47,-0.84,0.19,0.54,0.77,-1.34,1.22,0.26
1900-01-01 15:14:05.754,32.04,23.01,1.59,0.39,0.53,0.76,-0.34,-0.73,-0.34,33.84,11.56,-0.81,0.19,0.54,0.77,-1.36,0.85,0.4
1900-01-01 15:14:05.848,32.47,22.88,1.69,0.39,0.54,0.76,-0.28,-1.01,-0.73,34.07,11.37,-0.75,0.19,0.54,0.77,-1.28,1.05,0.0
1900-01-01 15:14:05.894,32.14,23.18,1.74,0.4,0.54,0.76,-0.51,-0.66,-1.34,34.21,11.58,-0.76,0.19,0.54,0.77,-1.16,1.29,-0.11
1900-01-01 15:14:05.987,31.85,23.16,1.7,0.4,0.53,0.76,-0.82,0.24,-1.11,34.31,11.53,-0.79,0.19,0.54,0.77,-1.49,1.52,0.19
1900-01-01 15:14:06.082,31.73,23.1,1.69,0.39,0.53,0.76,-0.79,0.15,-0.87,33.92,11.35,-0.77,0.19,0.54,0.77,-1.09,1.66,-0.11
1900-01-01 15:14:06.129,31.72,23.14,1.71,0.4,0.53,0.76,-0.54,-0.64,-1.05,33.64,11.85,-0.79,0.2,0.53,0.78,-0.97,1.19,-0.06
1900-01-01 15:14:06.224,31.84,23.12,1.71,0.4,0.53,0.76,-0.6,-0.64,-1.28,33.72,11.65,-0.81,0.19,0.53,0.78,-1.44,1.01,0.0
1900-01-01 15:14:06.270,32.07,22.96,1.67,0.39,0.53,0.76,-0.96,0.02,-1.01,34.17,11.23,-0.82,0.19,0.54,0.77,-1.37,1.51,0.03
1900-01-01 15:14:06.363,32.13,23.15,1.68,0.4,0.54,0.76,-0.59,-0.18,-0.73,34.14,11.48,-0.82,0.19,0.54,0.77,-1.28,1.27,0.15
1900-01-01 15:14:06.456,32.29,23.08,1.73,0.39,0.54,0.75,-0.34,-0.34,-0.84,34.32,11.3,-0.81,0.19,0.54,0.77,-1.34,1.05,0.29
1900-01-01 15:14:06.504,31.63,23.31,1.76,0.4,0.53,0.76,-0.5,-0.32,-0.98,33.39,11.86,-0.77,0.2,0.53,0.78,-1.15,1.21,0.05
1900-01-01 15:14:06.599,31.73,23.4,1.77,0.4,0.53,0.76,-0.6,-0.6,-0.67,33.62,11.62,-0.77,0.19,0.53,0.78,-1.41,0.98,0.06
1900-01-01 15:14:06.691,32.19,22.96,1.82,0.39,0.54,0.76,-0.65,-0.18,-1.11,33.88,11.38,-0.77,0.19,0.54,0.78,-1.53,1.41,0.13
1900-01-01 15:14:06.738,32.08,23.3,1.81,0.4,0.53,0.75,-0.81,0.23,-1.16,34.44,11.37,-0.76,0.19,0.54,0.77,-1.5,1.57,0.04
1900-01-01 15:14:06.835,31.96,23.04,1.79,0.39,0.53,0.75,-0.32,-0.31,-0.93,34.16,11.26,-0.76,0.19,0.54,0.77,-1.11,1.27,-0.18
1900-01-01 15:14:06.878,31.83,23.05,1.81,0.4,0.53,0.76,-0.3,-0.49,-1.0,33.81,11.58,-0.8,0.19,0.54,0.78,-1.18,1.06,0.13
1900-01-01 15:14:06.973,31.87,23.15,1.81,0.4,0.53,0.76,-0.78,-0.13,-0.85,33.65,11.63,-0.79,0.19,0.53,0.78,-1.44,1.29,0.11
1900-01-01 15:14:07.067,32.18,23.29,1.84,0.4,0.54,0.76,-0.52,-0.21,-1.04,34.06,11.6,-0.78,0.19,0.54,0.77,-1.41,1.36,0.03
1900-01-01 15:14:07.114,32.13,22.99,1.84,0.39,0.53,0.76,-0.6,-0.08,-1.11,34.27,11.27,-0.78,0.19,0.54,0.77,-1.4,1.5,0.02
1900-01-01 15:14:07.207,31.85,23.14,1.83,0.4,0.53,0.76,-0.51,-0.25,-1.26,34.12,11.53,-0.79,0.19,0.54,0.77,-1.15,1.33,-0.08
1900-01-01 15:14:07.302,31.87,23.05,1.8,0.39,0.53,0.76,-0.62,-0.21,-1.02,33.86,11.38,-0.81,0.19,0.54,0.77,-1.21,1.31,-0.03
1900-01-01 15:14:07.348,32.09,23.02,1.8,0.39,0.54,0.76,-0.65,-0.16,-1.02,34.06,11.38,-0.82,0.19,0.54,0.77,-1.31,1.4,-0.01
1900-01-01 15:14:07.441,32.32,23.08,1.8,0.39,0.54,0.75,-0.5,-0.31,-1.03,34.38,11.28,-0.83,0.19,0.54,0.77,-1.27,1.31,-0.02
1900-01-01 15:14:07.487,31.97,22.94,1.8,0.39,0.53,0.76,-0.38,-0.31,-1.14,34.16,11.28,-0.84,0.19,0.54,0.77,-1.03,1.32,-0.12
1900-01-01 15:14:07.581,31.79,23.13,1.79,0.4,0.53,0.76,-0.61,-0.05,-1.01,34.18,11.31,-0.87,0.19,0.54,0.77,-1.14,1.48,-0.06
1900-01-01 15:14:07.654,31.91,22.9,1.79,0.39,0.53,0.76,-0.63,-0.01,-0.98,33.72,11.46,-0.89,0.19,0.53,0.78,-1.37,1.3,0.11
1900-01-01 15:14:07.722,32.09,23.05,1.8,0.39,0.53,0.76,-0.73,-0.03,-0.95,33.84,11.57,-0.88,0.19,0.54,0.78,-1.5,1.27,0.15
1900-01-01 15:14:07.816,32.27,22.89,1.81,0.39,0.54,0.75,-0.52,-0.37,-1.01,34.14,11.3,-0.86,0.19,0.54,0.77,-1.34,1.18,0.11
1900-01-01 15:14:07.910,32.15,22.96,1.82,0.39,0.54,0.76,-0.27,-0.6,-1.2,34.27,11.3,-0.85,0.19,0.54,0.77,-1.05,1.39,-0.2
1900-01-01 15:14:07.957,31.98,23.08,1.79,0.39,0.53,0.76,-0.51,-0.71,-1.02,33.97,11.44,-0.89,0.19,0.54,0.77,-1.09,1.2,0.02
1900-01-01 15:14:08.050,32.11,23.04,1.8,0.39,0.53,0.76,-0.42,-0.73,-0.98,34.1,11.45,-0.9,0.19,0.54,0.77,-1.07,1.28,0.02
1900-01-01 15:14:08.097,32.12,23.06,1.81,0.39,0.54,0.76,-0.4,-0.71,-0.77,34.18,11.41,-0.9,0.19,0.54,0.77,-1.04,1.13,0.18
1900-01-01 15:14:08.191,32.1,23.21,1.85,0.4,0.53,0.75,-0.35,-0.73,-0.7,34.25,11.46,-0.88,0.19,0.54,0.77,-1.06,1.02,0.25
1900-01-01 15:14:08.285,32.21,23.31,1.9,0.4,0.54,0.75,-0.35,-0.76,-0.76,34.19,11.35,-0.85,0.19,0.54,0.77,-1.12,1.03,0.15
1900-01-01 15:14:08.331,32.01,23.37,1.94,0.4,0.53,0.76,-0.27,-0.64,-0.79,34.09,11.66,-0.84,0.19,0.54,0.77,-1.06,1.11,0.16
1900-01-01 15:14:08.425,32.03,23.43,1.98,0.4,0.54,0.76,-0.4,-0.56,-0.83,34.18,11.67,-0.82,0.2,0.54,0.77,-1.08,1.18,0.07
1900-01-01 15:14:08.521,32.09,23.51,2.01,0.4,0.54,0.75,-0.6,-0.48,-1.01,34.17,11.68,-0.82,0.2,0.54,0.77,-1.18,1.34,0.06
1900-01-01 15:14:08.566,31.99,23.48,2.01,0.4,0.53,0.75,-0.56,-0.53,-0.98,34.06,11.68,-0.82,0.19,0.54,0.77,-1.08,1.18,0.09
1900-01-01 15:14:08.658,32.42,23.29,2.02,0.4,0.54,0.75,-0.6,-0.38,-0.79,34.15,11.52,-0.81,0.19,0.54,0.77,-1.32,1.07,0.18
1900-01-01 15:14:08.714,32.15,23.41,2.06,0.4,0.54,0.75,-0.53,-0.37,-0.96,34.2,11.55,-0.8,0.19,0.54,0.77,-1.39,1.24,0.08
1900-01-01 15:14:08.804,32.13,23.53,2.07,0.4,0.54,0.75,-0.36,-0.47,-0.85,34.25,11.64,-0.79,0.19,0.54,0.77,-1.18,1.27,0.07
1900-01-01 15:14:08.898,31.93,23.51,2.1,0.4,0.53,0.76,-0.38,-0.54,-0.79,34.61,11.42,-0.79,0.19,0.55,0.77,-1.05,1.5,0.07
1900-01-01 15:14:08.946,31.91,23.76,2.14,0.41,0.53,0.75,-0.36,-0.62,-0.56,34.08,11.77,-0.79,0.2,0.54,0.77,-1.17,1.24,0.06
1900-01-01 15:14:09.040,32.19,23.75,2.21,0.41,0.54,0.75,-0.43,-0.75,-0.63,34.11,11.81,-0.79,0.2,0.54,0.77,-1.15,1.09,0.22
1900-01-01 15:14:09.087,32.3,23.8,2.27,0.41,0.54,0.75,-0.55,-0.58,-0.84,34.56,11.78,-0.76,0.2,0.55,0.77,-1.26,1.22,0.08
1900-01-01 15:14:09.183,32.19,23.76,2.31,0.41,0.54,0.75,-0.4,-0.42,-0.89,34.65,11.7,-0.76,0.2,0.55,0.77,-1.18,1.05,0.15
1900-01-01 15:14:09.275,31.93,23.86,2.33,0.41,0.53,0.75,-0.47,-0.44,-0.87,34.14,11.87,-0.74,0.2,0.54,0.77,-1.17,1.17,0.11
1900-01-01 15:14:09.322,32.04,23.82,2.35,0.41,0.53,0.75,-0.57,-0.29,-0.95,34.12,11.96,-0.73,0.2,0.54,0.77,-1.34,1.19,0.18
1900-01-01 15:14:09.419,32.18,23.91,2.37,0.41,0.54,0.75,-0.63,-0.27,-0.83,34.37,11.77,-0.72,0.2,0.54,0.77,-1.34,1.15,0.2
1900-01-01 15:14:09.512,32.31,23.88,2.4,0.41,0.54,0.75,-0.37,-0.53,-1.02,34.41,11.86,-0.69,0.2,0.54,0.77,-1.06,1.34,-0.05
1900-01-01 15:14:09.559,32.3,23.8,2.4,0.41,0.54,0.75,-0.62,-0.24,-0.91,34.4,11.8,-0.71,0.2,0.54,0.77,-1.32,1.38,0.14
1900-01-01 15:14:09.656,32.09,23.93,2.42,0.41,0.54,0.75,-0.48,-0.21,-0.92,34.28,11.96,-0.7,0.2,0.54,0.77,-1.34,1.15,0.18
1900-01-01 15:14:09.704,32.05,23.88,2.44,0.41,0.53,0.75,-0.55,-0.15,-0.75,34.25,11.82,-0.68,0.2,0.54,0.77,-1.27,1.21,0.17
1900-01-01 15:14:09.796,31.81,23.92,2.49,0.41,0.53,0.75,-0.69,-0.2,-0.73,33.74,12.33,-0.66,0.21,0.54,0.77,-1.42,1.28,0.15
1900-01-01 15:14:09.891,32.22,24.14,2.53,0.41,0.54,0.75,-0.56,-0.34,-1.05,34.28,12.13,-0.65,0.2,0.54,0.77,-1.31,1.34,-0.08
1900-01-01 15:14:09.938,32.26,23.91,2.53,0.41,0.54,0.75,-0.45,-0.15,-1.14,34.91,11.59,-0.67,0.19,0.55,0.77,-1.27,1.43,-0.02
1900-01-01 15:14:10.031,32.05,24.07,2.52,0.41,0.53,0.75,-0.45,-0.18,-1.02,34.56,11.67,-0.68,0.19,0.55,0.77,-1.04,1.48,-0.13
1900-01-01 15:14:10.079,31.84,23.78,2.52,0.41,0.53,0.75,-0.26,-0.49,-0.95,33.98,11.94,-0.71,0.2,0.54,0.77,-1.03,1.13,-0.08
1900-01-01 15:14:10.174,32.06,23.92,2.53,0.41,0.54,0.75,-1.09,0.4,-1.14,34.28,11.99,-0.73,0.2,0.54,0.77,-1.62,1.64,0.15
1900-01-01 15:14:10.268,32.28,23.7,2.52,0.4,0.54,0.75,-1.13,0.47,-1.1,34.56,11.55,-0.71,0.19,0.54,0.77,-1.71,1.67,0.07
1900-01-01 15:14:10.315,31.55,24.04,2.51,0.41,0.53,0.76,-0.09,-0.69,-1.32,34.06,12.26,-0.71,0.2,0.54,0.77,-0.82,1.08,-0.19
1900-01-01 15:14:10.408,31.87,23.52,2.47,0.4,0.53,0.76,-0.27,-0.57,-0.95,34.02,11.77,-0.75,0.2,0.54,0.77,-0.85,1.12,-0.15
1900-01-01 15:14:10.502,31.83,23.6,2.48,0.41,0.53,0.76,-0.92,0.27,-1.34,33.77,11.92,-0.78,0.2,0.53,0.77,-1.23,1.74,-0.08
1900-01-01 15:14:10.549,32.15,23.62,2.43,0.4,0.53,0.75,-0.85,0.4,-1.09,34.16,11.69,-0.8,0.19,0.54,0.77,-1.67,1.33,0.08
1900-01-01 15:14:10.651,32.39,23.51,2.43,0.4,0.54,0.75,-0.26,-0.53,-0.85,34.6,11.54,-0.8,0.19,0.55,0.77,-1.18,1.08,-0.06
1900-01-01 15:14:10.691,32.2,23.51,2.45,0.4,0.54,0.76,-0.53,-0.26,-1.35,34.53,11.46,-0.81,0.19,0.55,0.77,-1.18,1.7,-0.26
1900-01-01 15:14:10.785,31.89,23.67,2.41,0.4,0.53,0.75,-0.68,0.02,-1.42,33.95,11.78,-0.86,0.2,0.54,0.77,-1.17,1.41,-0.05
1900-01-01 15:14:10.882,32.01,23.84,2.35,0.41,0.53,0.75,-0.34,-0.28,-0.63,34.24,11.78,-0.88,0.2,0.54,0.77,-1.25,1.0,-0.08
1900-01-01 15:14:10.925,32.21,23.27,2.41,0.4,0.54,0.76,-0.69,-0.01,-1.1,34.19,11.51,-0.9,0.19,0.54,0.77,-1.34,1.59,-0.05
1900-01-01 15:14:11.019,32.0,23.83,2.4,0.41,0.53,0.75,-0.99,0.19,-1.5,34.4,11.68,-0.91,0.19,0.54,0.77,-1.26,1.69,-0.12
1900-01-01 15:14:11.066,31.91,23.64,2.33,0.4,0.53,0.75,-0.34,-0.76,-0.82,34.14,11.66,-0.94,0.19,0.54,0.77,-0.99,0.82,0.0
1900-01-01 15:14:11.160,32.0,23.43,2.36,0.4,0.54,0.76,-0.31,-0.76,-1.01,34.01,11.7,-0.95,0.2,0.54,0.77,-1.26,1.16,-0.04
1900-01-01 15:14:11.254,32.17,23.47,2.37,0.4,0.53,0.75,-0.66,-0.37,-1.18,34.33,11.55,-0.96,0.19,0.54,0.77,-1.23,1.35,0.23
1900-01-01 15:14:11.301,32.09,23.87,2.35,0.41,0.53,0.75,-0.37,-0.84,-0.8,34.58,11.65,-0.94,0.19,0.55,0.77,-1.01,1.06,0.02
1900-01-01 15:14:11.395,31.93,23.61,2.38,0.41,0.53,0.76,-0.41,-0.89,-0.75,34.14,11.9,-0.94,0.2,0.54,0.77,-0.97,1.16,0.03
1900-01-01 15:14:11.489,32.35,23.7,2.43,0.41,0.54,0.75,-0.45,-0.77,-0.88,34.5,11.61,-0.95,0.19,0.54,0.77,-0.97,1.1,0.15
1900-01-01 15:14:11.538,31.98,23.73,2.45,0.41,0.54,0.76,-0.29,-1.03,-1.16,34.12,12.03,-0.93,0.2,0.54,0.77,-1.02,1.14,-0.02
1900-01-01 15:14:11.619,31.95,24.01,2.43,0.41,0.53,0.75,-0.84,0.07,-0.89,34.5,11.78,-0.94,0.2,0.55,0.77,-1.33,1.55,0.21
1900-01-01 15:14:11.715,32.29,23.79,2.46,0.4,0.54,0.75,-0.65,-0.11,-0.56,34.58,11.63,-0.92,0.19,0.55,0.77,-1.28,1.16,0.21
1900-01-01 15:14:11.759,32.27,23.95,2.53,0.41,0.54,0.75,-0.25,-0.74,-1.03,34.63,11.92,-0.9,0.2,0.55,0.77,-1.08,1.19,-0.05
1900-01-01 15:14:11.853,31.87,23.71,2.53,0.4,0.53,0.75,-0.69,-0.24,-1.01,33.93,11.93,-0.92,0.2,0.53,0.77,-1.26,1.27,0.18
1900-01-01 15:14:11.947,32.23,24.2,2.54,0.41,0.54,0.74,-0.49,-0.49,-0.62,34.47,12.01,-0.9,0.2,0.55,0.77,-1.31,0.94,0.34
1900-01-01 15:14:11.994,32.16,24.09,2.6,0.41,0.54,0.75,-0.26,-0.72,-0.72,34.29,11.86,-0.85,0.2,0.54,0.77,-1.24,1.15,0.05
1900-01-01 15:14:12.092,32.1,24.06,2.65,0.41,0.54,0.75,-0.66,-0.18,-1.05,34.72,11.92,-0.85,0.2,0.55,0.77,-1.26,1.59,0.18
1900-01-01 15:14:12.136,31.83,24.06,2.65,0.41,0.53,0.75,-0.8,0.32,-1.27,33.96,12.08,-0.83,0.2,0.54,0.77,-1.4,1.68,-0.11
1900-01-01 15:14:12.230,32.15,23.99,2.61,0.41,0.54,0.75,-0.73,-0.21,-0.96,34.42,11.92,-0.86,0.2,0.54,0.77,-1.37,1.17,0.06
1900-01-01 15:14:12.326,32.04,23.96,2.62,0.41,0.54,0.75,-0.41,-0.95,-0.84,34.19,11.84,-0.86,0.2,0.54,0.77,-1.24,0.85,-0.1
1900-01-01 15:14:12.371,32.54,23.96,2.65,0.41,0.54,0.74,-0.64,-0.91,-0.99,34.68,11.82,-0.88,0.2,0.55,0.77,-1.89,0.55,0.15
1900-01-01 15:14:12.466,32.21,23.95,2.66,0.41,0.54,0.75,-0.06,-1.46,-1.69,34.12,11.83,-0.87,0.2,0.54,0.77,-1.49,0.82,-0.26
1900-01-01 15:14:12.561,31.63,24.26,2.56,0.42,0.53,0.76,-0.67,0.04,-0.82,34.34,12.18,-0.92,0.2,0.54,0.77,-0.63,2.18,0.06
1900-01-01 15:14:12.608,32.3,24.17,2.6,0.41,0.54,0.74,-1.76,1.3,0.3,34.38,11.83,-0.92,0.2,0.54,0.77,-1.5,2.02,0.57
1900-01-01 15:14:12.701,32.38,24.3,2.8,0.41,0.54,0.74,-0.08,-0.95,-0.49,34.46,12.02,-0.84,0.2,0.55,0.77,-0.99,0.7,0.29
1900-01-01 15:14:12.748,32.1,24.23,2.88,0.42,0.54,0.75,-0.08,-0.93,-1.1,34.56,11.83,-0.8,0.2,0.55,0.77,-1.51,1.02,-0.03
1900-01-01 15:14:12.842,31.72,24.28,2.87,0.42,0.53,0.76,-0.92,0.36,-1.45,34.48,12.06,-0.82,0.2,0.55,0.77,-1.12,2.04,-0.15
1900-01-01 15:14:12.936,31.88,24.09,2.81,0.41,0.53,0.74,-0.59,0.34,-1.66,34.36,11.63,-0.85,0.19,0.54,0.77,-1.13,1.73,-0.31
1900-01-01 15:14:12.983,31.66,24.26,2.72,0.41,0.53,0.75,-0.27,-0.56,-0.82,34.06,11.99,-0.9,0.2,0.54,0.77,-1.08,1.01,-0.15
1900-01-01 15:14:13.077,31.72,24.02,2.75,0.41,0.53,0.76,-0.66,0.15,-0.81,33.78,12.13,-0.93,0.2,0.54,0.77,-1.68,1.37,0.14
1900-01-01 15:14:13.125,32.08,23.88,2.79,0.41,0.54,0.75,-1.27,0.75,-1.17,34.01,12.06,-0.92,0.2,0.54,0.77,-2.0,1.67,0.26
1900-01-01 15:14:13.219,32.23,23.97,2.77,0.41,0.53,0.74,-1.08,-0.06,-1.15,34.07,11.66,-0.89,0.19,0.54,0.77,-1.78,1.08,-0.13
1900-01-01 15:14:13.313,31.87,23.77,2.75,0.41,0.53,0.75,0.63,-1.42,-1.2,34.06,12.0,-0.92,0.2,0.54,0.77,-0.42,1.02,-0.08
1900-01-01 15:14:13.360,32.11,23.87,2.73,0.41,0.54,0.75,-1.12,0.49,-0.44,34.47,11.57,-0.94,0.19,0.55,0.77,-1.61,1.71,0.47
1900-01-01 15:14:13.455,32.05,23.98,2.82,0.41,0.53,0.75,-1.34,0.58,-0.46,34.09,11.64,-0.87,0.19,0.54,0.77,-1.82,1.63,0.42
1900-01-01 15:14:13.549,31.36,24.28,2.91,0.42,0.53,0.76,-0.62,-0.23,-1.1,33.6,12.26,-0.82,0.2,0.53,0.78,-1.21,1.38,-0.18
1900-01-01 15:14:13.596,31.49,23.88,2.9,0.41,0.52,0.75,-0.29,-0.47,-1.11,33.82,11.74,-0.86,0.2,0.53,0.77,-1.0,1.08,-0.21
1900-01-01 15:14:13.691,31.61,23.88,2.89,0.41,0.53,0.75,-0.8,-0.34,-0.65,33.58,12.06,-0.9,0.2,0.53,0.78,-1.34,1.02,0.22
1900-01-01 15:14:13.738,31.73,23.85,2.95,0.41,0.53,0.76,-0.61,-0.04,-1.14,33.65,11.87,-0.87,0.2,0.53,0.78,-1.38,1.5,-0.1
1900-01-01 15:14:13.833,32.04,23.93,2.93,0.41,0.53,0.75,-0.66,-0.24,-1.11,33.98,11.9,-0.89,0.2,0.54,0.77,-1.56,1.1,0.12
1900-01-01 15:14:13.926,31.91,24.28,2.92,0.42,0.53,0.75,-0.19,-1.07,-0.99,34.14,12.07,-0.88,0.2,0.54,0.77,-1.33,0.92,0.03
1900-01-01 15:14:13.973,31.71,23.69,2.93,0.4,0.53,0.76,-0.1,-1.02,-0.87,33.98,11.66,-0.89,0.19,0.54,0.77,-0.74,1.15,0.11
1900-01-01 15:14:14.067,32.07,24.26,2.95,0.42,0.54,0.75,-0.81,-0.05,-0.51,34.4,12.07,-0.88,0.2,0.55,0.77,-1.39,1.31,0.39
1900-01-01 15:14:14.114,32.1,24.06,3.03,0.41,0.53,0.75,-0.21,-0.84,-1.15,34.17,11.79,-0.83,0.2,0.54,0.77,-1.03,1.09,-0.02
1900-01-01 15:14:14.208,31.91,24.16,3.02,0.41,0.53,0.75,-0.22,-0.77,-0.95,34.48,11.87,-0.84,0.2,0.55,0.77,-1.08,1.1,0.16
1900-01-01 15:14:14.300,31.95,24.19,3.03,0.41,0.53,0.75,-0.5,-0.24,-0.76,34.66,11.78,-0.83,0.2,0.55,0.77,-1.1,1.41,0.14
1900-01-01 15:14:14.347,31.9,24.22,3.07,0.41,0.53,0.75,-0.38,-0.47,-0.95,34.68,11.66,-0.81,0.19,0.55,0.77,-0.91,1.35,-0.05
1900-01-01 15:14:14.441,31.45,24.41,3.08,0.42,0.53,0.75,-0.4,-0.63,-1.04,33.73,12.38,-0.83,0.21,0.54,0.77,-0.93,1.15,-0.02
1900-01-01 15:14:14.535,31.7,24.39,3.08,0.42,0.53,0.75,-0.6,-0.54,-0.66,33.85,12.14,-0.84,0.2,0.54,0.77,-1.23,1.07,0.2
1900-01-01 15:14:14.582,31.74,24.23,3.14,0.41,0.53,0.75,-0.44,-0.53,-1.24,33.94,12.08,-0.82,0.2,0.54,0.77,-1.08,1.24,-0.08
1900-01-01 15:14:14.674,31.72,24.76,3.11,0.42,0.53,0.75,-0.9,0.08,-1.28,34.18,12.39,-0.84,0.21,0.54,0.77,-1.37,1.58,-0.07
1900-01-01 15:14:14.768,31.91,24.17,3.08,0.41,0.53,0.75,-0.85,0.02,-1.31,34.23,11.98,-0.86,0.2,0.54,0.77,-1.25,1.62,-0.08
1900-01-01 15:14:14.816,31.8,24.27,3.03,0.41,0.53,0.75,-0.5,-0.66,-0.83,34.26,12.06,-0.88,0.2,0.54,0.77,-1.02,0.94,-0.01
1900-01-01 15:14:14.910,31.92,24.11,3.06,0.41,0.53,0.75,-0.39,-0.75,-1.08,33.7,12.06,-0.89,0.2,0.54,0.78,-1.19,1.08,-0.02
1900-01-01 15:14:14.957,32.26,24.31,3.06,0.42,0.54,0.75,-0.84,-0.02,-1.29,34.22,12.02,-0.9,0.2,0.54,0.77,-1.56,1.55,0.11
1900-01-01 15:14:15.051,31.89,24.38,3.02,0.42,0.53,0.75,-0.76,0.03,-1.15,34.32,12.04,-0.89,0.2,0.54,0.77,-1.49,1.53,-0.04
1900-01-01 15:14:15.145,31.97,24.46,3.0,0.41,0.53,0.74,-0.05,-0.94,-0.36,34.44,12.08,-0.9,0.2,0.54,0.77,-0.92,0.65,0.28
1900-01-01 15:14:15.192,31.94,24.41,3.11,0.42,0.54,0.75,-0.46,-0.73,-0.61,34.18,12.22,-0.87,0.2,0.54,0.77,-1.02,1.08,0.08
1900-01-01 15:14:15.285,31.86,24.51,3.17,0.42,0.54,0.75,-0.98,0.25,-1.55,34.31,12.19,-0.87,0.2,0.54,0.77,-1.48,1.8,0.0
1900-01-01 15:14:15.379,32.12,24.1,3.1,0.41,0.53,0.74,-0.91,0.42,-1.57,34.47,11.69,-0.87,0.19,0.54,0.77,-1.56,1.8,-0.26
1900-01-01 15:14:15.426,31.59,24.54,3.01,0.42,0.53,0.75,-0.36,-0.62,-0.98,34.04,12.22,-0.92,0.2,0.54,0.77,-1.18,0.92,-0.04
1900-01-01 15:14:15.519,31.84,24.36,3.02,0.42,0.53,0.75,-0.32,-0.6,-0.81,34.3,11.9,-0.94,0.2,0.54,0.77,-1.17,1.2,-0.05
1900-01-01 15:14:15.566,31.87,23.98,3.06,0.41,0.53,0.76,-0.66,-0.15,-1.1,34.04,11.97,-0.95,0.2,0.54,0.77,-1.15,1.56,0.05
1900-01-01 15:14:15.661,31.78,24.47,3.05,0.42,0.53,0.75,-0.92,0.4,-0.95,34.11,12.13,-0.95,0.2,0.54,0.77,-1.5,1.59,0.18
1900-01-01 15:14:15.754,31.95,24.08,3.06,0.41,0.53,0.74,-0.47,-0.39,-0.53,33.8,12.14,-0.93,0.2,0.53,0.77,-1.33,0.86,0.19
1900-01-01 15:14:15.801,31.9,24.42,3.14,0.42,0.53,0.75,-0.2,-1.08,-0.69,34.32,12.28,-0.91,0.21,0.54,0.77,-1.12,0.75,0.16
1900-01-01 15:14:15.896,31.92,24.17,3.19,0.42,0.54,0.75,-0.52,-0.43,-1.16,34.08,12.08,-0.9,0.2,0.54,0.77,-1.24,1.4,0.04
1900-01-01 15:14:15.988,31.88,24.47,3.17,0.42,0.53,0.75,-0.89,0.41,-0.95,34.4,12.14,-0.9,0.2,0.54,0.77,-1.44,1.64,0.1
1900-01-01 15:14:16.035,31.91,24.34,3.19,0.41,0.53,0.75,-0.63,-0.18,-0.68,33.96,12.13,-0.89,0.2,0.54,0.77,-1.34,1.17,0.08
1900-01-01 15:14:16.129,31.97,24.31,3.24,0.42,0.54,0.75,-0.31,-0.69,-1.09,34.27,12.15,-0.89,0.2,0.54,0.77,-1.19,1.05,0.09
1900-01-01 15:14:16.174,31.65,24.43,3.23,0.42,0.53,0.75,-0.73,-0.13,-1.35,34.05,12.13,-0.89,0.2,0.54,0.77,-1.4,1.44,-0.02
1900-01-01 15:14:16.269,31.51,24.4,3.19,0.41,0.52,0.75,-0.63,-0.11,-1.06,33.98,12.18,-0.9,0.2,0.54,0.77,-1.26,1.35,0.04
1900-01-01 15:14:16.362,31.73,24.49,3.18,0.42,0.53,0.74,-0.3,-0.58,-0.73,33.86,12.18,-0.9,0.2,0.54,0.77,-1.05,0.97,0.08
1900-01-01 15:14:16.409,32.17,24.38,3.23,0.42,0.54,0.75,-0.32,-0.91,-0.76,34.42,12.26,-0.89,0.2,0.54,0.77,-1.05,1.13,-0.03
1900-01-01 15:14:16.502,32.04,24.38,3.27,0.42,0.54,0.75,-0.88,0.11,-1.39,34.18,12.22,-0.91,0.2,0.54,0.77,-1.51,1.84,0.02
1900-01-01 15:14:16.597,31.99,24.33,3.22,0.41,0.53,0.74,-0.73,0.5,-1.56,34.3,12.03,-0.91,0.2,0.54,0.77,-1.44,1.66,-0.04
1900-01-01 15:14:16.706,31.73,24.29,3.14,0.41,0.53,0.74,-0.56,-0.14,-0.99,33.9,12.01,-0.93,0.2,0.54,0.77,-1.38,1.24,-0.07
1900-01-01 15:14:16.740,32.43,24.01,3.15,0.41,0.54,0.75,-0.41,-0.69,-0.54,34.59,11.71,-0.95,0.2,0.55,0.77,-1.39,0.95,0.13
1900-01-01 15:14:16.785,32.3,24.15,3.22,0.42,0.54,0.75,-0.6,-0.13,-1.22,34.47,12.0,-0.94,0.2,0.54,0.77,-1.61,1.63,0.11
1900-01-01 15:14:16.878,31.74,24.25,3.19,0.41,0.53,0.75,-0.82,0.64,-1.44,34.25,12.01,-0.93,0.2,0.54,0.77,-1.34,1.93,-0.13
1900-01-01 15:14:16.972,31.8,24.22,3.13,0.41,0.53,0.75,-0.68,0.0,-0.44,33.9,12.16,-0.95,0.2,0.54,0.77,-1.37,0.95,0.07
1900-01-01 15:14:17.019,32.32,23.88,3.22,0.41,0.54,0.75,-0.33,-0.49,-0.79,34.14,11.7,-0.95,0.2,0.54,0.77,-1.36,1.06,0.09
1900-01-01 15:14:17.113,32.11,24.01,3.26,0.41,0.54,0.75,-0.52,-0.02,-1.47,34.59,11.77,-0.95,0.2,0.55,0.77,-1.44,1.67,0.13
1900-01-01 15:14:17.209,31.84,24.45,3.2,0.42,0.53,0.75,-0.38,0.11,-0.7,34.58,12.16,-0.94,0.2,0.55,0.77,-1.18,1.29,0.03
1900-01-01 15:14:17.255,31.72,23.76,3.25,0.41,0.53,0.75,-0.17,-0.05,-1.11,33.84,11.71,-0.94,0.2,0.54,0.77,-0.98,1.54,-0.32
1900-01-01 15:14:17.349,31.74,24.12,3.24,0.41,0.53,0.75,-0.95,0.15,-1.36,33.96,12.11,-1.0,0.2,0.54,0.77,-1.4,1.5,0.05
1900-01-01 15:14:17.396,32.03,24.13,3.19,0.41,0.53,0.75,-0.73,0.15,-1.16,34.25,11.76,-1.0,0.2,0.54,0.77,-1.62,1.49,-0.07
1900-01-01 15:14:17.490,32.26,23.77,3.17,0.41,0.54,0.75,-0.3,-0.61,-0.93,34.54,11.53,-1.02,0.19,0.55,0.77,-1.15,1.08,0.07
1900-01-01 15:14:17.584,32.01,23.97,3.19,0.41,0.53,0.75,-0.15,-0.85,-1.02,34.51,11.73,-1.01,0.2,0.55,0.77,-0.93,1.01,0.05
1900-01-01 15:14:17.631,31.71,23.92,3.19,0.41,0.53,0.75,-0.29,-0.86,-1.02,34.02,11.87,-1.02,0.2,0.54,0.77,-0.89,1.1,0.02
1900-01-01 15:14:17.709,31.82,24.12,3.19,0.41,0.53,0.75,-0.55,-0.56,-0.72,33.89,12.27,-1.02,0.2,0.54,0.77,-1.17,1.15,0.18
1900-01-01 15:14:17.772,32.01,24.08,3.24,0.41,0.53,0.75,-0.6,-0.61,-0.77,34.06,12.0,-1.0,0.2,0.54,0.77,-1.24,1.08,0.23
1900-01-01 15:14:17.867,32.2,24.18,3.28,0.41,0.54,0.75,-0.36,-0.64,-0.85,34.55,11.88,-0.98,0.2,0.54,0.77,-1.24,0.92,0.27
1900-01-01 15:14:17.961,32.12,24.32,3.31,0.42,0.54,0.75,-0.35,-0.57,-0.79,34.66,11.92,-0.94,0.2,0.55,0.77,-1.07,1.24,0.1
1900-01-01 15:14:18.008,31.78,24.22,3.35,0.41,0.53,0.75,-0.29,-0.79,-0.69,34.23,11.98,-0.94,0.2,0.54,0.77,-0.89,1.11,0.05
1900-01-01 15:14:18.103,31.61,24.5,3.4,0.42,0.53,0.75,-0.39,-0.53,-0.92,33.92,12.5,-0.94,0.21,0.54,0.77,-1.14,1.22,0.06
1900-01-01 15:14:18.196,31.95,24.41,3.42,0.42,0.53,0.75,-0.7,-0.22,-0.82,34.23,12.08,-0.94,0.2,0.54,0.77,-1.53,1.29,0.25
1900-01-01 15:14:18.242,32.03,24.59,3.45,0.42,0.53,0.74,-0.51,-0.24,-0.83,34.5,12.18,-0.91,0.2,0.55,0.77,-1.21,1.33,0.11
1900-01-01 15:14:18.337,31.34,24.73,3.48,0.42,0.53,0.75,-0.56,-0.54,-1.01,33.78,12.67,-0.9,0.21,0.54,0.77,-0.98,1.19,0.02
1900-01-01 15:14:18.384,31.68,24.31,3.49,0.42,0.53,0.75,-0.75,-0.37,-1.1,33.62,12.4,-0.9,0.21,0.53,0.77,-1.11,1.33,0.0
1900-01-01 15:14:18.479,32.03,24.35,3.48,0.42,0.53,0.75,-0.92,-0.21,-0.98,33.66,12.46,-0.91,0.21,0.53,0.77,-1.42,1.24,0.13
1900-01-01 15:14:18.574,32.28,24.32,3.49,0.42,0.54,0.74,-0.56,-0.27,-1.06,34.54,12.0,-0.9,0.2,0.55,0.77,-1.51,1.23,0.11
1900-01-01 15:14:18.620,32.13,24.24,3.49,0.41,0.53,0.74,-0.44,-0.3,-1.09,34.69,11.8,-0.89,0.2,0.55,0.77,-1.26,1.21,0.07
1900-01-01 15:14:18.711,31.8,24.46,3.48,0.42,0.53,0.75,-0.5,-0.33,-1.09,34.3,12.12,-0.89,0.2,0.54,0.77,-1.09,1.37,-0.04
1900-01-01 15:14:18.762,31.88,24.42,3.47,0.42,0.53,0.75,-0.66,-0.18,-0.95,34.1,12.24,-0.9,0.2,0.54,0.77,-1.33,1.27,0.05
1900-01-01 15:14:18.856,32.01,24.55,3.48,0.42,0.54,0.75,-0.57,-0.32,-0.82,34.42,12.15,-0.91,0.2,0.54,0.77,-1.42,1.13,0.18
1900-01-01 15:14:18.950,31.99,24.39,3.52,0.42,0.53,0.75,-0.32,-0.37,-1.17,34.49,12.01,-0.89,0.2,0.55,0.77,-1.23,1.37,-0.1
1900-01-01 15:14:18.996,31.79,24.5,3.5,0.42,0.53,0.75,-0.54,-0.27,-1.1,34.52,12.26,-0.91,0.2,0.54,0.77,-1.13,1.42,0.09
1900-01-01 15:14:19.090,31.73,24.55,3.49,0.42,0.53,0.75,-0.53,-0.31,-1.02,33.98,12.33,-0.9,0.21,0.54,0.77,-1.33,1.31,0.02
1900-01-01 15:14:19.184,32.15,24.17,3.49,0.41,0.54,0.75,-0.55,-0.35,-0.88,34.32,11.86,-0.91,0.2,0.54,0.77,-1.49,1.11,0.19
1900-01-01 15:14:19.232,33.02,24.12,3.51,0.41,0.55,0.74,-0.4,-0.19,-0.83,35.55,11.57,-0.89,0.19,0.56,0.76,-1.38,1.45,0.08
1900-01-01 15:14:19.327,32.67,24.27,3.55,0.42,0.55,0.74,-0.03,-0.54,-1.03,35.91,11.71,-0.88,0.2,0.57,0.76,-0.73,1.36,0.02
1900-01-01 15:14:19.374,31.46,24.33,3.55,0.42,0.53,0.75,-0.12,-0.44,-1.05,34.11,12.17,-0.89,0.2,0.54,0.77,-0.84,1.34,-0.08
1900-01-01 15:14:19.468,31.44,24.31,3.54,0.42,0.53,0.75,-0.65,-0.11,-0.95,33.44,12.48,-0.91,0.21,0.53,0.78,-1.26,1.28,0.09
1900-01-01 15:14:19.562,31.76,24.54,3.56,0.42,0.53,0.75,-0.95,-0.02,-1.04,33.71,12.48,-0.9,0.21,0.53,0.77,-1.56,1.4,0.08
1900-01-01 15:14:19.609,32.17,24.32,3.56,0.42,0.54,0.75,-0.63,-0.24,-1.12,34.48,12.14,-0.9,0.2,0.55,0.77,-1.5,1.37,0.08
1900-01-01 15:14:19.725,32.1,24.34,3.55,0.42,0.54,0.75,-0.39,-0.46,-1.13,34.84,11.84,-0.9,0.2,0.55,0.76,-1.22,1.31,-0.07
1900-01-01 15:14:19.798,32.18,24.3,3.53,0.41,0.54,0.74,-0.15,-0.61,-1.16,35.11,11.63,-0.92,0.19,0.55,0.76,-0.66,1.34,-0.27
1900-01-01 15:14:19.846,31.29,24.47,3.51,0.42,0.53,0.76,-0.56,0.1,-1.08,33.91,12.36,-0.97,0.21,0.54,0.77,-1.0,1.68,-0.16
1900-01-01 15:14:19.924,31.43,24.4,3.51,0.42,0.52,0.75,-1.04,0.56,-0.92,33.71,12.23,-1.0,0.2,0.53,0.77,-1.44,1.72,0.11
1900-01-01 15:14:20.019,32.05,24.21,3.53,0.41,0.53,0.75,-0.85,0.44,-0.94,33.95,12.18,-0.99,0.2,0.54,0.77,-1.82,1.31,0.29
1900-01-01 15:14:20.066,31.98,24.3,3.54,0.42,0.54,0.75,-0.59,-0.04,-0.99,33.89,12.32,-0.95,0.21,0.54,0.78,-1.83,1.28,0.22
1900-01-01 15:14:20.161,31.83,24.35,3.55,0.41,0.53,0.74,-0.11,-0.3,-1.35,34.16,12.17,-0.93,0.2,0.54,0.77,-1.23,1.23,-0.27
1900-01-01 15:14:20.254,32.37,24.27,3.5,0.42,0.54,0.75,-0.35,-0.21,-1.2,34.74,11.78,-0.98,0.2,0.55,0.77,-1.36,1.34,-0.05
1900-01-01 15:14:20.301,31.86,23.95,3.48,0.41,0.53,0.75,-0.19,-0.26,-1.15,34.42,11.84,-1.0,0.2,0.54,0.77,-0.92,1.43,-0.15
1900-01-01 15:14:20.395,31.82,24.2,3.46,0.41,0.53,0.75,-0.53,-0.18,-0.76,34.02,12.01,-1.03,0.2,0.54,0.77,-1.25,1.14,0.02
1900-01-01 15:14:20.442,32.41,24.1,3.5,0.41,0.54,0.75,-0.44,-0.4,-0.73,34.76,11.7,-1.03,0.2,0.55,0.77,-1.44,1.2,0.12
1900-01-01 15:14:20.536,32.12,24.07,3.55,0.41,0.54,0.75,-0.37,-0.43,-1.01,34.59,11.93,-1.02,0.2,0.54,0.76,-1.08,1.28,-0.01
1900-01-01 15:14:20.629,31.75,24.12,3.55,0.41,0.53,0.75,-0.65,-0.22,-0.93,33.93,12.3,-1.03,0.2,0.54,0.77,-1.11,1.28,0.08
1900-01-01 15:14:20.723,32.01,24.19,3.57,0.42,0.54,0.76,-0.73,-0.01,-0.9,34.19,12.27,-1.03,0.2,0.54,0.77,-1.39,1.47,0.07
1900-01-01 15:14:20.772,31.89,23.97,3.59,0.41,0.53,0.75,-0.85,0.06,-0.91,33.94,12.02,-1.03,0.2,0.54,0.77,-1.6,1.35,0.19
1900-01-01 15:14:20.820,31.88,24.08,3.61,0.41,0.53,0.75,-0.52,-0.29,-1.27,34.19,12.12,-1.01,0.2,0.54,0.77,-1.19,1.31,-0.02
1900-01-01 15:14:20.913,31.66,24.31,3.58,0.42,0.53,0.75,-0.73,-0.35,-1.0,34.0,12.21,-1.02,0.2,0.54,0.77,-1.18,1.34,-0.04
1900-01-01 15:14:21.007,31.75,23.97,3.58,0.41,0.53,0.75,-0.58,-0.52,-1.11,33.56,12.06,-1.03,0.2,0.53,0.77,-1.22,1.23,-0.01
1900-01-01 15:14:21.054,32.05,24.13,3.57,0.41,0.54,0.75,-0.64,-0.61,-1.06,34.06,12.11,-1.04,0.2,0.54,0.77,-1.27,1.12,0.05
1900-01-01 15:14:21.152,31.95,24.25,3.57,0.41,0.53,0.75,-0.36,-0.81,-1.24,34.84,11.72,-1.04,0.2,0.55,0.77,-0.83,1.26,-0.21
1900-01-01 15:14:21.244,32.15,23.92,3.53,0.41,0.54,0.75,-0.61,-0.4,-0.69,34.18,12.09,-1.08,0.2,0.54,0.77,-1.16,1.05,0.34
1900-01-01 15:14:21.292,31.65,24.09,3.59,0.41,0.53,0.75,-0.47,-0.6,-0.93,33.7,12.24,-1.04,0.2,0.53,0.77,-1.02,1.16,0.07
1900-01-01 15:14:21.387,31.9,24.24,3.6,0.41,0.53,0.75,-0.56,-0.43,-0.91,34.1,12.3,-1.04,0.21,0.54,0.77,-1.27,1.09,0.24
1900-01-01 15:14:21.435,31.87,24.33,3.62,0.42,0.53,0.75,-0.71,-0.49,-1.05,34.05,12.14,-1.01,0.2,0.54,0.77,-1.37,1.17,0.13
1900-01-01 15:14:21.528,32.49,23.87,3.62,0.41,0.54,0.74,-0.89,-0.21,-0.63,34.09,11.83,-1.0,0.2,0.54,0.77,-1.71,0.9,0.37
1900-01-01 15:14:21.622,32.02,24.47,3.69,0.42,0.54,0.75,-0.52,-0.39,-1.08,33.94,12.33,-0.95,0.21,0.54,0.77,-1.63,1.22,0.11
1900-01-01 15:14:21.728,32.43,24.48,3.68,0.42,0.54,0.74,-0.6,-0.29,-0.93,34.79,11.9,-0.95,0.2,0.55,0.77,-1.59,1.4,0.08
1900-01-01 15:14:21.765,32.08,24.28,3.7,0.41,0.53,0.74,-0.18,-0.5,-1.08,35.3,11.65,-0.94,0.19,0.56,0.76,-0.83,1.4,-0.15
1900-01-01 15:14:21.811,31.78,24.47,3.69,0.42,0.53,0.75,-0.17,-0.49,-0.95,34.57,12.07,-0.97,0.2,0.55,0.77,-0.91,1.29,-0.05
1900-01-01 15:14:21.905,31.56,24.21,3.7,0.41,0.53,0.75,-0.56,-0.29,-1.05,33.83,12.34,-0.99,0.21,0.54,0.77,-1.17,1.18,0.11
1900-01-01 15:14:21.999,32.16,24.38,3.7,0.42,0.54,0.74,-0.68,-0.25,-1.01,34.45,12.08,-0.98,0.2,0.54,0.77,-1.42,1.19,0.02
1900-01-01 15:14:22.045,31.97,24.36,3.71,0.42,0.54,0.75,-0.7,-0.1,-0.85,34.22,12.29,-0.99,0.2,0.54,0.77,-1.38,1.39,0.04
1900-01-01 15:14:22.140,32.07,24.35,3.74,0.42,0.54,0.75,-0.57,-0.06,-1.03,34.54,12.09,-0.99,0.2,0.55,0.77,-1.34,1.44,0.08
1900-01-01 15:14:22.234,31.73,24.4,3.74,0.42,0.53,0.75,-0.45,-0.35,-1.13,34.28,12.15,-0.98,0.2,0.54,0.77,-1.07,1.34,-0.01
1900-01-01 15:14:22.281,31.79,24.31,3.72,0.41,0.53,0.75,-0.23,-0.65,-0.62,33.91,12.25,-0.99,0.2,0.54,0.77,-1.01,1.01,0.36
1900-01-01 15:14:22.375,32.02,24.44,3.79,0.42,0.54,0.75,-0.34,-0.21,-0.76,34.38,12.26,-0.95,0.2,0.54,0.77,-1.22,1.35,0.34
1900-01-01 15:14:22.422,32.18,24.28,3.83,0.42,0.55,0.76,-1.09,1.7,-1.75,34.34,12.25,-0.9,0.2,0.54,0.77,-1.72,2.8,-0.39
1900-01-01 15:14:22.515,32.14,24.13,3.72,0.42,0.54,0.75,-0.64,3.57,-3.54,34.5,12.12,-0.97,0.2,0.55,0.77,-1.95,2.76,-1.29
1900-01-01 15:14:22.609,32.42,22.86,3.34,0.38,0.53,0.74,-1.09,3.01,-3.6,34.42,11.08,-1.18,0.18,0.54,0.77,-1.81,1.54,-0.54
1900-01-01 15:14:22.656,31.82,22.71,2.95,0.39,0.53,0.77,-0.07,0.92,-5.05,33.71,11.66,-1.27,0.19,0.53,0.77,-0.24,2.38,-1.24
1900-01-01 15:14:22.730,32.65,22.29,2.34,0.38,0.54,0.76,-0.79,1.89,-4.63,34.86,11.11,-1.46,0.19,0.55,0.77,-0.84,2.31,-0.5
1900-01-01 15:14:22.845,32.88,21.23,1.79,0.36,0.54,0.75,-1.69,1.39,-2.17,34.64,10.95,-1.55,0.18,0.55,0.77,-1.73,1.24,0.74
1900-01-01 15:14:22.893,32.73,21.46,1.62,0.37,0.54,0.76,-1.19,0.08,-1.8,34.71,11.18,-1.44,0.19,0.55,0.77,-1.15,0.85,0.29
1900-01-01 15:14:22.988,32.22,21.3,1.5,0.36,0.54,0.77,-0.25,-0.97,-1.79,33.81,11.43,-1.41,0.19,0.54,0.78,-0.89,0.51,-0.29
1900-01-01 15:14:23.035,32.57,21.34,1.39,0.37,0.54,0.77,-0.47,-0.59,-1.37,33.94,11.67,-1.46,0.19,0.54,0.77,-1.63,0.78,0.24
1900-01-01 15:14:23.129,32.62,21.36,1.34,0.36,0.54,0.76,-0.86,-0.18,-0.79,34.36,11.44,-1.43,0.19,0.54,0.77,-1.44,1.07,0.32
1900-01-01 15:14:23.223,32.54,21.67,1.38,0.37,0.54,0.76,-0.66,-0.67,-0.38,34.5,11.79,-1.39,0.2,0.55,0.77,-1.1,0.84,0.31
1900-01-01 15:14:23.271,32.18,21.47,1.48,0.37,0.53,0.76,-0.63,-0.54,-0.59,34.02,11.6,-1.36,0.19,0.54,0.77,-1.25,0.92,0.13
1900-01-01 15:14:23.365,32.86,21.48,1.55,0.37,0.55,0.76,-0.6,-1.15,-0.39,34.81,11.17,-1.34,0.19,0.55,0.77,-0.85,0.75,-0.05
1900-01-01 15:14:23.412,32.29,21.41,1.65,0.37,0.54,0.77,-0.64,-0.31,-0.83,33.71,12.04,-1.36,0.2,0.53,0.77,-1.51,0.85,0.22
1900-01-01 15:14:23.506,32.1,21.71,1.68,0.38,0.54,0.77,-1.01,0.54,-1.05,33.85,12.16,-1.34,0.2,0.54,0.77,-1.23,1.99,0.04
1900-01-01 15:14:23.600,33.11,21.56,1.68,0.37,0.55,0.76,-3.58,4.26,-1.52,31.27,13.22,-1.34,0.22,0.5,0.79,-3.47,-1.66,-3.13
1900-01-01 15:14:23.649,30.56,21.0,1.6,0.36,0.51,0.78,-6.6,5.12,-3.1,31.96,12.11,-1.83,0.2,0.52,0.8,10.73,-9.83,-4.11
1900-01-01 15:14:23.747,31.93,19.89,1.29,0.34,0.53,0.78,-0.09,1.95,-1.57,39.79,11.75,-2.46,0.19,0.61,0.71,7.95,0.44,-0.73
1900-01-01 15:14:23.835,32.06,20.17,1.21,0.35,0.53,0.78,-0.07,2.66,-1.2,38.48,12.07,-2.58,0.2,0.6,0.73,-8.53,3.59,-0.25
1900-01-01 15:14:23.883,29.93,17.89,1.18,0.31,0.5,0.81,-0.8,0.5,-1.64,33.71,12.21,-2.63,0.2,0.53,0.76,0.79,-0.07,-0.76
1900-01-01 15:14:23.976,32.63,20.13,1.09,0.35,0.55,0.78,1.92,-0.54,-2.97,38.3,11.91,-2.75,0.2,0.6,0.73,-0.8,0.91,-1.28
1900-01-01 15:14:24.024,31.86,19.02,0.79,0.33,0.53,0.78,0.44,-0.05,-2.62,35.91,11.49,-2.96,0.19,0.56,0.75,-2.3,1.53,-0.03
1900-01-01 15:14:24.118,32.27,19.13,0.55,0.33,0.53,0.78,1.5,0.4,-2.7,37.56,11.79,-2.97,0.2,0.59,0.74,-2.04,3.44,-1.5
1900-01-01 15:14:24.215,32.97,18.79,0.3,0.32,0.54,0.78,-3.05,0.26,0.22,34.21,11.29,-3.21,0.19,0.54,0.77,-6.4,0.56,1.76
1900-01-01 15:14:24.259,33.15,18.65,0.49,0.32,0.55,0.78,1.22,-1.77,0.38,37.19,10.91,-2.95,0.18,0.58,0.75,1.18,1.31,0.45
1900-01-01 15:14:24.353,32.16,19.19,0.71,0.33,0.53,0.78,0.98,-1.36,0.88,35.18,11.87,-2.89,0.2,0.55,0.76,-0.7,1.92,1.92
1900-01-01 15:14:24.400,33.57,20.04,1.0,0.34,0.55,0.76,2.51,-3.02,0.74,37.6,11.65,-2.6,0.19,0.59,0.74,-1.66,2.01,2.31
1900-01-01 15:14:24.494,33.05,20.14,1.27,0.34,0.54,0.76,-0.13,-3.22,1.02,34.25,11.97,-2.26,0.2,0.54,0.77,-4.3,0.44,1.84
1900-01-01 15:14:24.588,33.64,21.09,1.59,0.36,0.56,0.75,1.56,-4.98,0.84,36.07,12.19,-1.99,0.2,0.57,0.75,-0.43,-0.56,0.96
1900-01-01 15:14:24.634,33.32,21.34,1.87,0.37,0.56,0.76,0.18,-3.76,0.66,35.9,12.14,-1.85,0.2,0.56,0.75,-1.47,0.08,0.57
1900-01-01 15:14:24.748,33.07,21.68,2.13,0.37,0.55,0.76,-0.65,-1.94,0.24,35.66,12.34,-1.77,0.21,0.56,0.75,-1.49,0.76,0.55
1900-01-01 15:14:24.823,33.01,22.13,2.32,0.38,0.55,0.76,-1.47,-0.41,0.19,35.56,12.68,-1.7,0.21,0.56,0.75,-1.75,1.45,0.54
1900-01-01 15:14:24.869,32.84,22.4,2.51,0.38,0.54,0.75,-1.34,-0.16,0.0,35.39,12.65,-1.62,0.21,0.56,0.76,-1.69,1.26,0.39
1900-01-01 15:14:24.963,33.09,22.11,2.67,0.38,0.55,0.76,-0.9,-0.81,-0.51,35.39,12.6,-1.57,0.21,0.56,0.76,-1.58,0.95,0.25
1900-01-01 15:14:25.010,32.65,22.41,2.75,0.38,0.54,0.76,-0.56,-1.31,-0.93,35.2,12.71,-1.54,0.21,0.56,0.76,-1.21,0.92,0.08
1900-01-01 15:14:25.103,32.52,22.5,2.77,0.39,0.55,0.76,-0.67,-0.82,-1.23,35.27,12.88,-1.54,0.21,0.56,0.76,-1.24,1.27,-0.24
1900-01-01 15:14:25.199,32.55,22.37,2.74,0.38,0.54,0.76,-1.05,0.14,-0.91,35.06,12.85,-1.58,0.21,0.55,0.76,-1.69,1.6,0.1
1900-01-01 15:14:25.247,32.56,22.43,2.76,0.38,0.54,0.75,-1.08,0.11,-0.7,35.45,12.67,-1.58,0.21,0.56,0.76,-1.56,1.51,0.3
1900-01-01 15:14:25.341,32.58,22.39,2.81,0.38,0.54,0.76,-0.6,-0.42,-0.5,35.26,12.61,-1.54,0.21,0.56,0.76,-1.34,1.21,0.23
1900-01-01 15:14:25.434,32.26,22.68,2.89,0.39,0.54,0.76,-0.5,-0.73,-0.75,34.92,12.82,-1.51,0.21,0.55,0.76,-1.03,1.22,0.04
1900-01-01 15:14:25.482,32.66,22.55,2.94,0.39,0.54,0.75,-0.56,-0.28,-0.85,35.38,12.81,-1.52,0.21,0.56,0.76,-1.63,1.15,0.27
1900-01-01 15:14:25.576,32.5,22.52,2.97,0.39,0.54,0.76,-0.48,-0.16,-1.02,35.42,12.68,-1.48,0.21,0.56,0.76,-1.26,1.41,0.04
1900-01-01 15:14:25.623,32.52,22.61,2.97,0.39,0.54,0.76,-0.79,-0.05,-0.82,35.33,12.67,-1.49,0.21,0.56,0.76,-1.29,1.44,0.0
1900-01-01 15:14:25.767,32.47,22.47,3.0,0.38,0.54,0.75,-0.47,-0.17,-1.03,35.19,12.61,-1.49,0.21,0.55,0.76,-1.21,1.16,0.08
1900-01-01 15:14:25.811,32.42,22.52,3.01,0.39,0.54,0.76,-0.79,-0.1,-1.05,34.92,12.95,-1.49,0.22,0.55,0.76,-1.29,1.43,-0.02
1900-01-01 15:14:25.858,32.41,22.41,3.0,0.38,0.54,0.76,-0.82,-0.25,-1.07,35.1,12.75,-1.5,0.21,0.55,0.76,-1.23,1.38,-0.08
