Time,Roll2,Pitch2,Yaw2,AccX2,AccY2,AccZ2,RotX2,RotY2,RotZ2,Roll1,Pitch1,Yaw1,AccX1,AccY1,AccZ1,RotX1,RotY1,RotZ1
1900-01-01 12:33:36.551,28.56,18.3,22.76,0.31,0.47,0.8,-1.05,1.52,0.02,3.99,13.98,32.65,0.25,0.07,0.99,-0.29,-0.02,-0.66
1900-01-01 12:33:36.644,28.55,18.12,22.75,0.3,0.46,0.8,-1.34,1.6,0.31,4.19,13.65,32.7,0.24,0.07,0.99,-0.45,-0.3,-0.4
1900-01-01 12:33:36.692,28.35,18.3,22.79,0.3,0.46,0.8,-1.15,1.3,-0.02,3.76,13.97,32.8,0.25,0.07,0.99,-0.49,-0.26,-0.83
1900-01-01 12:33:36.786,28.35,18.09,22.78,0.3,0.46,0.8,-1.08,1.58,0.14,4.07,13.77,32.83,0.24,0.07,0.99,-0.5,0.01,-0.55
1900-01-01 12:33:36.879,28.13,18.26,22.79,0.3,0.46,0.8,-1.67,1.51,0.04,3.85,13.81,32.91,0.24,0.07,0.99,-1.21,-0.24,-0.71
1900-01-01 12:33:36.925,28.19,18.1,22.79,0.3,0.46,0.8,-0.83,1.29,0.01,3.67,13.52,32.96,0.24,0.07,0.99,-0.2,-0.13,-0.89
1900-01-01 12:33:37.019,27.97,18.11,22.78,0.3,0.45,0.8,-1.69,1.47,-0.15,3.5,13.83,32.98,0.24,0.06,0.99,-1.51,-0.31,-0.76
1900-01-01 12:33:37.112,28.28,18.28,22.75,0.31,0.46,0.8,-1.81,1.24,-0.08,4.29,13.74,33.02,0.24,0.08,0.99,-1.0,-0.64,-0.97
1900-01-01 12:33:37.159,28.05,18.22,22.73,0.3,0.45,0.8,-1.21,1.17,-0.02,3.78,13.63,33.03,0.24,0.07,0.98,-0.22,-0.68,-0.89
1900-01-01 12:33:37.253,28.16,17.93,22.72,0.3,0.46,0.8,-1.33,1.76,-0.15,3.75,13.56,33.05,0.24,0.07,0.98,-1.05,0.29,-0.69
1900-01-01 12:33:37.300,28.09,18.18,22.68,0.3,0.46,0.8,-1.56,1.31,-0.26,3.9,13.72,33.11,0.24,0.07,0.99,-1.13,-0.34,-1.11
1900-01-01 12:33:37.394,28.5,17.93,22.64,0.3,0.46,0.8,-1.42,0.76,-0.42,4.0,13.46,33.1,0.24,0.07,0.99,-0.37,-0.17,-1.35
1900-01-01 12:33:37.486,28.74,17.89,22.56,0.3,0.47,0.79,-1.03,0.95,-0.18,4.23,13.33,33.05,0.23,0.08,0.99,-0.01,-0.16,-0.92
1900-01-01 12:33:37.532,28.03,17.9,22.53,0.3,0.45,0.8,-0.79,1.26,-0.23,3.79,13.63,33.07,0.24,0.07,0.98,-0.36,0.08,-1.16
1900-01-01 12:33:37.626,28.36,18.13,22.49,0.3,0.46,0.8,-0.74,0.95,-0.39,4.08,13.74,33.05,0.24,0.07,0.98,-0.24,-0.37,-1.57
1900-01-01 12:33:37.722,28.33,17.8,22.42,0.3,0.46,0.8,-1.02,0.99,-0.56,3.89,13.46,32.97,0.24,0.07,0.99,-0.5,0.02,-1.43
1900-01-01 12:33:37.769,28.51,17.7,22.32,0.29,0.46,0.8,-1.29,0.77,-0.79,3.8,13.2,32.91,0.23,0.07,0.99,-0.47,-0.2,-1.76
1900-01-01 12:33:37.860,28.91,18.08,22.19,0.3,0.47,0.79,-0.69,0.98,-0.72,4.48,13.37,32.8,0.23,0.08,0.98,0.09,-0.12,-1.71
1900-01-01 12:33:37.955,29.11,18.41,22.08,0.31,0.48,0.8,-1.09,1.44,-0.58,4.97,13.51,32.7,0.24,0.09,0.99,-0.47,0.47,-1.4
1900-01-01 12:33:38.002,29.11,18.4,21.98,0.31,0.48,0.8,-0.72,0.99,0.05,4.77,13.4,32.64,0.24,0.09,0.99,0.55,-0.22,-1.08
1900-01-01 12:33:38.097,28.9,17.89,21.98,0.3,0.47,0.79,-1.21,1.27,0.24,4.4,13.12,32.63,0.23,0.08,0.99,-0.22,-0.28,-0.64
1900-01-01 12:33:38.145,28.66,17.79,22.01,0.3,0.47,0.8,-1.24,1.13,0.23,3.63,13.36,32.7,0.23,0.06,0.98,-0.27,-1.05,-0.69
1900-01-01 12:33:38.240,28.86,17.7,22.03,0.29,0.46,0.79,-0.73,1.19,-0.03,4.13,13.11,32.75,0.23,0.07,0.98,0.39,0.19,-0.98
1900-01-01 12:33:38.334,28.76,18.0,22.02,0.3,0.47,0.79,-0.71,1.4,-0.28,4.49,13.38,32.76,0.23,0.08,0.98,-0.1,0.36,-1.18
1900-01-01 12:33:38.381,28.86,18.01,21.97,0.3,0.47,0.8,-1.05,0.98,-0.08,4.55,13.24,32.74,0.23,0.08,0.99,-0.08,-0.43,-1.09
1900-01-01 12:33:38.474,28.69,18.11,21.95,0.3,0.47,0.8,-1.23,1.02,-0.16,4.23,13.56,32.73,0.24,0.08,0.99,-0.22,-0.29,-1.02
1900-01-01 12:33:38.521,29.08,18.11,21.91,0.3,0.47,0.79,-1.12,1.17,0.15,4.95,13.22,32.73,0.23,0.09,0.99,-0.02,-0.4,-0.89
1900-01-01 12:33:38.614,28.92,17.99,21.93,0.3,0.47,0.79,-1.04,1.33,-0.08,4.64,13.39,32.75,0.23,0.08,0.98,-0.09,-0.27,-0.93
1900-01-01 12:33:38.710,29.02,18.05,21.91,0.3,0.47,0.79,-1.4,1.31,-0.26,4.45,13.28,32.77,0.23,0.08,0.99,-0.68,-0.26,-0.98
1900-01-01 12:33:38.756,29.04,18.0,21.86,0.3,0.47,0.79,-1.08,1.45,-0.27,4.6,13.25,32.78,0.23,0.08,0.99,-0.52,0.14,-1.06
1900-01-01 12:33:38.848,29.1,18.09,21.81,0.3,0.47,0.79,-1.18,1.53,-0.18,4.9,13.36,32.78,0.24,0.09,0.99,0.02,0.13,-0.9
1900-01-01 12:33:38.942,29.02,17.85,21.77,0.3,0.47,0.79,-1.24,1.43,0.21,4.63,13.17,32.8,0.23,0.08,0.99,-0.47,-0.27,-0.55
1900-01-01 12:33:38.989,29.15,17.85,21.8,0.3,0.47,0.79,-1.24,1.34,0.21,4.74,13.31,32.87,0.23,0.08,0.98,-0.31,-0.31,-0.66
1900-01-01 12:33:39.083,29.03,17.78,21.82,0.3,0.47,0.79,-1.62,1.45,0.18,4.39,13.06,32.93,0.23,0.08,0.99,-1.18,-0.43,-0.56
1900-01-01 12:33:39.130,28.73,17.89,21.84,0.3,0.47,0.79,-2.05,1.36,0.11,4.35,13.39,33.0,0.23,0.08,0.98,-1.59,-0.57,-0.69
1900-01-01 12:33:39.222,28.96,17.96,21.85,0.3,0.47,0.79,-2.64,1.78,0.12,5.07,13.28,33.05,0.23,0.09,0.98,-2.26,-0.67,-0.5
1900-01-01 12:33:39.315,28.82,17.86,21.86,0.3,0.47,0.8,-0.95,1.8,-0.03,4.18,13.42,33.14,0.24,0.07,0.98,-0.22,0.33,-0.62
1900-01-01 12:33:39.361,28.38,17.64,21.85,0.29,0.46,0.8,-1.09,1.57,-0.36,3.56,13.16,33.2,0.23,0.06,1.0,-1.0,0.21,-0.96
1900-01-01 12:33:39.454,28.78,17.25,21.78,0.29,0.46,0.8,-1.6,1.4,-0.51,3.97,12.92,33.21,0.23,0.07,0.99,-1.27,0.01,-1.2
1900-01-01 12:33:39.548,28.8,17.5,21.7,0.29,0.47,0.8,-1.21,1.37,-0.26,4.4,13.05,33.19,0.23,0.08,0.98,-0.69,0.01,-1.05
1900-01-01 12:33:39.595,29.1,17.61,21.65,0.29,0.47,0.79,-1.19,1.24,-0.01,4.13,12.95,33.19,0.23,0.07,0.99,-0.6,-0.24,-0.95
1900-01-01 12:33:39.685,29.14,17.69,21.64,0.3,0.47,0.8,-1.42,1.39,0.08,4.42,13.12,33.2,0.23,0.08,0.99,-0.51,-0.06,-0.66
1900-01-01 12:33:39.778,28.97,17.45,21.64,0.29,0.47,0.8,-1.05,1.22,0.26,4.31,12.8,33.26,0.23,0.08,0.99,0.14,-0.31,-0.69
1900-01-01 12:33:39.823,28.56,17.39,21.67,0.29,0.46,0.8,-0.95,1.07,0.11,3.78,13.13,33.31,0.23,0.07,0.99,-0.19,-0.46,-0.88
1900-01-01 12:33:39.918,28.61,17.6,21.68,0.29,0.46,0.79,-1.35,0.93,-0.11,3.85,13.15,33.34,0.23,0.07,0.98,-0.4,-0.79,-1.02
1900-01-01 12:33:40.012,28.78,17.62,21.66,0.29,0.47,0.8,-1.84,1.25,-0.32,4.44,13.14,33.34,0.23,0.08,0.98,-1.48,-0.35,-1.14
1900-01-01 12:33:40.057,28.86,17.7,21.6,0.3,0.47,0.8,-1.49,1.21,0.0,4.19,13.12,33.33,0.23,0.07,0.99,-0.66,-0.57,-1.0
1900-01-01 12:33:40.149,29.48,17.56,21.59,0.29,0.48,0.79,-1.4,1.08,0.14,4.53,12.74,33.33,0.22,0.08,0.99,-0.18,-0.47,-0.88
1900-01-01 12:33:40.196,29.45,17.57,21.6,0.29,0.48,0.79,-1.41,0.87,-0.11,4.52,12.9,33.36,0.23,0.08,0.98,-0.16,-0.39,-1.03
1900-01-01 12:33:40.290,29.45,17.78,21.58,0.3,0.48,0.79,-0.5,1.12,0.0,4.73,13.03,33.36,0.23,0.08,0.98,0.62,0.21,-0.9
1900-01-01 12:33:40.384,28.83,17.65,21.57,0.3,0.47,0.8,-1.0,1.13,-0.23,4.31,13.2,33.38,0.23,0.08,0.99,-0.56,-0.14,-1.24
1900-01-01 12:33:40.431,28.95,17.47,21.53,0.29,0.47,0.79,-1.26,0.84,-0.05,4.21,12.66,33.35,0.22,0.08,1.0,-0.5,-0.65,-0.96
1900-01-01 12:33:40.525,28.76,17.57,21.51,0.29,0.46,0.79,-1.64,0.95,-0.25,4.3,13.05,33.36,0.23,0.08,0.98,-1.12,-0.44,-1.16
1900-01-01 12:33:40.618,28.68,17.97,21.46,0.3,0.46,0.79,-1.22,1.34,-0.37,4.49,13.39,33.34,0.23,0.08,0.98,-0.89,0.07,-1.14
1900-01-01 12:33:40.665,28.75,17.91,21.4,0.3,0.47,0.8,-0.74,1.18,0.02,4.57,13.23,33.33,0.23,0.08,0.99,-0.05,-0.26,-1.0
1900-01-01 12:33:40.760,28.55,17.96,21.39,0.3,0.46,0.8,-1.42,1.05,-0.09,4.02,13.38,33.33,0.24,0.07,0.99,-0.77,-0.56,-1.02
1900-01-01 12:33:40.807,29.12,17.62,21.37,0.29,0.47,0.79,-1.58,1.15,0.05,4.63,12.93,33.33,0.23,0.08,0.99,-0.72,-0.53,-0.92
1900-01-01 12:33:40.901,28.71,17.83,21.37,0.3,0.46,0.79,-1.44,1.05,-0.04,4.29,13.17,33.35,0.23,0.08,0.98,-0.72,-0.66,-0.95
1900-01-01 12:33:40.994,29.07,17.81,21.35,0.29,0.47,0.79,-1.02,1.07,-0.1,4.46,13.12,33.37,0.23,0.08,0.98,-0.53,-0.3,-1.06
1900-01-01 12:33:41.041,28.69,17.88,21.33,0.3,0.47,0.8,-1.11,1.31,-0.27,4.39,13.41,33.36,0.23,0.08,0.98,-0.56,-0.09,-0.98
1900-01-01 12:33:41.135,28.96,17.67,21.28,0.3,0.47,0.8,-1.27,0.92,-0.32,4.45,12.97,33.37,0.23,0.08,1.0,-0.44,-0.38,-1.44
1900-01-01 12:33:41.229,29.16,17.79,21.22,0.29,0.47,0.79,-1.11,1.0,0.03,4.57,13.03,33.31,0.23,0.08,0.98,-0.42,-0.53,-0.93
1900-01-01 12:33:41.278,28.83,17.57,21.22,0.29,0.46,0.79,-1.34,1.02,-0.15,4.15,13.12,33.33,0.23,0.07,0.98,-0.91,-0.52,-1.14
1900-01-01 12:33:41.371,29.19,17.42,21.19,0.29,0.47,0.79,-1.28,0.63,-0.48,4.28,12.73,33.31,0.22,0.08,0.99,-1.02,-0.21,-1.69
1900-01-01 12:33:41.418,29.35,17.22,21.11,0.28,0.47,0.79,-1.64,0.19,0.26,4.63,12.14,33.21,0.21,0.08,0.99,-1.13,-1.18,-1.43
1900-01-01 12:33:41.513,28.57,17.45,21.14,0.28,0.45,0.78,0.1,-0.7,0.17,3.11,13.21,33.15,0.23,0.05,0.97,0.76,-1.21,-1.68
1900-01-01 12:33:41.606,30.56,17.33,21.16,0.28,0.48,0.77,2.18,-2.23,-1.15,5.13,12.16,33.06,0.21,0.09,0.96,2.57,-0.5,-4.35
1900-01-01 12:33:41.653,29.86,18.76,20.97,0.31,0.48,0.78,1.95,-0.7,0.03,5.64,12.54,32.55,0.22,0.1,0.99,1.38,0.01,-2.01
1900-01-01 12:33:41.747,29.87,20.12,20.97,0.34,0.49,0.78,1.02,-0.66,-0.34,5.39,14.56,32.4,0.26,0.1,0.99,0.55,0.11,-2.27
1900-01-01 12:33:41.842,30.77,20.33,20.91,0.34,0.5,0.77,0.46,-1.8,-0.3,6.37,14.07,32.22,0.25,0.11,0.99,0.29,-1.5,-3.08
1900-01-01 12:33:41.889,30.84,20.28,20.85,0.33,0.49,0.76,0.73,-0.53,0.08,6.61,13.8,31.91,0.24,0.12,0.97,1.12,-1.23,-1.82
1900-01-01 12:33:41.983,31.04,19.57,20.86,0.32,0.5,0.76,-0.16,0.61,-0.56,5.88,13.46,31.79,0.23,0.1,0.97,-1.17,0.76,-1.63
1900-01-01 12:33:42.030,31.4,19.45,20.76,0.33,0.51,0.77,-0.5,1.24,-1.19,5.73,13.36,31.7,0.24,0.1,0.99,-0.89,0.61,-1.79
1900-01-01 12:33:42.125,31.38,19.05,20.57,0.31,0.5,0.75,2.08,-0.69,-1.95,4.71,12.51,31.58,0.22,0.08,1.0,0.55,-0.22,-4.26
1900-01-01 12:33:42.219,31.15,21.26,20.27,0.35,0.5,0.74,1.61,3.08,-1.82,7.49,14.59,31.09,0.25,0.13,0.94,0.06,1.81,-2.79
1900-01-01 12:33:42.265,32.25,19.99,19.98,0.34,0.52,0.76,-0.45,2.88,-2.5,6.93,13.58,30.83,0.24,0.12,0.97,-1.79,2.31,-2.16
1900-01-01 12:33:42.358,32.9,18.98,19.59,0.33,0.55,0.78,-2.19,3.45,-1.64,6.71,11.65,30.66,0.22,0.13,1.04,-3.56,3.23,-0.62
1900-01-01 12:33:42.405,32.72,18.39,19.33,0.32,0.54,0.78,-3.49,3.21,1.15,6.41,11.38,30.72,0.21,0.12,1.04,-3.11,0.15,1.24
1900-01-01 12:33:42.499,32.59,16.98,19.5,0.28,0.51,0.75,-3.27,1.15,1.27,4.57,11.15,31.07,0.19,0.08,0.99,-1.61,-2.54,0.31
1900-01-01 12:33:42.593,32.16,17.68,19.68,0.29,0.51,0.76,-2.11,1.11,-0.43,4.74,11.87,31.27,0.2,0.08,0.97,-1.85,-0.58,-1.03
1900-01-01 12:33:42.641,32.57,18.22,19.61,0.31,0.53,0.76,-2.37,1.05,-0.69,5.74,11.67,31.27,0.21,0.1,0.99,-2.19,-0.53,-1.73
1900-01-01 12:33:42.733,31.58,18.87,19.5,0.32,0.51,0.77,-1.56,1.89,1.08,5.61,12.15,31.17,0.22,0.1,1.0,-1.29,-0.5,0.27
1900-01-01 12:33:42.827,31.14,18.95,19.65,0.32,0.5,0.77,-2.21,0.95,1.12,4.29,12.94,31.37,0.23,0.08,0.99,-1.16,-1.62,0.08
1900-01-01 12:33:42.873,31.32,18.76,19.81,0.31,0.5,0.76,-1.43,-0.04,0.62,4.17,12.85,31.54,0.22,0.07,0.98,-0.13,-1.73,-0.89
1900-01-01 12:33:42.966,31.66,18.57,19.9,0.3,0.5,0.75,-1.31,0.47,-0.05,4.78,12.4,31.56,0.21,0.08,0.97,-0.58,-1.24,-1.32
1900-01-01 12:33:43.059,31.51,18.53,19.88,0.31,0.5,0.76,-0.99,1.43,-0.76,4.7,12.56,31.52,0.22,0.08,0.98,-1.46,0.27,-1.41
1900-01-01 12:33:43.106,31.69,18.64,19.76,0.31,0.51,0.77,-0.42,1.26,-0.89,4.54,12.57,31.46,0.22,0.08,0.99,-0.1,0.02,-1.73
1900-01-01 12:33:43.200,32.01,18.91,19.62,0.32,0.52,0.76,-0.75,0.83,-1.03,5.02,12.46,31.36,0.22,0.09,1.0,0.15,-0.02,-1.9
1900-01-01 12:33:43.246,32.25,19.04,19.45,0.32,0.52,0.76,-0.59,0.51,-0.54,5.33,12.4,31.22,0.22,0.09,0.99,0.3,-0.42,-1.69
1900-01-01 12:33:43.340,32.22,18.74,19.36,0.31,0.52,0.76,-0.62,0.87,-0.08,5.5,12.13,31.12,0.21,0.1,0.99,0.01,-0.31,-1.24
1900-01-01 12:33:43.433,31.92,19.05,19.34,0.32,0.51,0.76,-0.82,0.95,-0.36,5.16,12.71,31.09,0.22,0.09,0.98,-0.27,-0.36,-1.18
1900-01-01 12:33:43.481,31.91,18.86,19.27,0.31,0.51,0.76,-0.91,1.34,-0.6,5.02,12.44,31.07,0.22,0.09,0.99,-0.55,0.26,-1.23
1900-01-01 12:33:43.575,32.29,18.65,19.17,0.31,0.52,0.76,-1.19,1.12,-0.53,5.33,12.13,31.04,0.21,0.09,0.99,-0.34,-0.18,-1.44
1900-01-01 12:33:43.669,32.62,18.56,19.09,0.31,0.52,0.76,-1.44,1.11,0.0,5.58,12.0,30.98,0.21,0.1,0.99,-0.58,-0.34,-0.89
1900-01-01 12:33:43.715,32.54,18.59,19.08,0.31,0.52,0.76,-1.07,0.96,0.21,5.42,11.86,31.01,0.21,0.1,0.99,-0.29,-0.52,-0.82
1900-01-01 12:33:43.807,32.18,18.63,19.1,0.31,0.51,0.76,-1.08,0.7,0.22,4.92,12.24,31.04,0.22,0.09,0.99,-0.4,-0.8,-1.01
1900-01-01 12:33:43.853,32.37,18.97,19.13,0.31,0.51,0.75,-1.15,1.15,-0.24,5.29,12.63,31.04,0.22,0.09,0.97,-0.91,-0.42,-1.27
1900-01-01 12:33:43.946,32.23,19.37,19.08,0.32,0.52,0.75,-0.9,2.05,-0.52,5.57,12.81,31.01,0.22,0.1,0.97,-1.21,0.16,-0.85
1900-01-01 12:33:44.039,32.38,18.81,18.99,0.31,0.52,0.76,-1.18,1.91,-0.83,4.87,12.41,31.03,0.22,0.09,1.0,-1.6,0.68,-1.09
1900-01-01 12:33:44.086,32.6,18.48,18.86,0.31,0.53,0.77,-1.55,1.64,-0.27,5.1,11.97,31.03,0.21,0.09,1.01,-1.05,0.14,-0.82
1900-01-01 12:33:44.181,32.7,18.12,18.81,0.3,0.53,0.76,-1.21,1.07,0.24,5.02,11.76,31.06,0.21,0.09,1.0,-0.27,-0.15,-0.72
1900-01-01 12:33:44.274,32.34,18.26,18.84,0.3,0.52,0.76,-1.41,0.78,0.22,4.6,12.1,31.11,0.21,0.08,0.99,-0.07,-0.65,-0.84
1900-01-01 12:33:44.321,32.44,18.77,18.86,0.31,0.52,0.75,-1.14,0.82,-0.19,5.09,12.52,31.14,0.22,0.09,0.97,0.01,-0.92,-1.4
1900-01-01 12:33:44.414,32.47,18.91,18.82,0.31,0.52,0.75,-1.08,1.32,-0.37,5.37,12.35,31.08,0.22,0.09,0.98,-0.38,-0.09,-1.11
1900-01-01 12:33:44.508,32.54,18.79,18.76,0.31,0.52,0.76,-1.48,1.37,0.04,5.44,12.02,31.07,0.21,0.1,1.0,-0.96,-0.18,-0.78
1900-01-01 12:33:44.555,32.38,18.55,18.75,0.31,0.52,0.76,-1.53,0.97,0.37,4.91,12.2,31.11,0.22,0.09,0.99,-0.73,-0.84,-0.52
1900-01-01 12:33:44.649,32.18,18.43,18.8,0.3,0.51,0.76,-1.66,0.63,0.12,4.62,11.94,31.19,0.21,0.08,0.99,-0.95,-1.18,-1.06
1900-01-01 12:33:44.695,32.34,18.83,18.81,0.31,0.52,0.75,-1.37,1.47,-0.52,5.07,12.45,31.19,0.22,0.09,0.97,-1.02,-0.02,-1.08
1900-01-01 12:33:44.790,32.53,19.07,18.73,0.32,0.52,0.76,-1.12,1.69,-0.63,5.4,12.51,31.18,0.22,0.1,0.99,-0.87,0.56,-1.31
1900-01-01 12:33:44.966,32.43,19.01,18.62,0.32,0.52,0.76,-1.03,1.63,0.14,5.26,12.24,31.14,0.22,0.09,1.0,-0.59,0.08,-0.6
1900-01-01 12:33:44.966,32.3,18.62,18.63,0.31,0.52,0.76,-1.11,1.75,0.63,5.06,12.08,31.21,0.21,0.09,0.99,-0.46,-0.21,0.02
1900-01-01 12:33:45.017,32.24,18.4,18.72,0.3,0.51,0.76,-1.62,1.82,0.45,4.67,12.08,31.37,0.21,0.08,0.99,-1.04,-0.41,-0.03
1900-01-01 12:33:45.106,32.29,18.11,18.78,0.3,0.52,0.76,-1.45,1.5,-0.02,4.47,11.6,31.52,0.2,0.08,0.99,-0.63,0.0,-0.66
1900-01-01 12:33:45.176,32.59,18.08,18.77,0.3,0.52,0.76,-1.54,1.61,0.15,5.21,11.72,31.58,0.21,0.09,0.99,-1.18,-0.18,-0.77
1900-01-01 12:33:45.397,32.05,18.27,18.79,0.31,0.52,0.77,-1.63,0.91,-0.33,4.32,12.2,31.62,0.22,0.08,1.0,-1.53,-0.18,-1.15
1900-01-01 12:33:45.397,32.26,18.2,18.73,0.3,0.52,0.77,-1.76,0.18,-0.08,4.42,11.83,31.61,0.21,0.08,1.0,-0.37,-1.69,-1.46
1900-01-01 12:33:45.397,32.03,18.98,18.71,0.31,0.51,0.75,-1.79,-0.4,-0.07,4.99,12.39,31.54,0.22,0.09,0.98,0.01,-1.98,-1.81
1900-01-01 12:33:45.519,32.73,19.19,18.69,0.32,0.53,0.75,-1.56,-0.6,-0.47,5.73,12.71,31.42,0.22,0.1,0.98,-0.29,-1.0,-2.34
1900-01-01 12:33:45.599,32.7,19.09,18.61,0.32,0.53,0.76,-0.89,0.48,0.82,6.18,12.14,31.22,0.21,0.11,0.98,0.82,-1.55,-0.57
1900-01-01 12:33:45.635,31.98,19.56,18.72,0.32,0.51,0.76,-1.13,0.56,0.1,4.77,13.27,31.3,0.23,0.08,0.99,0.15,-0.51,-0.85
1900-01-01 12:33:45.726,32.84,19.3,18.73,0.32,0.53,0.75,-0.92,0.31,-0.53,5.98,12.67,31.32,0.22,0.11,0.98,0.71,-0.25,-1.75
1900-01-01 12:33:45.974,32.44,19.43,18.64,0.32,0.52,0.75,-1.4,0.57,-0.11,5.97,12.42,31.22,0.22,0.11,0.99,-0.24,-0.8,-1.21
1900-01-01 12:33:45.974,32.11,19.72,18.62,0.33,0.52,0.76,-1.79,0.92,-0.15,5.31,13.33,31.19,0.23,0.09,0.99,-0.65,-0.41,-1.03
1900-01-01 12:33:45.999,32.26,19.39,18.58,0.32,0.52,0.75,-1.45,0.65,-0.04,5.64,12.7,31.19,0.22,0.1,0.99,-0.14,-0.91,-1.21
1900-01-01 12:33:46.085,32.32,19.54,18.57,0.32,0.52,0.75,-1.55,0.92,-0.36,5.61,13.07,31.16,0.23,0.1,0.98,-0.84,-0.39,-1.33
1900-01-01 12:33:46.085,32.39,19.74,18.51,0.33,0.52,0.75,-0.95,1.47,-0.17,5.99,12.97,31.12,0.23,0.11,0.98,-0.03,-0.33,-0.98
1900-01-01 12:33:46.181,32.61,19.44,18.47,0.32,0.52,0.75,-1.27,1.72,0.01,5.99,12.53,31.13,0.22,0.11,0.99,-1.17,0.25,-0.69
1900-01-01 12:33:46.240,32.72,19.3,18.47,0.32,0.52,0.75,-1.38,1.53,0.01,5.84,12.63,31.18,0.22,0.1,0.99,-0.4,-0.13,-0.73
1900-01-01 12:33:46.381,32.77,18.99,18.46,0.32,0.53,0.76,-0.83,1.56,-0.02,5.77,12.3,31.23,0.22,0.1,1.0,-0.39,0.5,-0.72
1900-01-01 12:33:46.381,32.22,19.35,18.45,0.32,0.52,0.76,-0.87,1.17,0.3,5.58,12.76,31.28,0.23,0.1,0.99,0.0,-0.43,-0.59
1900-01-01 12:33:46.484,32.33,19.54,18.48,0.32,0.52,0.75,-1.05,0.89,-0.05,5.47,12.97,31.35,0.23,0.1,0.98,0.01,-0.57,-1.02
1900-01-01 12:33:46.525,32.8,19.59,18.47,0.32,0.52,0.74,-1.14,0.97,-0.11,6.12,12.58,31.35,0.22,0.11,0.98,-0.59,-0.37,-1.19
1900-01-01 12:33:46.614,32.86,18.72,18.44,0.3,0.51,0.73,1.86,-1.55,-1.15,4.56,11.9,31.33,0.21,0.08,0.99,2.92,-0.71,-2.92
1900-01-01 12:33:46.679,31.04,22.14,18.26,0.36,0.49,0.73,3.85,1.64,-1.82,6.82,15.18,31.04,0.25,0.11,0.92,3.05,2.43,-2.33
1900-01-01 12:33:46.780,33.95,19.99,17.97,0.33,0.54,0.73,2.09,1.37,-2.88,6.85,12.96,30.85,0.23,0.12,0.99,0.14,3.23,-3.3
1900-01-01 12:33:46.877,35.71,19.51,17.53,0.33,0.58,0.74,1.58,2.32,-1.2,9.74,11.19,30.5,0.2,0.17,1.0,0.86,2.31,-1.26
1900-01-01 12:33:46.979,35.43,18.59,17.34,0.31,0.57,0.74,1.34,3.11,0.98,8.23,10.79,30.47,0.19,0.15,1.01,1.41,1.55,1.34
1900-01-01 12:33:46.979,35.15,18.76,17.48,0.31,0.56,0.73,1.93,2.03,0.92,7.11,11.34,30.83,0.2,0.13,0.99,2.54,0.48,0.63
1900-01-01 12:33:47.099,35.75,18.55,17.61,0.31,0.57,0.73,0.33,2.41,0.6,7.89,11.15,31.09,0.2,0.14,0.99,0.31,1.37,0.4
1900-01-01 12:33:47.176,36.53,17.87,17.69,0.3,0.58,0.72,0.6,1.76,0.74,8.86,9.82,31.3,0.17,0.16,0.99,0.85,0.16,-0.05
1900-01-01 12:33:47.222,36.06,19.07,17.79,0.32,0.57,0.71,0.73,2.77,1.37,8.56,10.94,31.46,0.19,0.15,0.98,1.04,0.89,1.22
1900-01-01 12:33:47.314,36.45,17.48,17.99,0.29,0.58,0.73,0.43,2.33,0.92,8.26,9.4,31.8,0.17,0.15,1.0,0.34,0.96,0.54
1900-01-01 12:33:47.361,35.67,17.89,18.12,0.3,0.57,0.73,-0.47,1.6,1.2,6.47,10.71,32.04,0.19,0.12,1.0,0.15,0.36,1.05
1900-01-01 12:33:47.454,35.38,18.35,18.3,0.3,0.56,0.73,-0.57,0.37,-0.39,7.64,10.22,32.36,0.18,0.13,0.99,0.78,-1.11,-2.01
1900-01-01 12:33:47.552,35.57,20.05,18.23,0.33,0.56,0.71,-1.07,1.31,-0.87,7.91,12.29,32.21,0.21,0.14,0.98,-1.14,1.18,-1.17
1900-01-01 12:33:47.614,36.27,19.27,18.09,0.32,0.57,0.71,-0.18,1.21,-1.59,9.66,10.97,32.19,0.19,0.17,0.96,0.74,0.11,-2.49
1900-01-01 12:33:47.662,36.88,18.7,17.84,0.31,0.58,0.71,-1.35,2.47,-0.46,9.22,10.64,31.97,0.19,0.16,0.99,-1.2,1.6,-0.54
1900-01-01 12:33:47.759,38.01,15.78,17.76,0.27,0.61,0.73,-1.02,0.37,-0.8,8.37,8.16,32.05,0.14,0.15,1.0,-0.69,-0.5,-1.79
1900-01-01 12:33:47.872,36.0,18.33,17.63,0.31,0.58,0.73,-1.71,1.54,0.69,7.95,9.89,31.93,0.18,0.14,1.01,-0.4,-0.25,0.24
1900-01-01 12:33:47.992,35.86,19.56,17.72,0.32,0.56,0.71,-1.69,-0.98,-0.91,7.8,11.8,32.13,0.21,0.14,0.97,0.06,-2.12,-3.08
1900-01-01 12:33:48.008,37.31,19.18,17.58,0.31,0.58,0.69,-1.15,1.05,-0.61,10.32,10.31,31.82,0.18,0.18,0.96,-0.66,-0.01,-1.74
1900-01-01 12:33:48.090,36.7,18.36,17.47,0.3,0.58,0.71,-0.38,2.1,0.11,8.65,10.21,31.71,0.18,0.15,0.98,-0.76,0.63,0.02
1900-01-01 12:33:48.189,36.16,18.58,17.48,0.31,0.58,0.73,-1.25,2.83,-0.21,8.56,10.52,31.87,0.19,0.15,0.99,-1.11,0.95,-0.19
1900-01-01 12:33:48.281,36.67,17.83,17.44,0.3,0.58,0.72,-2.12,1.54,-0.37,7.99,9.95,32.0,0.18,0.14,1.0,-1.47,-0.19,-0.97
1900-01-01 12:33:48.281,37.22,17.71,17.38,0.29,0.59,0.71,-1.01,0.4,-0.43,8.54,9.44,32.01,0.16,0.15,0.98,0.18,-1.01,-1.79
1900-01-01 12:33:48.363,37.07,18.32,17.3,0.3,0.58,0.71,-1.61,1.53,-0.13,8.81,9.88,31.9,0.17,0.16,0.99,-1.24,0.42,-0.74
1900-01-01 12:33:48.463,36.74,18.3,17.27,0.3,0.58,0.71,-1.06,1.38,0.48,8.86,9.91,31.94,0.17,0.16,0.99,-0.12,-0.63,-0.37
1900-01-01 12:33:48.533,36.72,18.07,17.34,0.3,0.57,0.71,-1.49,1.84,-0.76,7.86,10.54,32.04,0.18,0.14,0.97,-0.98,0.47,-1.11
1900-01-01 12:33:48.580,37.22,18.15,17.21,0.3,0.58,0.71,-0.48,3.34,-1.88,8.8,10.09,32.03,0.17,0.15,0.97,-0.83,2.37,-1.41
1900-01-01 12:33:48.676,36.87,18.56,16.92,0.31,0.59,0.72,-1.24,4.61,-1.52,9.18,10.08,31.98,0.18,0.16,1.0,-2.09,4.02,-0.42
1900-01-01 12:33:48.767,37.7,15.42,16.68,0.26,0.61,0.74,-2.73,1.41,0.99,8.09,7.27,32.07,0.14,0.15,1.05,-2.69,-0.06,0.22
1900-01-01 12:33:48.877,36.72,16.25,16.82,0.28,0.59,0.74,-2.15,0.23,1.35,8.92,7.77,32.26,0.14,0.16,0.99,-0.5,-2.96,-0.76
1900-01-01 12:33:49.016,34.92,17.87,17.02,0.29,0.54,0.71,-1.23,-0.31,0.68,4.91,10.59,32.3,0.19,0.09,0.99,-0.64,-1.81,-0.57
1900-01-01 12:33:49.046,36.87,17.78,17.11,0.28,0.56,0.69,-2.5,0.78,0.2,8.62,9.98,32.38,0.17,0.14,0.93,-1.96,-0.9,-1.23
1900-01-01 12:33:49.178,38.61,16.68,17.14,0.28,0.61,0.71,-1.91,4.02,-0.25,10.61,7.95,32.35,0.13,0.18,0.95,-4.83,0.41,-0.87
1900-01-01 12:33:49.178,36.15,17.3,17.09,0.29,0.57,0.73,-2.39,8.85,2.1,8.17,9.01,32.37,0.16,0.14,0.99,-5.41,3.68,5.11
1900-01-01 12:33:49.211,34.81,17.01,17.4,0.28,0.55,0.74,-1.7,6.34,0.69,4.42,9.94,33.3,0.18,0.08,1.0,-3.93,2.24,2.76
1900-01-01 12:33:49.295,35.3,16.78,17.49,0.28,0.57,0.75,-1.27,6.0,0.01,5.85,9.69,33.88,0.17,0.1,1.0,-3.18,2.96,1.53
1900-01-01 12:33:49.429,35.88,15.07,17.49,0.25,0.57,0.75,-0.07,3.33,0.21,4.36,8.04,34.27,0.15,0.08,1.04,-0.77,2.18,0.77
1900-01-01 12:33:49.429,36.05,14.81,17.51,0.25,0.57,0.74,0.56,1.11,-0.08,4.7,7.76,34.55,0.14,0.08,0.99,1.98,0.4,-0.89
1900-01-01 12:33:49.518,36.44,14.75,17.49,0.25,0.57,0.74,0.79,1.34,-1.34,5.15,7.52,34.57,0.13,0.09,0.99,1.69,1.34,-1.8
1900-01-01 12:33:49.564,37.19,14.76,17.28,0.25,0.59,0.74,-0.38,1.78,-0.91,6.27,6.86,34.45,0.12,0.11,1.01,-0.51,1.22,-1.38
1900-01-01 12:33:49.660,37.98,14.38,17.13,0.24,0.61,0.74,-1.54,1.56,0.44,7.18,6.19,34.4,0.11,0.13,1.02,-0.73,-0.49,-0.77
1900-01-01 12:33:49.861,36.92,14.58,17.19,0.24,0.58,0.74,-1.73,1.52,1.73,5.34,6.91,34.44,0.12,0.1,1.01,-1.44,-1.02,0.75
1900-01-01 12:33:49.861,36.56,15.89,17.44,0.26,0.57,0.73,-1.69,0.24,1.23,5.54,8.14,34.72,0.14,0.1,1.0,-1.08,-2.26,-0.58
1900-01-01 12:33:50.065,36.93,15.54,17.62,0.26,0.58,0.73,-0.58,0.16,0.2,6.17,7.38,34.79,0.13,0.11,1.0,-0.15,-1.42,-1.43
1900-01-01 12:33:50.065,36.41,15.76,17.64,0.26,0.57,0.72,-0.68,1.28,0.56,5.58,8.11,34.73,0.14,0.1,0.98,-0.29,-0.64,-0.28
1900-01-01 12:33:50.094,36.62,15.14,17.72,0.25,0.57,0.73,-0.25,1.79,0.08,5.27,7.72,34.84,0.14,0.09,0.99,-0.5,0.5,-0.45
1900-01-01 12:33:50.138,36.49,15.14,17.72,0.26,0.58,0.74,-1.12,1.41,0.27,4.99,7.44,34.93,0.13,0.09,1.02,-0.92,-0.18,-0.42
1900-01-01 12:33:50.169,36.74,15.71,17.76,0.26,0.58,0.73,-1.24,0.47,0.25,5.45,8.27,35.03,0.15,0.1,1.0,-0.1,-0.82,-0.96
1900-01-01 12:33:50.345,36.92,15.59,17.79,0.26,0.58,0.73,-0.77,0.16,-0.51,5.85,7.97,35.04,0.14,0.1,0.98,1.25,-1.09,-2.02
1900-01-01 12:33:50.345,37.31,14.79,17.7,0.25,0.59,0.73,-1.1,1.08,-0.13,6.1,6.99,34.89,0.12,0.11,1.01,-0.71,0.24,-1.05
1900-01-01 12:33:50.447,36.91,15.57,17.67,0.26,0.58,0.73,-1.08,0.03,0.27,5.63,7.55,34.89,0.14,0.1,1.02,0.25,-1.17,-1.22
1900-01-01 12:33:50.544,36.64,16.86,17.71,0.28,0.57,0.71,-1.24,0.33,-0.26,6.52,8.81,34.86,0.15,0.11,0.97,0.33,-0.76,-1.56
1900-01-01 12:33:50.592,37.22,16.44,17.66,0.27,0.58,0.71,-1.6,2.13,-0.06,7.16,8.41,34.78,0.15,0.12,0.97,-0.81,0.54,-0.52
1900-01-01 12:33:50.645,37.54,14.78,17.64,0.25,0.59,0.73,-1.15,1.67,0.17,6.21,6.74,34.86,0.12,0.11,1.01,-0.89,0.13,-0.4
1900-01-01 12:33:50.753,36.58,15.39,17.66,0.26,0.58,0.74,-1.38,0.64,0.54,5.28,7.41,34.96,0.13,0.09,1.02,-0.25,-1.24,-0.47
1900-01-01 12:33:50.848,36.28,16.45,17.73,0.27,0.57,0.72,-2.02,0.39,0.06,5.35,8.69,35.05,0.15,0.09,0.99,-0.79,-1.11,-1.23
1900-01-01 12:33:50.884,37.45,16.15,17.73,0.27,0.58,0.71,-0.73,1.08,-0.34,6.99,8.09,35.02,0.14,0.12,0.97,0.3,-0.18,-1.5
1900-01-01 12:33:51.037,37.43,15.97,17.67,0.27,0.59,0.72,-0.91,2.12,-0.1,6.95,7.77,34.95,0.14,0.12,1.0,-1.1,1.07,-0.43
1900-01-01 12:33:51.074,36.79,16.12,17.65,0.27,0.59,0.74,-0.98,1.22,0.7,5.97,7.9,35.04,0.14,0.11,1.02,0.31,-0.74,-0.2
1900-01-01 12:33:51.157,36.75,15.72,17.75,0.26,0.57,0.72,-1.44,0.49,0.15,5.3,8.04,35.17,0.14,0.09,0.99,-0.12,-1.13,-1.15
1900-01-01 12:33:51.184,37.55,15.64,17.76,0.26,0.59,0.72,-1.18,1.16,-0.36,6.5,7.65,35.15,0.13,0.11,0.99,-1.07,0.45,-1.26
1900-01-01 12:33:51.256,36.9,16.03,17.7,0.27,0.59,0.73,-1.13,1.05,0.1,6.14,7.83,35.12,0.14,0.11,1.01,-0.91,-0.31,-0.95
1900-01-01 12:33:51.354,36.4,16.4,17.7,0.27,0.57,0.73,-1.21,0.94,0.11,5.7,8.49,35.13,0.15,0.1,0.99,-0.56,-0.93,-0.89
1900-01-01 12:33:51.396,36.84,16.07,17.71,0.27,0.58,0.72,-1.26,1.49,-0.52,6.02,8.26,35.16,0.14,0.1,0.98,-0.66,0.01,-1.24
1900-01-01 12:33:51.568,37.2,15.92,17.63,0.27,0.59,0.73,-1.5,1.94,-0.46,6.47,7.7,35.13,0.14,0.11,1.0,-1.97,1.02,-0.91
1900-01-01 12:33:51.568,37.38,15.56,17.55,0.26,0.6,0.73,-1.6,1.18,0.63,6.41,7.18,35.15,0.13,0.12,1.02,-1.27,-0.69,-0.24
1900-01-01 12:33:51.664,36.64,16.01,17.63,0.27,0.58,0.73,-2.0,0.79,0.53,5.6,8.06,35.27,0.14,0.1,0.99,-0.68,-1.67,-0.59
1900-01-01 12:33:51.760,36.83,16.14,17.71,0.27,0.57,0.72,-2.02,1.27,-0.34,5.7,8.21,35.34,0.14,0.1,0.98,-1.25,-0.52,-1.11
1900-01-01 12:33:51.760,36.69,16.17,17.65,0.27,0.57,0.72,-0.81,1.45,-1.19,5.63,8.22,35.33,0.14,0.1,0.98,-0.37,0.87,-1.82
1900-01-01 12:33:51.876,37.46,15.57,17.46,0.26,0.59,0.72,-0.36,2.61,-1.11,6.15,7.62,35.21,0.13,0.11,0.99,-0.76,1.89,-1.11
1900-01-01 12:33:52.030,37.74,15.56,17.28,0.26,0.6,0.73,-0.94,2.64,-0.18,6.57,6.81,35.2,0.12,0.12,1.01,-1.66,0.75,-0.31
1900-01-01 12:33:52.059,37.16,15.67,17.24,0.26,0.59,0.73,-0.44,3.21,0.47,6.03,7.38,35.31,0.13,0.11,1.0,-0.49,0.57,0.78
1900-01-01 12:33:52.084,36.67,15.41,17.31,0.25,0.57,0.73,-0.77,3.29,-0.2,4.84,8.1,35.59,0.14,0.08,0.98,-0.72,1.51,0.21
1900-01-01 12:33:52.167,37.9,14.12,17.27,0.24,0.59,0.73,-1.0,3.27,-0.24,5.68,6.15,35.78,0.11,0.1,1.0,-1.95,1.91,-0.08
1900-01-01 12:33:52.266,37.98,14.28,17.22,0.24,0.6,0.72,-0.6,2.98,-0.04,5.46,5.83,35.92,0.1,0.1,1.01,-0.74,1.56,0.0
1900-01-01 12:33:52.361,37.29,14.94,17.21,0.25,0.58,0.72,-0.93,3.8,-0.56,5.32,6.73,36.08,0.12,0.09,1.0,-1.24,2.31,0.18
1900-01-01 12:33:52.396,37.93,13.87,17.11,0.23,0.6,0.73,-0.8,3.43,-0.78,5.43,5.89,36.27,0.1,0.1,1.0,-0.82,1.66,-0.47
1900-01-01 12:33:52.470,38.31,13.24,16.99,0.23,0.61,0.74,-1.46,3.13,0.15,5.43,4.79,36.35,0.09,0.1,1.03,-1.53,1.11,0.2
1900-01-01 12:33:52.571,37.9,12.98,17.0,0.22,0.6,0.74,-2.69,1.96,1.24,4.85,4.92,36.54,0.09,0.09,1.03,-2.04,-0.97,0.68
1900-01-01 12:33:52.606,37.35,13.35,17.18,0.22,0.58,0.73,-2.4,0.89,0.55,3.9,5.62,36.8,0.1,0.07,1.0,-1.33,-1.82,-0.38
1900-01-01 12:33:52.699,37.25,14.39,17.26,0.24,0.58,0.73,-1.68,1.59,0.27,4.91,6.2,36.91,0.11,0.09,0.99,-1.24,-0.31,-0.26
1900-01-01 12:33:52.844,37.64,14.03,17.29,0.24,0.59,0.73,-2.75,2.27,0.73,5.65,5.81,37.02,0.1,0.1,1.0,-2.03,-0.32,-0.09
1900-01-01 12:33:52.844,36.76,13.5,17.39,0.23,0.58,0.75,-2.52,2.07,1.39,4.38,5.43,37.17,0.1,0.08,1.02,-2.21,-0.8,0.84
1900-01-01 12:33:53.013,36.3,14.02,17.59,0.24,0.58,0.75,-3.06,0.92,1.48,3.6,6.2,37.45,0.11,0.06,1.02,-1.83,-1.98,0.32
1900-01-01 12:33:53.050,36.49,13.48,17.81,0.23,0.58,0.75,-3.2,0.02,1.02,3.83,5.91,37.66,0.1,0.07,1.0,-1.27,-2.39,-0.61
1900-01-01 12:33:53.080,36.38,13.96,17.95,0.23,0.57,0.73,-2.31,0.89,0.96,4.04,6.09,37.73,0.11,0.07,0.99,-0.63,-1.47,-0.18
1900-01-01 12:33:53.151,36.17,13.39,18.09,0.22,0.56,0.73,-1.56,1.22,0.53,3.33,6.0,37.86,0.1,0.06,0.99,-0.41,-0.75,-0.4
1900-01-01 12:33:53.260,35.58,13.92,18.16,0.23,0.56,0.74,-1.04,1.23,-0.37,3.03,6.45,37.96,0.11,0.05,0.99,-0.64,-0.25,-1.07
1900-01-01 12:33:53.305,35.56,14.45,18.1,0.24,0.56,0.74,-0.64,0.48,-1.44,2.83,6.97,37.95,0.12,0.05,1.0,-0.61,0.19,-2.03
1900-01-01 12:33:53.370,36.41,14.15,17.87,0.23,0.56,0.73,-0.5,-0.03,-2.14,4.5,6.24,37.8,0.11,0.08,0.99,0.48,0.12,-3.23
1900-01-01 12:33:53.476,36.65,13.83,17.54,0.23,0.57,0.73,1.12,1.35,-1.45,4.3,6.21,37.47,0.11,0.07,0.98,2.11,1.6,-1.82
1900-01-01 12:33:53.549,37.15,13.37,17.31,0.23,0.59,0.75,0.68,0.02,-2.09,3.47,5.56,37.35,0.1,0.06,1.03,1.13,1.08,-3.26
1900-01-01 12:33:53.584,38.1,13.88,16.99,0.24,0.61,0.74,-0.96,1.0,-0.21,5.5,5.22,37.02,0.1,0.1,1.04,-1.39,0.27,-1.15
1900-01-01 12:33:53.695,37.94,14.95,16.95,0.25,0.6,0.72,0.07,0.53,1.63,6.08,6.21,37.0,0.11,0.11,1.0,1.15,-1.73,0.12
1900-01-01 12:33:53.770,36.79,13.85,17.18,0.23,0.57,0.72,-0.19,0.66,2.01,4.81,5.53,37.18,0.1,0.08,0.98,0.44,-2.99,0.64
1900-01-01 12:33:53.818,35.86,13.8,17.48,0.23,0.56,0.74,-0.72,2.0,0.54,2.02,7.02,37.43,0.12,0.04,0.99,-0.77,0.67,0.3
1900-01-01 12:33:53.912,36.71,15.08,17.55,0.25,0.58,0.74,0.95,0.38,-0.69,3.85,6.9,37.64,0.12,0.07,1.02,0.9,0.65,-1.77
1900-01-01 12:33:54.019,36.98,16.02,17.44,0.26,0.57,0.71,1.2,-0.22,-1.01,5.74,7.22,37.53,0.13,0.1,0.99,2.14,0.09,-2.26
1900-01-01 12:33:54.088,37.73,15.72,17.28,0.26,0.59,0.71,0.01,0.64,-0.75,5.72,7.48,37.34,0.13,0.1,0.98,1.22,0.17,-1.76
1900-01-01 12:33:54.170,39.48,12.81,17.16,0.22,0.62,0.72,1.41,0.75,-0.21,5.63,3.91,37.23,0.07,0.1,1.03,1.37,0.82,-1.13
1900-01-01 12:33:54.209,38.74,14.02,17.12,0.24,0.61,0.73,-1.24,0.9,0.93,6.34,5.0,37.22,0.09,0.11,1.02,-1.15,-0.13,0.03
1900-01-01 12:33:54.296,38.03,14.56,17.25,0.25,0.61,0.74,-1.76,0.27,0.89,5.57,5.86,37.38,0.1,0.1,1.01,-0.38,-1.46,-0.87
1900-01-01 12:33:54.376,39.52,15.21,17.38,0.25,0.62,0.7,-1.48,-0.55,0.29,6.08,5.78,37.41,0.1,0.11,1.01,0.01,-1.6,-1.58
1900-01-01 12:33:54.480,38.56,16.44,17.41,0.27,0.59,0.69,-0.81,0.55,0.87,6.89,6.85,37.33,0.12,0.12,0.98,1.07,-1.34,-0.32
1900-01-01 12:33:54.558,37.77,16.07,17.54,0.26,0.58,0.7,-1.01,1.42,0.04,5.71,7.41,37.44,0.13,0.1,0.96,-0.58,-0.45,-0.71
1900-01-01 12:33:54.587,39.4,14.45,17.53,0.24,0.62,0.71,-1.33,2.36,-0.64,6.46,5.41,37.49,0.1,0.11,1.01,-2.22,1.42,-0.71
1900-01-01 12:33:54.649,39.52,14.8,17.43,0.25,0.63,0.72,-1.19,1.91,0.99,7.13,5.12,37.54,0.09,0.13,1.03,-0.67,0.36,0.52
1900-01-01 12:33:54.751,37.95,15.06,17.57,0.25,0.6,0.73,-1.63,0.67,1.53,5.08,6.22,37.78,0.11,0.09,1.01,0.11,-1.95,0.31
1900-01-01 12:33:54.844,38.99,15.14,17.79,0.25,0.61,0.71,-2.97,0.31,-0.6,5.39,6.48,37.98,0.11,0.09,1.0,-1.93,-0.79,-1.98
1900-01-01 12:33:54.944,39.24,16.29,17.69,0.27,0.61,0.69,-1.74,0.98,-0.43,7.26,6.44,37.84,0.11,0.13,0.99,-0.41,0.07,-1.44
1900-01-01 12:33:55.029,38.16,16.37,17.62,0.27,0.6,0.71,-1.57,2.04,0.05,6.62,7.01,37.78,0.12,0.12,0.99,-1.03,0.17,-0.57
1900-01-01 12:33:55.029,38.24,15.71,17.62,0.27,0.61,0.72,-3.47,3.24,1.02,6.04,6.49,37.85,0.12,0.11,1.01,-3.44,0.39,0.88
1900-01-01 12:33:55.149,38.84,14.19,17.76,0.24,0.62,0.73,-4.48,0.15,2.3,5.46,4.61,38.14,0.09,0.1,1.06,-3.46,-3.05,0.24
1900-01-01 12:33:55.231,37.07,15.37,18.1,0.26,0.59,0.73,-4.54,-0.26,2.97,4.52,6.65,38.34,0.12,0.08,1.0,-1.69,-4.93,0.76
1900-01-01 12:33:55.270,35.5,16.6,18.55,0.28,0.56,0.74,-4.07,1.9,1.88,4.16,8.32,38.61,0.14,0.07,0.98,-2.2,-2.21,0.9
1900-01-01 12:33:55.332,34.84,15.88,18.82,0.27,0.55,0.75,-2.75,2.27,2.28,3.65,7.46,38.91,0.13,0.07,1.03,-2.93,-0.54,1.56
1900-01-01 12:33:55.434,33.78,18.51,19.16,0.3,0.52,0.72,0.02,1.21,2.1,2.11,11.24,39.3,0.19,0.04,0.95,3.97,-3.5,1.37
1900-01-01 12:33:55.515,36.6,16.21,19.47,0.27,0.57,0.72,-3.79,2.53,-2.15,4.49,8.87,39.67,0.15,0.08,0.96,-3.89,1.77,-2.05
1900-01-01 12:33:55.608,37.96,14.46,19.14,0.23,0.57,0.7,-0.14,0.21,-3.24,4.05,5.76,39.51,0.1,0.07,0.99,0.92,1.1,-3.84
1900-01-01 12:33:55.648,37.15,15.54,18.63,0.26,0.58,0.72,0.47,0.86,-2.05,6.46,6.38,39.09,0.11,0.11,0.97,1.43,0.05,-3.31
1900-01-01 12:33:55.736,36.47,15.91,18.32,0.27,0.58,0.74,0.2,4.77,-1.93,5.26,7.54,38.75,0.13,0.09,1.0,-1.7,4.17,-0.76
1900-01-01 12:33:55.813,35.98,15.46,18.01,0.26,0.58,0.75,-0.53,5.69,-1.24,4.12,7.23,38.79,0.13,0.07,1.02,-1.82,3.84,0.61
1900-01-01 12:33:55.919,36.63,14.13,17.82,0.24,0.59,0.76,-1.86,4.37,-1.3,3.64,6.49,39.04,0.12,0.07,1.03,-2.88,3.08,0.05
1900-01-01 12:33:56.038,36.61,12.55,17.61,0.21,0.59,0.76,-3.53,1.32,0.5,3.11,4.23,39.21,0.08,0.06,1.07,-2.47,-0.73,-0.42
1900-01-01 12:33:56.060,34.86,13.86,17.68,0.23,0.54,0.74,-2.29,-1.38,1.59,1.66,6.49,39.3,0.11,0.03,1.0,1.07,-3.82,-1.09
1900-01-01 12:33:56.104,34.96,14.83,17.91,0.24,0.53,0.72,-1.73,-0.58,0.07,2.89,7.4,39.29,0.12,0.05,0.95,-0.34,-2.48,-2.05
1900-01-01 12:33:56.207,36.45,14.34,17.91,0.23,0.56,0.72,-0.49,1.97,-0.99,4.72,6.25,39.14,0.11,0.08,0.97,-1.17,1.28,-1.22
1900-01-01 12:33:56.289,36.26,14.26,17.75,0.24,0.58,0.75,-0.2,1.77,-0.66,3.89,6.15,39.11,0.11,0.07,1.01,-1.39,1.47,-0.73
1900-01-01 12:33:56.316,35.92,15.33,17.65,0.27,0.59,0.77,-0.6,0.39,-0.8,3.6,7.16,39.16,0.13,0.07,1.03,-0.11,-0.3,-1.9
1900-01-01 12:33:56.402,36.91,14.65,17.52,0.25,0.6,0.76,0.14,2.47,-0.51,5.32,5.77,39.03,0.11,0.1,1.04,0.43,1.95,-0.74
1900-01-01 12:33:56.474,37.09,14.21,17.43,0.23,0.56,0.7,-1.21,2.28,2.5,4.2,5.64,39.07,0.1,0.07,0.99,-0.21,-0.98,2.02
1900-01-01 12:33:56.568,36.79,13.8,17.8,0.22,0.56,0.72,-0.99,-0.15,1.05,3.3,6.38,39.54,0.11,0.06,0.95,0.63,-3.11,-0.76
1900-01-01 12:33:56.666,37.2,14.35,17.95,0.24,0.58,0.72,0.74,1.49,-2.02,4.28,5.99,39.58,0.1,0.07,0.99,-0.47,1.21,-2.47
1900-01-01 12:33:56.763,37.01,15.75,17.64,0.26,0.58,0.73,1.18,1.83,-1.21,4.92,6.96,39.37,0.12,0.09,1.01,0.16,1.69,-1.46
1900-01-01 12:33:56.788,38.27,15.34,17.45,0.26,0.61,0.73,-1.17,3.2,-0.66,6.12,6.33,39.3,0.11,0.11,1.02,-2.17,1.75,-0.37
1900-01-01 12:33:56.854,38.83,12.29,17.34,0.2,0.6,0.72,-0.98,4.11,0.56,5.47,3.49,39.41,0.06,0.1,1.0,-0.92,1.98,1.28
1900-01-01 12:33:56.957,37.78,12.84,17.41,0.21,0.57,0.7,-1.01,4.74,-0.2,3.78,4.34,39.76,0.07,0.06,0.97,-0.67,2.34,1.06
1900-01-01 12:33:57.042,36.62,11.51,17.37,0.19,0.57,0.74,-2.59,5.79,-0.51,3.25,3.61,40.08,0.06,0.06,1.0,-3.36,2.95,1.11
1900-01-01 12:33:57.088,34.94,12.24,17.29,0.22,0.61,0.84,-7.44,6.83,-0.66,2.7,5.6,40.41,0.1,0.05,1.06,-5.73,-1.35,0.66
1900-01-01 12:33:57.180,36.42,12.71,17.18,0.21,0.57,0.74,-6.73,4.08,0.94,2.73,5.46,40.67,0.1,0.05,1.04,-5.55,-0.48,1.47
1900-01-01 12:33:57.251,37.78,11.76,17.31,0.18,0.54,0.68,-2.91,2.8,0.78,3.47,4.7,41.05,0.08,0.06,0.94,-3.1,-1.7,0.46
1900-01-01 12:33:57.349,35.38,9.83,17.42,0.17,0.58,0.8,-2.77,7.04,-0.18,3.45,5.22,41.28,0.09,0.06,0.96,-3.28,-2.5,-0.1
1900-01-01 12:33:57.430,33.71,10.25,17.39,0.18,0.56,0.82,-4.67,6.43,-1.92,-1.27,6.23,41.42,0.12,-0.02,1.08,-7.01,-1.06,0.74
1900-01-01 12:33:57.462,35.14,10.2,17.08,0.16,0.52,0.72,-4.22,3.5,0.78,0.11,6.28,41.69,0.11,0.0,0.98,-2.5,-3.17,0.24
1900-01-01 12:33:57.552,33.46,8.89,17.19,0.15,0.53,0.79,-1.69,1.19,1.43,-0.75,5.96,41.88,0.1,-0.01,1.0,-1.29,-4.61,-0.95
1900-01-01 12:33:57.627,33.65,9.78,17.4,0.17,0.55,0.81,-5.04,-0.72,2.34,-0.08,7.14,41.9,0.13,0.0,1.04,-3.79,-3.33,0.66
1900-01-01 12:33:57.730,34.52,10.25,17.75,0.17,0.53,0.75,-4.83,0.18,2.02,-0.72,7.22,42.16,0.12,-0.01,0.98,-4.69,-1.6,-0.78
1900-01-01 12:33:57.809,33.26,10.99,18.05,0.18,0.53,0.79,0.04,1.03,-0.31,-0.69,7.44,42.2,0.13,-0.01,1.0,-1.24,-2.73,-2.2
1900-01-01 12:33:57.836,32.63,10.33,18.0,0.18,0.53,0.82,-0.61,0.33,1.75,-1.85,8.2,42.02,0.15,-0.03,1.04,-1.6,-2.01,-1.65
1900-01-01 12:33:57.933,33.26,9.97,18.25,0.16,0.52,0.78,-0.85,-0.32,1.1,-2.39,7.72,41.93,0.13,-0.04,0.99,-0.36,-1.24,-0.95
1900-01-01 12:33:58.048,33.17,11.47,18.41,0.19,0.53,0.79,0.02,0.64,0.37,-1.45,8.47,41.94,0.15,-0.03,1.01,0.82,-0.27,-0.6
1900-01-01 12:33:58.110,33.11,11.38,18.46,0.19,0.53,0.78,-0.61,0.44,1.89,-1.73,8.51,42.01,0.15,-0.03,1.01,-1.69,1.06,0.56
1900-01-01 12:33:58.180,33.0,10.71,18.74,0.18,0.52,0.78,-0.85,0.31,1.74,-2.62,7.81,42.25,0.14,-0.05,0.98,-1.42,1.92,0.89
1900-01-01 12:33:58.274,34.59,12.43,19.0,0.21,0.56,0.79,-1.81,0.93,2.18,-0.87,7.04,42.55,0.13,-0.02,1.02,-3.47,3.25,0.9
1900-01-01 12:33:58.301,34.01,12.38,19.32,0.21,0.54,0.78,-2.84,1.89,3.3,-1.62,6.7,42.84,0.12,-0.03,1.01,-6.92,3.95,-0.89
1900-01-01 12:33:58.368,32.46,12.46,19.81,0.2,0.5,0.76,-1.4,1.29,2.24,-4.07,6.1,42.86,0.11,-0.07,0.99,-5.22,3.09,-2.82
1900-01-01 12:33:58.461,33.8,12.45,20.15,0.21,0.53,0.77,1.6,-1.15,2.43,-3.71,5.47,42.59,0.1,-0.07,1.0,-1.7,1.29,-0.87
1900-01-01 12:33:58.575,32.69,12.1,20.51,0.21,0.53,0.8,1.89,-0.21,2.4,-4.82,5.25,42.62,0.09,-0.08,1.0,0.17,0.56,-1.2
1900-01-01 12:33:58.646,33.58,13.41,20.86,0.23,0.54,0.78,0.03,1.15,2.02,-4.25,5.86,42.59,0.11,-0.08,1.02,-0.58,1.07,1.39
1900-01-01 12:33:58.675,34.6,14.02,21.16,0.23,0.53,0.74,-2.24,0.31,2.82,-3.26,5.43,42.96,0.09,-0.06,0.99,-3.37,-1.48,0.17
1900-01-01 12:33:58.769,32.2,13.15,21.58,0.22,0.51,0.78,0.77,-0.4,1.15,-6.72,5.23,43.15,0.09,-0.12,1.0,-0.17,-0.21,-1.49
1900-01-01 12:33:58.831,33.24,14.01,21.75,0.24,0.54,0.79,0.65,0.79,-0.39,-4.27,5.29,43.08,0.09,-0.08,1.02,2.39,0.44,-0.47
1900-01-01 12:33:58.931,33.93,14.61,21.68,0.24,0.54,0.76,-0.51,1.66,0.27,-3.87,5.54,43.17,0.1,-0.07,1.01,1.26,0.37,0.19
1900-01-01 12:33:59.068,34.73,13.61,21.71,0.23,0.55,0.77,-0.87,1.1,0.37,-3.15,4.51,43.35,0.08,-0.06,1.01,0.41,0.5,0.18
1900-01-01 12:33:59.110,34.42,14.49,21.76,0.24,0.55,0.76,-1.21,0.98,-0.73,-3.51,5.27,43.54,0.09,-0.06,1.0,0.88,0.91,-0.36
1900-01-01 12:33:59.130,34.53,14.01,21.64,0.23,0.55,0.76,-1.79,0.84,0.45,-2.69,4.59,43.64,0.08,-0.05,1.01,-0.91,0.76,-1.11
1900-01-01 12:33:59.236,33.34,14.03,21.7,0.23,0.53,0.77,-1.54,1.58,-0.7,-4.42,4.69,43.63,0.08,-0.08,1.01,-1.24,-0.02,-0.92
1900-01-01 12:33:59.307,34.46,14.1,21.59,0.23,0.54,0.76,-1.43,1.53,-0.31,-2.84,4.41,43.65,0.08,-0.05,1.01,-0.22,0.2,-0.82
1900-01-01 12:33:59.386,33.82,14.22,21.53,0.24,0.54,0.76,-1.28,1.28,-0.38,-3.71,4.96,43.68,0.09,-0.07,1.0,-0.23,-0.05,-0.74
1900-01-01 12:33:59.495,34.3,14.03,21.46,0.23,0.54,0.76,-1.46,1.19,-0.17,-2.82,4.28,43.73,0.08,-0.05,1.01,-0.49,-0.31,-1.1
1900-01-01 12:33:59.570,33.81,14.26,21.43,0.24,0.53,0.76,-0.56,1.22,-0.36,-3.9,4.79,43.72,0.08,-0.07,1.01,0.65,-0.34,-1.05
1900-01-01 12:33:59.613,34.27,13.8,21.36,0.23,0.54,0.76,0.32,1.37,-0.36,-3.45,4.73,43.72,0.08,-0.06,1.0,1.95,-0.42,-1.17
1900-01-01 12:33:59.674,33.98,14.04,21.3,0.24,0.54,0.77,-0.36,0.78,-0.15,-3.53,4.83,43.7,0.09,-0.06,1.02,0.68,-0.18,-1.08
1900-01-01 12:33:59.777,34.57,13.41,21.27,0.22,0.54,0.76,-1.02,1.41,-0.33,-3.01,4.4,43.69,0.08,-0.05,1.0,0.28,-1.44,-1.33
1900-01-01 12:33:59.845,34.33,14.22,21.21,0.24,0.55,0.77,-0.4,0.37,-0.11,-2.75,4.84,43.64,0.09,-0.05,1.02,1.21,-0.25,-1.09
1900-01-01 12:33:59.938,33.92,14.1,21.19,0.23,0.54,0.76,-0.77,1.28,-0.17,-3.27,5.01,43.64,0.09,-0.06,1.0,-0.54,-0.05,-0.96
1900-01-01 12:34:00.088,34.48,14.3,21.15,0.24,0.55,0.77,-1.84,1.3,-0.29,-2.34,4.78,43.65,0.09,-0.04,1.02,-1.31,-0.47,-0.91
1900-01-01 12:34:00.113,34.09,13.79,21.1,0.23,0.54,0.76,-1.65,1.49,-0.1,-3.07,4.7,43.67,0.08,-0.05,1.0,-0.78,0.08,-1.1
1900-01-01 12:34:00.129,34.3,14.4,21.08,0.24,0.54,0.76,-1.85,1.17,-0.17,-2.55,4.73,43.66,0.08,-0.05,1.02,-1.44,-0.37,-1.05
1900-01-01 12:34:00.221,33.91,13.91,21.04,0.23,0.54,0.76,-0.63,1.54,-0.31,-3.06,4.79,43.65,0.08,-0.05,1.01,0.04,-0.76,-1.11
1900-01-01 12:34:00.315,34.35,13.96,20.98,0.23,0.55,0.76,-0.93,1.31,-0.44,-2.76,4.86,43.64,0.09,-0.05,1.01,0.39,-0.41,-0.99
1900-01-01 12:34:00.357,34.44,14.12,20.91,0.24,0.55,0.76,-1.17,1.21,-0.11,-2.24,4.75,43.65,0.08,-0.04,1.01,-0.26,0.14,-0.78
1900-01-01 12:34:00.451,34.39,13.92,20.88,0.23,0.54,0.76,-0.65,1.2,-0.34,-2.85,4.67,43.69,0.08,-0.05,1.0,0.47,0.19,-0.95
1900-01-01 12:34:00.507,35.16,13.94,20.82,0.23,0.56,0.76,-1.2,0.89,-0.66,-1.7,4.33,43.7,0.08,-0.03,1.02,-0.18,0.08,-1.26
1900-01-01 12:34:00.607,34.77,13.78,20.71,0.23,0.55,0.75,-0.98,0.54,-0.89,-2.28,4.59,43.67,0.08,-0.04,1.0,0.84,0.21,-1.58
1900-01-01 12:34:00.687,35.14,13.85,20.57,0.23,0.56,0.76,-1.53,0.76,-0.56,-1.24,3.94,43.58,0.07,-0.02,1.02,-0.46,0.41,-1.72
1900-01-01 12:34:00.772,33.79,13.91,20.47,0.23,0.53,0.76,-1.11,1.85,-0.96,-3.25,4.69,43.48,0.08,-0.06,1.0,-0.07,-0.05,-0.93
1900-01-01 12:34:00.857,35.38,13.48,20.32,0.23,0.56,0.75,-1.57,1.66,-0.27,-1.46,4.21,43.5,0.07,-0.03,1.01,-0.7,-0.17,-0.96
1900-01-01 12:34:00.917,34.39,13.56,20.27,0.23,0.55,0.77,-2.35,1.59,-0.95,-2.3,4.25,43.51,0.08,-0.04,1.01,-1.98,-0.28,-1.56
1900-01-01 12:34:00.972,34.02,13.61,20.12,0.23,0.54,0.77,-2.42,1.85,-0.35,-2.46,4.42,43.43,0.08,-0.04,1.01,-2.08,-0.02,-1.28
1900-01-01 12:34:01.135,34.63,13.11,20.05,0.22,0.55,0.76,-2.27,1.79,-0.4,-2.56,3.93,43.39,0.07,-0.05,1.01,-1.56,0.24,-0.93
1900-01-01 12:34:01.135,34.17,13.52,19.98,0.22,0.54,0.76,-1.52,1.5,-0.45,-2.83,4.45,43.41,0.08,-0.05,1.0,-0.58,-0.53,-1.05
1900-01-01 12:34:01.246,34.85,13.16,19.91,0.22,0.55,0.76,-1.17,1.25,-0.21,-2.22,4.05,43.4,0.07,-0.04,1.01,0.18,-0.55,-1.05
1900-01-01 12:34:01.320,34.3,13.35,19.87,0.23,0.55,0.77,-1.98,0.98,-0.34,-2.42,4.27,43.4,0.08,-0.04,1.02,-1.15,-0.38,-1.47
1900-01-01 12:34:01.349,34.62,12.93,19.81,0.21,0.54,0.76,-1.34,1.09,-0.27,-2.65,4.05,43.33,0.07,-0.05,1.0,0.08,0.12,-1.24
1900-01-01 12:34:01.433,34.29,13.39,19.76,0.22,0.55,0.77,-0.54,1.02,-0.32,-2.54,4.37,43.3,0.08,-0.05,1.01,0.57,-0.4,-1.18
1900-01-01 12:34:01.499,34.26,12.96,19.7,0.22,0.54,0.77,-1.02,0.99,-0.15,-2.66,4.17,43.28,0.07,-0.05,1.01,-0.3,-0.41,-1.12
1900-01-01 12:34:01.590,34.19,13.26,19.67,0.22,0.54,0.77,-1.03,1.15,-0.1,-2.69,4.5,43.27,0.08,-0.05,1.01,-0.31,-0.35,-1.03
1900-01-01 12:34:01.698,34.21,13.15,19.64,0.22,0.54,0.76,-1.21,1.62,-0.04,-2.59,4.28,43.27,0.08,-0.05,1.01,-0.6,-0.34,-0.84
1900-01-01 12:34:01.770,34.44,13.28,19.63,0.22,0.55,0.77,-1.86,2.11,-0.65,-2.2,4.45,43.3,0.08,-0.04,1.01,-1.08,-0.65,-1.08
1900-01-01 12:34:01.807,34.33,12.96,19.52,0.22,0.54,0.77,-2.09,1.53,-0.49,-2.45,4.34,43.29,0.08,-0.04,1.01,-1.24,0.27,-1.27
1900-01-01 12:34:01.900,34.11,13.27,19.44,0.22,0.54,0.77,-1.92,2.03,-0.77,-2.42,4.6,43.26,0.08,-0.04,1.01,-1.37,-0.24,-1.39
1900-01-01 12:34:01.993,33.72,12.33,19.31,0.2,0.53,0.77,-1.44,3.5,-0.89,-2.99,4.09,43.2,0.07,-0.05,0.99,-0.82,0.47,-0.76
1900-01-01 12:34:02.112,34.37,12.67,19.17,0.21,0.55,0.78,-1.76,4.19,-1.29,-2.26,4.36,43.24,0.08,-0.04,1.02,-1.05,0.63,-0.5
1900-01-01 12:34:02.144,33.93,11.66,18.96,0.19,0.54,0.77,-3.04,4.22,-0.69,-2.69,3.8,43.33,0.07,-0.05,1.01,-2.82,0.98,-0.58
1900-01-01 12:34:02.258,33.83,11.38,18.85,0.19,0.54,0.78,-3.22,5.51,-2.44,-3.33,3.93,43.4,0.07,-0.06,1.0,-2.14,0.05,-0.56
1900-01-01 12:34:02.328,34.18,10.41,18.47,0.18,0.55,0.79,-4.4,4.73,-2.17,-2.79,3.62,43.47,0.06,-0.05,1.03,-2.77,0.72,-1.05
1900-01-01 12:34:02.367,33.14,9.83,18.13,0.16,0.52,0.77,-3.32,3.34,-2.22,-3.87,3.48,43.47,0.06,-0.07,1.0,-2.08,0.15,-1.69
1900-01-01 12:34:02.424,32.35,9.54,17.78,0.16,0.51,0.8,-1.22,2.85,-1.26,-4.09,3.67,43.37,0.06,-0.07,1.01,-0.18,-0.35,-1.08
1900-01-01 12:34:02.528,33.4,9.25,17.58,0.15,0.53,0.79,0.82,1.05,-0.1,-3.8,3.49,43.36,0.06,-0.07,1.02,3.05,0.05,0.06
1900-01-01 12:34:02.600,33.66,9.3,17.55,0.15,0.53,0.78,1.35,-0.11,1.04,-3.12,3.46,43.53,0.06,-0.05,1.0,2.66,-0.51,-0.21
1900-01-01 12:34:02.644,33.63,10.06,17.7,0.17,0.53,0.78,1.63,-1.34,1.65,-2.67,3.62,43.66,0.06,-0.05,1.01,2.82,-1.49,-0.57
1900-01-01 12:34:02.739,34.53,10.29,17.95,0.17,0.55,0.79,0.68,-0.62,2.09,-1.46,3.62,43.73,0.06,-0.03,1.01,0.84,-1.63,-0.21
1900-01-01 12:34:02.832,35.22,10.48,18.26,0.18,0.56,0.77,0.64,-3.41,3.31,-1.81,3.67,43.85,0.07,-0.03,1.02,1.5,-0.95,-0.49
1900-01-01 12:34:02.879,34.52,12.02,18.75,0.2,0.54,0.76,-0.9,-1.98,4.73,-1.23,3.8,43.94,0.07,-0.02,1.0,-3.56,-1.18,-0.92
1900-01-01 12:34:02.997,33.87,13.18,19.47,0.22,0.55,0.79,-1.51,1.11,5.49,-2.05,4.46,43.95,0.08,-0.04,1.0,-4.67,-2.92,0.3
1900-01-01 12:34:03.027,33.86,12.33,20.3,0.21,0.55,0.79,-1.4,1.67,6.6,-3.98,4.26,44.16,0.08,-0.07,1.04,-5.54,0.02,2.0
1900-01-01 12:34:03.129,33.79,13.26,21.29,0.22,0.52,0.75,-1.31,1.71,5.5,-4.35,4.08,44.62,0.07,-0.08,0.99,-4.62,0.12,1.46
1900-01-01 12:34:03.276,34.91,14.14,22.12,0.24,0.55,0.75,2.34,-0.23,4.76,-3.89,3.47,45.0,0.06,-0.07,1.01,0.61,2.13,-0.62
1900-01-01 12:34:03.276,33.98,14.47,22.84,0.24,0.54,0.76,1.43,-0.89,4.82,-4.54,3.7,45.06,0.06,-0.08,1.0,-1.66,0.88,-0.82
1900-01-01 12:34:03.363,33.97,15.49,23.57,0.26,0.55,0.77,0.22,-0.53,4.76,-4.69,3.96,45.1,0.07,-0.08,1.02,-3.72,-0.96,-0.75
1900-01-01 12:34:03.435,34.73,16.06,24.28,0.27,0.55,0.75,-1.08,-0.48,4.0,-4.7,3.79,45.14,0.07,-0.08,1.0,-3.31,1.01,0.05
1900-01-01 12:34:03.527,34.24,16.29,24.89,0.27,0.54,0.74,-1.13,0.56,3.1,-5.51,3.59,45.31,0.06,-0.1,1.0,-3.4,0.36,0.14
1900-01-01 12:34:03.618,34.0,16.41,25.35,0.27,0.53,0.74,0.08,-0.29,2.37,-5.97,3.36,45.49,0.06,-0.1,0.99,-0.79,-1.01,0.05
1900-01-01 12:34:03.647,34.44,17.35,25.7,0.29,0.55,0.75,1.09,-0.07,1.39,-5.55,3.78,45.65,0.07,-0.1,1.01,1.53,-1.02,0.04
1900-01-01 12:34:03.740,34.68,17.48,25.9,0.29,0.55,0.74,0.34,0.91,0.82,-5.3,3.88,45.82,0.07,-0.09,1.0,1.32,-0.04,-0.05
1900-01-01 12:34:03.818,35.33,17.67,26.02,0.29,0.56,0.73,-0.35,0.79,0.14,-4.38,3.42,45.97,0.06,-0.08,1.01,0.76,0.38,-0.6
1900-01-01 12:34:03.896,34.81,17.55,26.03,0.29,0.55,0.74,-0.8,0.68,-0.32,-4.99,3.71,46.04,0.07,-0.09,1.0,0.38,-0.34,-1.24
1900-01-01 12:34:03.995,34.68,17.35,25.98,0.29,0.55,0.75,-1.05,1.01,-0.42,-4.81,3.46,46.01,0.06,-0.08,1.01,-0.83,-0.78,-1.24
1900-01-01 12:34:04.029,34.82,17.86,25.9,0.3,0.56,0.74,-1.2,1.23,-0.38,-4.59,3.77,45.97,0.07,-0.08,1.01,-0.24,0.1,-0.8
1900-01-01 12:34:04.167,35.45,17.29,25.84,0.29,0.56,0.73,-1.47,1.19,-0.02,-4.25,3.36,46.01,0.06,-0.07,1.01,-0.51,0.37,-0.83
1900-01-01 12:34:04.265,35.3,17.32,25.82,0.29,0.56,0.73,-1.18,1.33,-0.48,-4.37,3.16,46.04,0.06,-0.08,1.0,-0.18,-0.18,-1.11
1900-01-01 12:34:04.265,35.26,17.5,25.74,0.29,0.56,0.74,-0.6,0.98,-0.41,-4.34,3.44,46.03,0.06,-0.08,1.02,0.75,0.18,-1.15
1900-01-01 12:34:04.352,35.31,17.12,25.67,0.29,0.56,0.74,-0.8,1.4,0.12,-4.34,3.2,46.01,0.06,-0.08,1.01,0.5,0.24,-0.76
1900-01-01 12:34:04.441,35.41,17.53,25.68,0.29,0.56,0.74,-1.0,1.17,-0.25,-4.1,3.29,46.06,0.06,-0.07,1.01,-0.02,-0.11,-0.79
1900-01-01 12:34:04.511,34.96,17.53,25.63,0.29,0.55,0.73,-1.47,1.29,-0.02,-4.3,3.29,46.09,0.06,-0.08,1.01,-1.05,-0.15,-0.98
1900-01-01 12:34:04.558,34.64,17.76,25.62,0.29,0.55,0.74,-1.8,1.53,-0.27,-4.35,3.49,46.1,0.06,-0.08,1.01,-1.7,-0.56,-1.15
1900-01-01 12:34:04.649,34.89,17.52,25.57,0.29,0.55,0.74,-1.68,1.73,-0.31,-4.2,3.4,46.09,0.06,-0.07,1.01,-1.16,-0.58,-1.02
1900-01-01 12:34:04.702,35.11,17.29,25.52,0.29,0.56,0.74,-1.43,1.74,-0.46,-4.32,3.27,46.09,0.06,-0.08,1.01,-0.94,-0.12,-1.03
1900-01-01 12:34:04.811,35.24,17.22,25.44,0.29,0.56,0.74,-1.71,1.64,-0.47,-4.27,3.23,46.09,0.06,-0.08,1.01,-1.21,-0.36,-1.18
1900-01-01 12:34:04.880,35.14,16.91,25.36,0.28,0.55,0.73,-1.34,0.95,-0.9,-4.54,3.13,46.07,0.05,-0.08,1.0,-0.15,0.42,-1.42
1900-01-01 12:34:04.971,35.25,17.13,25.21,0.29,0.56,0.74,-1.11,1.27,-0.81,-4.28,3.16,46.01,0.06,-0.08,1.01,0.19,-0.37,-1.15
1900-01-01 12:34:05.059,34.99,16.66,25.08,0.28,0.56,0.75,-0.98,1.62,-1.18,-4.59,3.4,45.99,0.06,-0.08,1.01,0.4,-0.24,-1.18
1900-01-01 12:34:05.131,35.37,16.36,24.89,0.27,0.56,0.74,-1.62,1.95,-1.64,-4.32,3.09,45.97,0.05,-0.08,1.0,0.45,0.09,-0.66
1900-01-01 12:34:05.170,35.53,16.82,24.63,0.28,0.56,0.74,-1.39,1.27,-1.71,-3.44,3.24,46.03,0.06,-0.06,1.02,1.17,0.2,-1.01
1900-01-01 12:34:05.259,35.39,16.37,24.36,0.27,0.56,0.73,-1.47,1.31,-0.8,-3.54,2.97,46.03,0.05,-0.06,1.0,0.1,-0.43,-1.12
1900-01-01 12:34:05.327,34.86,15.95,24.23,0.27,0.55,0.75,-1.14,1.48,-1.24,-4.33,3.1,46.02,0.05,-0.08,1.0,1.66,-0.7,-0.39
1900-01-01 12:34:05.429,36.17,16.34,24.03,0.28,0.58,0.74,-0.57,1.41,-1.15,-2.61,3.26,46.12,0.06,-0.05,1.02,2.21,-0.01,-0.15
1900-01-01 12:34:05.495,36.2,16.15,23.85,0.27,0.57,0.73,-2.28,1.31,-0.4,-2.08,2.95,46.25,0.05,-0.04,1.01,-1.28,-0.21,-1.16
1900-01-01 12:34:05.581,35.65,15.72,23.78,0.26,0.57,0.74,-2.34,1.4,-0.85,-3.14,2.99,46.23,0.05,-0.06,1.01,-1.47,-0.11,-1.59
1900-01-01 12:34:05.667,35.21,15.31,23.64,0.26,0.56,0.75,-2.35,1.76,-1.19,-3.69,2.88,46.15,0.05,-0.07,1.01,-1.32,-0.05,-1.36
1900-01-01 12:34:05.697,35.32,15.88,23.45,0.26,0.56,0.74,-2.23,1.48,-1.82,-3.2,3.2,46.1,0.06,-0.06,1.01,-0.31,-0.37,-1.31
1900-01-01 12:34:05.787,35.4,15.56,23.16,0.26,0.56,0.75,-2.05,0.92,-0.69,-2.43,2.76,46.06,0.05,-0.04,1.02,-0.67,-0.12,-1.59
1900-01-01 12:34:05.870,34.8,15.23,23.05,0.25,0.55,0.75,-1.62,1.16,-0.44,-3.67,2.95,45.97,0.05,-0.06,1.0,-0.84,-0.57,-1.41
1900-01-01 12:34:05.936,35.06,15.44,22.97,0.26,0.56,0.75,-0.82,1.15,0.31,-3.23,3.13,45.92,0.06,-0.06,1.01,0.07,-0.53,-0.73
1900-01-01 12:34:06.045,35.09,15.44,23.01,0.26,0.55,0.74,-0.71,1.33,0.2,-3.35,3.05,45.96,0.05,-0.06,1.0,-0.19,-0.69,-0.81
1900-01-01 12:34:06.135,35.52,15.59,23.03,0.26,0.56,0.74,-0.39,1.02,0.13,-2.75,3.11,46.0,0.06,-0.05,1.01,0.62,-0.66,-0.63
1900-01-01 12:34:06.164,35.13,15.54,23.04,0.26,0.56,0.75,-0.24,1.15,0.1,-3.07,3.4,46.06,0.06,-0.05,1.0,0.06,-0.51,-1.11
1900-01-01 12:34:06.289,35.84,15.47,23.05,0.26,0.57,0.74,-0.73,1.12,-0.04,-2.65,3.21,46.05,0.06,-0.05,1.01,0.56,-0.69,-0.92
1900-01-01 12:34:06.329,34.9,15.74,23.04,0.26,0.55,0.75,-0.73,1.29,0.12,-3.14,3.54,46.07,0.06,-0.06,1.01,-0.37,-0.49,-0.86
1900-01-01 12:34:06.385,36.05,15.58,23.05,0.26,0.57,0.73,-0.95,1.27,0.37,-2.25,3.09,46.09,0.05,-0.04,1.0,0.11,0.11,-0.65
1900-01-01 12:34:06.476,35.81,15.66,23.09,0.26,0.57,0.74,-0.34,1.08,0.14,-2.68,3.23,46.15,0.06,-0.05,1.01,0.31,-0.18,-0.62
1900-01-01 12:34:06.544,35.79,15.5,23.11,0.26,0.56,0.74,-0.76,1.1,0.05,-3.13,3.29,46.22,0.06,-0.06,1.01,-0.06,-0.42,-0.95
1900-01-01 12:34:06.633,35.58,15.7,23.11,0.26,0.56,0.74,-0.76,0.92,-0.14,-2.44,3.41,46.23,0.06,-0.04,1.02,-0.68,-1.16,-1.34
1900-01-01 12:34:06.716,35.36,15.67,23.08,0.26,0.56,0.74,-0.73,1.45,-0.21,-3.15,3.49,46.19,0.06,-0.06,1.01,-0.44,-0.4,-0.85
1900-01-01 12:34:06.801,35.6,15.94,23.04,0.26,0.56,0.73,-1.05,1.24,0.18,-2.56,3.33,46.21,0.06,-0.05,1.01,-0.05,0.39,-0.66
1900-01-01 12:34:06.886,35.39,15.78,23.06,0.26,0.56,0.74,-1.53,1.15,-0.34,-3.01,3.45,46.27,0.06,-0.05,1.01,-0.62,-0.5,-1.08
1900-01-01 12:34:06.939,35.78,15.78,23.0,0.26,0.57,0.74,-1.03,1.02,0.03,-2.39,3.36,46.27,0.06,-0.04,1.01,-0.03,-0.05,-0.95
1900-01-01 12:34:07.063,35.44,15.55,22.99,0.26,0.56,0.74,-0.97,1.28,-0.27,-2.99,3.43,46.28,0.06,-0.05,1.01,-0.31,-0.34,-0.98
1900-01-01 12:34:07.142,35.28,15.93,22.94,0.26,0.56,0.74,-1.12,1.15,-0.04,-2.79,3.46,46.29,0.06,-0.05,1.01,-0.51,-0.35,-1.01
1900-01-01 12:34:07.230,35.49,15.59,22.93,0.26,0.56,0.74,-1.43,1.15,-0.16,-2.6,3.32,46.29,0.06,-0.05,1.01,-0.69,-0.42,-0.98
1900-01-01 12:34:07.230,35.86,15.56,22.9,0.26,0.57,0.74,-1.27,1.24,-0.08,-2.4,3.22,46.3,0.06,-0.04,1.0,-0.56,-0.27,-0.94
1900-01-01 12:34:07.317,35.66,15.79,22.87,0.26,0.56,0.74,-1.2,0.85,-0.29,-2.67,3.41,46.31,0.06,-0.05,1.01,-0.3,-0.53,-1.16
1900-01-01 12:34:07.408,35.6,15.52,22.82,0.26,0.56,0.74,-1.34,1.28,0.0,-2.64,3.47,46.29,0.06,-0.05,1.0,-0.42,-0.35,-0.97
1900-01-01 12:34:07.454,35.56,15.77,22.81,0.26,0.56,0.74,-1.13,1.27,-0.27,-2.47,3.44,46.31,0.06,-0.04,1.01,-0.23,-0.58,-0.99
1900-01-01 12:34:07.547,35.87,15.5,22.76,0.26,0.57,0.74,-1.13,1.21,0.17,-2.37,3.4,46.31,0.06,-0.04,1.01,-0.36,-0.08,-0.8
1900-01-01 12:34:07.640,36.18,15.75,22.78,0.26,0.57,0.74,-0.95,1.09,-0.09,-2.28,3.34,46.35,0.06,-0.04,1.01,0.22,-0.36,-0.76
1900-01-01 12:34:07.687,35.61,15.45,22.76,0.26,0.56,0.74,-1.04,1.21,0.02,-2.56,3.47,46.39,0.06,-0.05,1.01,-0.29,-0.21,-0.99
1900-01-01 12:34:07.779,36.14,15.85,22.75,0.27,0.57,0.74,-1.06,1.11,-0.11,-1.85,3.36,46.4,0.06,-0.03,1.01,-0.18,-0.53,-0.97
1900-01-01 12:34:07.896,35.69,15.55,22.72,0.26,0.56,0.74,-1.14,1.43,-0.02,-2.39,3.28,46.41,0.06,-0.04,1.01,-0.41,-0.2,-0.81
1900-01-01 12:34:07.924,36.15,15.84,22.71,0.27,0.57,0.74,-0.92,1.21,-0.12,-2.13,3.6,46.44,0.06,-0.04,1.02,0.08,-0.15,-0.7
1900-01-01 12:34:08.015,35.83,15.14,22.69,0.25,0.56,0.74,-1.11,1.25,-0.05,-2.5,3.05,46.49,0.05,-0.04,1.01,-0.5,-0.25,-0.86
1900-01-01 12:34:08.095,36.07,15.77,22.67,0.26,0.57,0.74,-1.56,1.24,-0.13,-1.88,3.4,46.52,0.06,-0.03,1.02,-0.83,-0.4,-0.95
1900-01-01 12:34:08.183,36.1,15.36,22.64,0.25,0.57,0.73,-1.31,1.44,-0.12,-2.29,3.28,46.53,0.06,-0.04,1.01,-0.64,-0.24,-0.81
1900-01-01 12:34:08.267,35.97,15.46,22.62,0.26,0.57,0.74,-1.66,1.15,-0.01,-2.07,3.35,46.57,0.06,-0.04,1.02,-0.85,-0.36,-1.03
1900-01-01 12:34:08.333,35.91,15.4,22.61,0.25,0.56,0.73,-1.32,1.29,-0.05,-2.37,3.15,46.57,0.06,-0.04,1.0,-0.5,-0.17,-0.77
1900-01-01 12:34:08.389,36.16,15.75,22.59,0.26,0.58,0.74,-1.15,1.13,0.02,-1.88,3.58,46.61,0.06,-0.03,1.02,-0.24,-0.4,-0.89
1900-01-01 12:34:08.484,35.92,15.38,22.58,0.25,0.56,0.73,-0.8,1.27,-0.11,-2.4,3.22,46.63,0.06,-0.04,1.0,-0.09,-0.24,-0.8
1900-01-01 12:34:08.528,35.97,15.89,22.56,0.26,0.57,0.74,-1.08,0.97,-0.03,-2.09,3.5,46.67,0.06,-0.04,1.02,-0.36,-0.5,-1.04
1900-01-01 12:34:08.623,35.53,15.45,22.55,0.26,0.56,0.74,-1.27,1.25,0.01,-2.42,3.47,46.67,0.06,-0.04,1.01,-0.73,-0.55,-0.94
1900-01-01 12:34:08.752,36.02,15.66,22.54,0.26,0.57,0.74,-1.41,1.4,-0.06,-1.84,3.45,46.68,0.06,-0.03,1.01,-0.66,-0.37,-0.91
1900-01-01 12:34:08.752,35.98,15.42,22.52,0.26,0.57,0.74,-1.15,1.21,-0.07,-2.16,3.31,46.7,0.06,-0.04,1.01,-0.24,-0.16,-0.86
1900-01-01 12:34:08.836,35.91,15.58,22.5,0.26,0.57,0.74,-1.35,1.26,0.05,-2.08,3.35,46.73,0.06,-0.04,1.01,-0.73,-0.47,-0.95
1900-01-01 12:34:08.938,36.05,15.29,22.5,0.25,0.57,0.74,-1.34,1.35,-0.14,-2.11,3.26,46.74,0.06,-0.04,1.01,-0.51,-0.38,-0.92
1900-01-01 12:34:09.007,36.19,15.67,22.47,0.26,0.57,0.74,-1.18,1.34,-0.08,-1.89,3.45,46.76,0.06,-0.03,1.01,-0.52,-0.47,-0.94
1900-01-01 12:34:09.088,35.58,15.15,22.45,0.25,0.56,0.74,-1.15,1.48,0.19,-2.31,3.35,46.77,0.06,-0.04,1.01,-0.53,-0.12,-0.78
1900-01-01 12:34:09.175,36.07,15.57,22.47,0.26,0.57,0.74,-1.49,1.84,0.02,-1.96,3.42,46.81,0.06,-0.03,1.01,-1.12,-0.37,-0.6
1900-01-01 12:34:09.261,35.88,15.54,22.46,0.26,0.56,0.74,-1.05,1.58,0.23,-2.06,3.46,46.88,0.06,-0.04,1.01,-0.63,-0.39,-0.52
1900-01-01 12:34:09.287,35.96,15.28,22.49,0.25,0.57,0.74,-0.74,1.47,0.17,-2.29,3.44,46.96,0.06,-0.04,1.01,-0.27,-0.37,-0.51
1900-01-01 12:34:09.370,36.65,15.49,22.51,0.26,0.58,0.73,-1.44,1.18,-0.17,-1.72,3.39,47.04,0.06,-0.03,1.01,-0.42,-0.37,-0.84
1900-01-01 12:34:09.466,36.19,15.24,22.47,0.25,0.57,0.74,-1.51,1.04,-0.06,-2.08,3.31,47.07,0.06,-0.04,1.01,-0.51,0.17,-1.05
1900-01-01 12:34:09.514,36.4,15.52,22.46,0.26,0.57,0.74,-0.62,1.24,-0.34,-1.74,3.31,47.07,0.06,-0.03,1.01,0.65,-0.02,-0.59
1900-01-01 12:34:09.608,36.48,15.52,22.4,0.26,0.57,0.73,-0.67,1.24,-0.21,-1.54,3.3,47.14,0.06,-0.03,1.01,0.51,-0.02,-0.63
1900-01-01 12:34:09.701,36.41,15.37,22.36,0.26,0.58,0.74,-1.37,1.27,-0.4,-1.74,3.21,47.2,0.06,-0.03,1.01,-0.44,-0.23,-1.1
1900-01-01 12:34:09.747,36.34,15.55,22.29,0.26,0.57,0.73,-1.95,1.38,-0.18,-1.38,3.15,47.19,0.06,-0.02,1.01,-1.19,-0.05,-1.16
1900-01-01 12:34:09.841,36.52,15.26,22.25,0.25,0.57,0.73,-1.23,1.34,-0.43,-1.71,3.14,47.17,0.05,-0.03,1.0,-0.34,-0.31,-1.05
1900-01-01 12:34:09.934,36.11,15.26,22.18,0.25,0.57,0.74,-1.15,1.72,-0.45,-1.87,3.5,47.17,0.06,-0.03,1.0,-0.37,0.03,-1.02
1900-01-01 12:34:09.979,36.25,15.28,22.1,0.26,0.57,0.74,-1.44,1.4,-0.24,-1.74,3.23,47.17,0.06,-0.03,1.02,-0.8,0.24,-1.09
1900-01-01 12:34:10.073,36.32,15.17,22.05,0.25,0.57,0.73,-1.65,1.45,-0.22,-1.67,3.12,47.16,0.05,-0.03,1.01,-1.07,-0.1,-0.92
1900-01-01 12:34:10.260,36.19,15.02,22.01,0.25,0.57,0.73,-1.6,1.27,-0.11,-1.98,3.01,47.18,0.05,-0.03,1.01,-0.79,-0.11,-0.99
1900-01-01 12:34:10.288,36.48,15.01,21.99,0.25,0.58,0.74,-1.46,1.32,-0.24,-1.68,3.05,47.19,0.05,-0.03,1.01,-0.5,-0.6,-1.0
1900-01-01 12:34:10.288,36.6,14.81,21.94,0.25,0.57,0.73,-1.05,1.07,-0.17,-1.63,3.01,47.19,0.05,-0.03,1.0,0.18,-0.35,-1.02
1900-01-01 12:34:10.379,36.12,15.11,21.91,0.25,0.57,0.74,-0.72,1.18,0.0,-1.88,3.37,47.19,0.06,-0.03,1.02,0.24,-0.24,-0.92
1900-01-01 12:34:10.430,36.26,15.02,21.9,0.25,0.57,0.73,-1.08,1.22,-0.13,-1.91,3.12,47.21,0.05,-0.03,1.01,-0.45,-0.47,-1.0
1900-01-01 12:34:10.513,36.13,15.18,21.87,0.25,0.57,0.74,-1.32,1.14,-0.02,-1.59,3.2,47.22,0.06,-0.03,1.01,-0.52,-0.44,-1.03
1900-01-01 12:34:10.614,36.33,15.04,21.86,0.25,0.57,0.74,-1.53,1.22,-0.16,-1.49,3.07,47.22,0.05,-0.03,1.01,-0.69,-0.6,-1.07
1900-01-01 12:34:10.691,36.21,14.98,21.82,0.25,0.57,0.74,-1.18,1.18,-0.12,-1.71,3.23,47.21,0.06,-0.03,1.01,-0.22,-0.24,-1.08
1900-01-01 12:34:10.759,36.25,15.06,21.8,0.25,0.57,0.74,-1.4,1.41,-0.22,-1.7,3.3,47.2,0.06,-0.03,1.01,-0.62,-0.5,-1.03
1900-01-01 12:34:10.866,36.35,15.05,21.75,0.25,0.57,0.73,-1.56,1.34,-0.05,-1.37,3.17,47.21,0.06,-0.02,1.01,-0.72,-0.31,-1.06
1900-01-01 12:34:10.921,36.34,15.09,21.74,0.25,0.57,0.74,-1.0,1.24,-0.13,-1.57,3.34,47.2,0.06,-0.03,1.01,-0.14,-0.35,-0.99
1900-01-01 12:34:10.984,36.06,14.79,21.71,0.25,0.57,0.74,-1.19,1.43,-0.09,-1.84,3.23,47.21,0.06,-0.03,1.01,-0.53,-0.3,-0.99
1900-01-01 12:34:11.117,36.35,15.08,21.69,0.25,0.57,0.74,-1.56,1.27,-0.01,-1.19,3.18,47.21,0.06,-0.02,1.01,-0.89,-0.28,-0.98
1900-01-01 12:34:11.204,36.26,14.8,21.68,0.25,0.57,0.73,-1.07,1.27,-0.2,-1.71,3.07,47.22,0.05,-0.03,1.01,-0.28,-0.34,-1.06
1900-01-01 12:34:11.204,36.16,14.99,21.64,0.25,0.57,0.74,-1.05,1.29,-0.13,-1.69,3.53,47.22,0.06,-0.03,1.02,-0.09,-0.41,-0.92
1900-01-01 12:34:11.285,36.15,14.7,21.61,0.25,0.57,0.74,-1.72,1.45,-0.02,-1.45,2.99,47.23,0.05,-0.03,1.01,-1.27,-0.58,-1.05
1900-01-01 12:34:11.379,36.61,15.2,21.6,0.25,0.58,0.73,-1.76,1.33,-0.02,-1.06,3.19,47.23,0.06,-0.02,1.01,-0.82,-0.27,-0.89
1900-01-01 12:34:11.427,36.29,14.74,21.59,0.25,0.57,0.74,-0.84,1.24,-0.05,-1.8,3.16,47.26,0.06,-0.03,1.01,0.1,-0.15,-0.79
1900-01-01 12:34:11.509,36.15,15.07,21.57,0.25,0.56,0.73,-0.91,1.56,-0.03,-1.63,3.43,47.29,0.06,-0.03,1.0,-0.37,0.01,-0.93
1900-01-01 12:34:11.609,36.12,15.01,21.56,0.25,0.57,0.74,-1.05,1.01,0.02,-1.65,3.32,47.31,0.06,-0.03,1.01,-0.6,-0.42,-1.02
1900-01-01 12:34:11.668,36.19,14.86,21.55,0.25,0.57,0.74,-1.35,1.31,0.03,-1.79,3.22,47.31,0.06,-0.03,1.01,-0.73,-0.16,-0.79
1900-01-01 12:34:11.755,36.38,14.96,21.55,0.25,0.57,0.73,-1.5,1.18,0.02,-1.44,3.07,47.35,0.05,-0.03,1.01,-0.87,-0.29,-0.85
1900-01-01 12:34:11.833,36.24,14.99,21.54,0.25,0.57,0.74,-1.13,1.18,-0.01,-1.69,3.18,47.38,0.06,-0.03,1.01,-0.46,-0.26,-0.8
1900-01-01 12:34:11.918,36.09,14.9,21.54,0.25,0.57,0.74,-1.44,1.28,0.02,-1.81,3.24,47.42,0.06,-0.03,1.01,-1.0,-0.32,-0.97
1900-01-01 12:34:11.995,36.12,15.08,21.53,0.25,0.57,0.74,-1.53,1.34,0.01,-1.7,3.12,47.43,0.06,-0.03,1.01,-1.13,-0.18,-0.89
1900-01-01 12:34:12.036,36.29,15.04,21.52,0.25,0.57,0.74,-1.41,1.38,-0.08,-1.65,3.17,47.45,0.06,-0.03,1.01,-0.72,-0.35,-0.89
1900-01-01 12:34:12.199,36.25,14.84,21.5,0.25,0.57,0.74,-1.18,1.27,0.05,-1.68,3.03,47.47,0.05,-0.03,1.01,-0.48,-0.16,-0.87
1900-01-01 12:34:12.214,36.18,14.95,21.5,0.25,0.57,0.74,-1.18,1.24,-0.08,-1.81,3.19,47.5,0.06,-0.03,1.01,-0.47,-0.27,-0.87
1900-01-01 12:34:12.267,36.08,14.73,21.48,0.24,0.57,0.74,-1.05,1.45,-0.01,-2.03,3.06,47.52,0.05,-0.04,1.01,-0.55,-0.3,-0.87
1900-01-01 12:34:12.361,36.24,15.03,21.47,0.25,0.57,0.74,-1.2,1.26,-0.02,-1.68,3.15,47.55,0.06,-0.03,1.01,-0.66,-0.24,-0.85
1900-01-01 12:34:12.453,36.11,14.72,21.46,0.25,0.57,0.74,-1.5,1.18,-0.07,-1.88,2.99,47.58,0.05,-0.03,1.01,-0.99,-0.59,-0.92
1900-01-01 12:34:12.500,36.25,14.86,21.44,0.25,0.57,0.74,-1.23,1.3,0.01,-1.63,3.23,47.59,0.06,-0.03,1.01,-0.45,-0.37,-0.92
1900-01-01 12:34:12.593,36.35,14.83,21.43,0.25,0.57,0.74,-1.03,1.26,-0.06,-1.81,3.07,47.61,0.05,-0.03,1.01,-0.27,-0.29,-0.86
1900-01-01 12:34:12.729,36.13,14.86,21.41,0.25,0.57,0.74,-1.12,1.3,0.04,-2.03,3.34,47.64,0.06,-0.04,1.01,-0.57,-0.43,-0.84
1900-01-01 12:34:12.729,36.28,14.9,21.41,0.25,0.57,0.74,-1.49,1.27,0.06,-1.65,3.09,47.67,0.05,-0.03,1.01,-0.95,-0.47,-0.89
1900-01-01 12:34:12.814,36.54,15.02,21.41,0.25,0.58,0.74,-1.23,1.19,0.04,-1.5,3.1,47.69,0.05,-0.03,1.01,-0.53,-0.21,-0.87
1900-01-01 12:34:12.891,36.45,14.75,21.41,0.24,0.57,0.73,-0.76,1.1,0.06,-1.93,2.98,47.72,0.05,-0.03,1.01,-0.04,-0.11,-0.84
1900-01-01 12:34:12.996,36.12,14.95,21.41,0.25,0.57,0.74,-1.27,1.25,-0.03,-1.82,3.18,47.75,0.06,-0.03,1.01,-0.71,-0.39,-0.91
1900-01-01 12:34:13.056,36.03,14.78,21.4,0.25,0.57,0.74,-1.25,1.45,0.02,-1.91,3.1,47.77,0.05,-0.03,1.01,-0.79,-0.02,-0.79
1900-01-01 12:34:13.132,36.54,14.9,21.39,0.25,0.58,0.74,-1.73,1.37,0.02,-1.31,3.0,47.8,0.05,-0.02,1.01,-0.96,-0.49,-0.78
1900-01-01 12:34:13.220,36.34,14.67,21.39,0.25,0.57,0.74,-1.34,1.18,-0.04,-1.84,3.05,47.84,0.05,-0.03,1.01,-0.47,-0.19,-0.91
1900-01-01 12:34:13.261,36.45,14.96,21.37,0.25,0.58,0.74,-1.27,1.23,0.09,-1.63,3.13,47.86,0.06,-0.03,1.01,-0.34,-0.2,-0.85
1900-01-01 12:34:13.339,36.11,14.76,21.38,0.24,0.57,0.74,-1.24,1.34,-0.09,-2.05,3.02,47.89,0.05,-0.04,1.01,-0.64,-0.25,-0.89
1900-01-01 12:34:13.433,36.44,15.08,21.36,0.25,0.57,0.74,-1.67,1.2,-0.01,-1.49,3.13,47.91,0.06,-0.03,1.01,-0.96,-0.35,-0.86
1900-01-01 12:34:13.528,36.39,14.69,21.35,0.24,0.57,0.74,-1.31,1.28,-0.1,-1.8,2.92,47.94,0.05,-0.03,1.01,-0.44,-0.31,-0.85
1900-01-01 12:34:13.575,36.19,14.81,21.32,0.25,0.57,0.74,-1.16,1.35,-0.03,-1.8,3.0,47.96,0.05,-0.03,1.01,-0.44,-0.25,-0.91
1900-01-01 12:34:13.667,36.44,14.9,21.31,0.25,0.57,0.74,-1.31,1.35,-0.13,-1.54,3.0,47.98,0.05,-0.03,1.01,-0.69,-0.4,-0.85
1900-01-01 12:34:13.732,36.2,14.93,21.28,0.25,0.57,0.74,-1.37,1.18,-0.14,-1.76,3.19,48.01,0.06,-0.03,1.01,-0.57,-0.4,-1.02
1900-01-01 12:34:13.835,36.21,14.79,21.25,0.25,0.57,0.74,-1.51,1.21,-0.15,-1.91,3.21,48.01,0.06,-0.03,1.01,-0.61,-0.27,-0.9
1900-01-01 12:34:13.899,36.15,14.95,21.22,0.25,0.57,0.74,-1.37,1.33,-0.07,-1.5,3.02,48.04,0.05,-0.03,1.01,-0.66,-0.5,-0.96
1900-01-01 12:34:13.981,36.24,14.84,21.2,0.25,0.57,0.74,-1.12,1.27,-0.02,-1.86,3.11,48.05,0.05,-0.03,1.01,-0.28,-0.22,-0.83
1900-01-01 12:34:14.069,36.32,14.89,21.19,0.25,0.57,0.74,-1.31,1.27,0.05,-1.68,3.14,48.08,0.06,-0.03,1.01,-0.56,-0.31,-0.95
1900-01-01 12:34:14.152,36.26,14.81,21.19,0.25,0.57,0.74,-1.52,1.33,-0.16,-1.62,3.07,48.09,0.05,-0.03,1.01,-0.7,-0.39,-0.9
1900-01-01 12:34:14.238,36.52,14.65,21.16,0.24,0.57,0.74,-1.37,1.1,0.02,-1.54,2.95,48.11,0.05,-0.03,1.01,-0.47,-0.28,-1.02
1900-01-01 12:34:14.275,36.42,14.82,21.15,0.25,0.58,0.74,-1.25,1.2,-0.02,-1.75,3.15,48.11,0.06,-0.03,1.01,-0.4,-0.31,-0.83
1900-01-01 12:34:14.395,36.3,14.51,21.14,0.24,0.57,0.73,-1.07,1.34,0.02,-1.97,2.89,48.14,0.05,-0.03,1.01,-0.51,-0.19,-0.82
1900-01-01 12:34:14.424,36.1,14.86,21.13,0.25,0.57,0.74,-1.5,1.2,0.04,-1.87,3.24,48.18,0.06,-0.03,1.02,-0.96,-0.31,-0.84
1900-01-01 12:34:14.508,36.43,14.71,21.13,0.24,0.57,0.74,-1.43,1.42,-0.08,-1.68,2.97,48.21,0.05,-0.03,1.01,-0.66,-0.31,-0.89
1900-01-01 12:34:14.564,36.38,14.83,21.11,0.25,0.57,0.74,-1.38,1.22,0.02,-1.74,3.17,48.23,0.06,-0.03,1.01,-0.53,-0.26,-0.86
1900-01-01 12:34:14.651,36.24,14.75,21.1,0.25,0.57,0.74,-1.27,1.36,-0.03,-1.97,3.01,48.26,0.05,-0.03,1.01,-0.68,-0.25,-0.87
1900-01-01 12:34:14.712,36.42,14.74,21.09,0.25,0.57,0.74,-1.57,1.28,0.02,-1.63,2.88,48.28,0.05,-0.03,1.01,-0.78,-0.27,-0.91
1900-01-01 12:34:14.793,36.05,14.7,21.08,0.25,0.57,0.74,-1.11,1.39,-0.14,-1.97,3.08,48.3,0.05,-0.03,1.01,-0.44,-0.33,-0.89
1900-01-01 12:34:14.874,36.35,14.64,21.05,0.24,0.57,0.74,-1.5,1.3,0.02,-1.76,3.0,48.32,0.05,-0.03,1.01,-0.8,-0.24,-0.91
1900-01-01 12:34:14.967,36.22,14.78,21.05,0.25,0.57,0.74,-1.31,1.27,-0.15,-1.94,3.08,48.34,0.05,-0.03,1.01,-0.56,-0.33,-0.87
1900-01-01 12:34:15.040,36.37,14.43,21.02,0.24,0.57,0.74,-1.27,1.11,0.08,-1.98,3.01,48.37,0.05,-0.03,1.01,-0.6,-0.24,-0.95
1900-01-01 12:34:15.142,36.1,14.73,21.02,0.25,0.57,0.75,-0.95,1.41,-0.26,-1.89,3.16,48.38,0.06,-0.03,1.01,-0.18,-0.54,-0.99
1900-01-01 12:34:15.235,36.18,14.49,20.97,0.24,0.56,0.73,-1.41,1.14,0.15,-2.03,2.92,48.39,0.05,-0.04,1.0,-0.91,-0.15,-0.96
1900-01-01 12:34:15.267,36.13,14.78,20.99,0.25,0.57,0.75,-1.34,1.13,-0.08,-1.93,3.2,48.4,0.06,-0.03,1.02,-0.83,-0.47,-0.79
1900-01-01 12:34:15.351,36.0,14.39,20.97,0.24,0.56,0.74,-1.6,1.42,-0.11,-2.0,2.85,48.44,0.05,-0.04,1.0,-1.11,-0.46,-1.11
1900-01-01 12:34:15.398,36.18,14.96,20.94,0.25,0.57,0.74,-1.27,1.15,-0.07,-1.84,3.11,48.43,0.06,-0.03,1.02,-0.52,-0.1,-0.84
1900-01-01 12:34:15.591,35.99,14.52,20.92,0.24,0.56,0.74,-1.07,1.24,-0.13,-2.32,3.1,48.46,0.05,-0.04,1.0,-0.43,-0.4,-0.93
1900-01-01 12:34:15.591,36.13,14.73,20.89,0.25,0.57,0.74,-1.37,1.18,0.09,-1.85,3.08,48.47,0.05,-0.03,1.01,-0.73,-0.31,-0.96
1900-01-01 12:34:15.633,36.12,14.68,20.9,0.25,0.57,0.74,-1.47,1.19,-0.18,-1.97,2.93,48.48,0.05,-0.03,1.01,-0.66,-0.4,-0.84
1900-01-01 12:34:15.726,36.13,14.66,20.86,0.24,0.57,0.74,-1.65,1.24,0.07,-1.84,3.01,48.51,0.05,-0.03,1.01,-1.08,-0.36,-0.86
1900-01-01 12:34:15.819,36.34,14.75,20.87,0.25,0.57,0.74,-1.53,1.27,-0.12,-1.83,2.97,48.54,0.05,-0.03,1.01,-0.67,-0.3,-0.85
1900-01-01 12:34:15.865,36.03,14.79,20.84,0.25,0.57,0.74,-1.53,1.26,0.02,-1.96,3.07,48.57,0.05,-0.03,1.01,-0.86,-0.32,-0.95
1900-01-01 12:34:15.959,36.17,14.62,20.83,0.24,0.57,0.74,-1.21,1.27,-0.06,-2.07,3.0,48.58,0.05,-0.04,1.01,-0.48,-0.26,-0.85
1900-01-01 12:34:16.060,36.26,14.61,20.82,0.24,0.57,0.74,-1.13,1.34,0.0,-2.11,3.01,48.61,0.05,-0.04,1.01,-0.51,-0.22,-0.83
1900-01-01 12:34:16.101,36.17,14.78,20.81,0.25,0.57,0.74,-1.03,1.24,0.02,-2.06,3.01,48.64,0.05,-0.04,1.01,-0.4,-0.27,-0.81
1900-01-01 12:34:16.237,36.21,14.55,20.8,0.24,0.57,0.74,-1.25,1.25,0.1,-2.16,2.91,48.68,0.05,-0.04,1.01,-0.76,-0.31,-0.87
1900-01-01 12:34:16.265,36.18,14.73,20.81,0.25,0.57,0.74,-1.09,1.29,-0.11,-2.18,3.04,48.7,0.05,-0.04,1.01,-0.42,-0.44,-0.82
1900-01-01 12:34:16.333,36.11,14.61,20.78,0.24,0.57,0.74,-1.46,1.3,0.09,-1.83,2.91,48.73,0.05,-0.03,1.01,-0.79,-0.3,-0.88
1900-01-01 12:34:16.426,36.33,14.77,20.79,0.25,0.57,0.74,-1.04,1.15,-0.11,-2.01,3.1,48.76,0.05,-0.04,1.01,-0.1,-0.42,-0.87
1900-01-01 12:34:16.474,35.93,14.61,20.76,0.24,0.57,0.74,-1.27,1.33,0.13,-2.16,3.2,48.78,0.06,-0.04,1.01,-0.59,-0.3,-0.9
1900-01-01 12:34:16.568,36.33,14.79,20.77,0.25,0.57,0.74,-1.3,1.37,-0.11,-1.92,2.96,48.8,0.05,-0.03,1.01,-0.63,-0.47,-0.92
1900-01-01 12:34:16.663,36.23,14.55,20.75,0.24,0.57,0.74,-1.21,1.35,0.05,-2.04,3.06,48.82,0.05,-0.04,1.0,-0.5,-0.19,-0.79
1900-01-01 12:34:16.710,36.31,14.9,20.75,0.25,0.57,0.74,-1.3,1.18,-0.02,-1.78,3.14,48.86,0.06,-0.03,1.01,-0.55,-0.38,-0.85
1900-01-01 12:34:16.803,35.95,14.48,20.74,0.24,0.57,0.74,-1.29,1.3,-0.02,-2.16,3.01,48.89,0.05,-0.04,1.01,-0.73,-0.35,-0.97
1900-01-01 12:34:16.854,36.6,14.83,20.72,0.25,0.58,0.74,-1.18,1.18,-0.01,-1.56,2.95,48.9,0.05,-0.03,1.01,-0.37,-0.44,-0.97
1900-01-01 12:34:16.932,36.26,14.63,20.71,0.24,0.57,0.74,-1.02,1.23,-0.04,-2.14,3.13,48.91,0.06,-0.04,1.01,-0.11,-0.23,-0.89
1900-01-01 12:34:17.011,36.15,14.7,20.7,0.24,0.57,0.74,-1.0,1.37,0.11,-1.98,2.98,48.93,0.05,-0.03,1.01,-0.47,-0.19,-0.76
1900-01-01 12:34:17.109,36.12,14.72,20.71,0.25,0.57,0.74,-1.4,1.28,-0.04,-2.0,3.26,48.97,0.06,-0.04,1.01,-0.76,-0.47,-0.91
1900-01-01 12:34:17.178,36.38,14.61,20.69,0.24,0.58,0.74,-1.62,1.18,-0.08,-1.85,3.09,48.99,0.05,-0.03,1.01,-0.79,-0.43,-1.02
1900-01-01 12:34:17.289,36.2,14.53,20.67,0.24,0.57,0.74,-1.18,1.4,-0.05,-1.97,2.96,48.99,0.05,-0.03,1.0,-0.38,-0.24,-0.88
1900-01-01 12:34:17.351,36.16,14.7,20.66,0.25,0.57,0.74,-1.22,1.23,-0.01,-2.01,3.09,49.02,0.05,-0.04,1.01,-0.53,-0.29,-0.95
1900-01-01 12:34:17.423,36.29,14.54,20.65,0.24,0.57,0.74,-1.3,1.45,-0.02,-1.99,2.99,49.03,0.05,-0.03,1.01,-0.7,-0.34,-0.82
1900-01-01 12:34:17.502,36.44,14.73,20.64,0.25,0.58,0.74,-1.7,1.1,0.01,-1.64,3.01,49.06,0.05,-0.03,1.01,-0.77,-0.29,-0.89
1900-01-01 12:34:17.550,36.04,14.35,20.63,0.24,0.57,0.75,-1.17,1.21,-0.09,-2.27,2.99,49.09,0.05,-0.04,1.01,-0.36,-0.4,-0.92
1900-01-01 12:34:17.657,36.29,14.58,20.61,0.24,0.57,0.74,-1.08,1.41,-0.05,-1.96,3.0,49.1,0.05,-0.03,1.01,-0.48,-0.27,-0.86
1900-01-01 12:34:17.691,36.3,14.65,20.59,0.24,0.57,0.74,-1.18,1.2,-0.06,-1.7,3.02,49.13,0.05,-0.03,1.01,-0.49,-0.52,-1.01
1900-01-01 12:34:17.784,36.44,14.39,20.57,0.24,0.57,0.73,-1.33,1.28,-0.04,-2.09,2.91,49.13,0.05,-0.04,1.01,-0.42,-0.2,-0.87
1900-01-01 12:34:17.877,36.04,14.79,20.56,0.25,0.57,0.74,-1.41,1.17,-0.01,-1.88,3.11,49.16,0.06,-0.03,1.02,-0.83,-0.33,-0.92
1900-01-01 12:34:17.956,36.28,14.58,20.55,0.24,0.57,0.74,-1.6,1.29,-0.11,-1.99,3.09,49.18,0.05,-0.04,1.01,-0.79,-0.37,-0.95
1900-01-01 12:34:18.034,36.25,14.42,20.52,0.24,0.57,0.74,-1.26,1.27,-0.07,-2.08,2.94,49.19,0.05,-0.04,1.01,-0.34,-0.21,-0.9
1900-01-01 12:34:18.098,36.14,14.65,20.51,0.24,0.57,0.74,-1.11,1.12,-0.05,-2.22,3.19,49.21,0.06,-0.04,1.01,-0.37,-0.31,-0.9
1900-01-01 12:34:18.175,35.81,14.67,20.49,0.25,0.57,0.75,-1.34,1.24,-0.05,-2.1,3.23,49.23,0.06,-0.04,1.01,-0.73,-0.53,-1.02
1900-01-01 12:34:18.264,36.13,14.62,20.47,0.24,0.57,0.74,-1.51,1.34,-0.04,-1.7,3.02,49.23,0.05,-0.03,1.01,-0.69,-0.3,-0.87
1900-01-01 12:34:18.307,36.39,14.62,20.46,0.24,0.57,0.74,-1.06,1.34,-0.02,-1.89,3.0,49.26,0.05,-0.03,1.01,-0.25,-0.23,-0.83
1900-01-01 12:34:18.392,36.18,14.65,20.45,0.24,0.57,0.74,-1.07,1.31,0.0,-1.98,3.11,49.29,0.05,-0.03,1.01,-0.5,-0.28,-0.84
1900-01-01 12:34:18.484,36.03,14.57,20.44,0.24,0.57,0.74,-1.65,1.34,-0.02,-1.87,2.97,49.32,0.05,-0.03,1.01,-1.16,-0.32,-0.97
1900-01-01 12:34:18.578,36.2,14.65,20.43,0.24,0.57,0.74,-1.56,1.34,-0.04,-1.76,2.95,49.33,0.05,-0.03,1.01,-0.89,-0.22,-0.82
1900-01-01 12:34:18.625,36.27,14.48,20.41,0.24,0.57,0.74,-1.24,1.27,-0.06,-2.1,3.08,49.36,0.05,-0.04,1.01,-0.4,-0.29,-0.88
1900-01-01 12:34:18.717,36.16,14.5,20.4,0.24,0.57,0.74,-1.38,1.24,0.02,-2.09,3.02,49.38,0.05,-0.04,1.01,-0.73,-0.25,-0.85
1900-01-01 12:34:18.764,36.07,14.52,20.39,0.24,0.57,0.74,-1.34,1.27,-0.04,-2.07,3.05,49.41,0.05,-0.04,1.01,-0.7,-0.36,-0.89
1900-01-01 12:34:18.873,36.11,14.55,20.38,0.24,0.57,0.74,-1.56,1.15,0.05,-1.99,3.1,49.44,0.05,-0.04,1.01,-0.92,-0.18,-0.88
1900-01-01 12:34:19.013,36.11,14.52,20.37,0.24,0.57,0.74,-1.18,1.31,0.04,-2.14,3.03,49.46,0.05,-0.04,1.01,-0.46,-0.44,-0.88
1900-01-01 12:34:19.013,35.51,14.67,20.37,0.24,0.56,0.75,-0.69,0.95,-0.25,-2.87,3.5,49.48,0.06,-0.05,1.01,0.18,-0.4,-0.79
1900-01-01 12:34:19.124,36.4,14.43,20.32,0.24,0.57,0.74,-1.11,1.25,0.21,-1.98,3.07,49.52,0.05,-0.03,1.01,-0.52,-0.32,-0.7
1900-01-01 12:34:19.180,35.94,14.36,20.35,0.24,0.57,0.74,-1.09,1.4,0.02,-2.16,3.14,49.57,0.06,-0.04,1.01,-0.55,-0.5,-0.85
1900-01-01 12:34:19.259,36.22,14.64,20.34,0.24,0.57,0.74,-1.42,1.39,0.07,-1.7,2.92,49.6,0.05,-0.03,1.01,-0.84,-0.24,-0.77
1900-01-01 12:34:19.325,36.36,14.71,20.34,0.25,0.57,0.74,-1.44,1.34,-0.02,-1.97,2.99,49.64,0.05,-0.03,1.01,-0.8,-0.32,-0.76
1900-01-01 12:34:19.402,36.07,14.34,20.33,0.24,0.57,0.74,-1.18,1.34,0.05,-2.28,2.99,49.68,0.05,-0.04,1.0,-0.55,-0.18,-0.89
1900-01-01 12:34:19.480,36.32,14.66,20.33,0.25,0.58,0.74,-0.91,1.32,0.04,-1.79,3.02,49.71,0.05,-0.03,1.02,-0.3,-0.32,-0.81
1900-01-01 12:34:19.558,36.14,14.41,20.33,0.24,0.57,0.74,-1.05,1.53,0.13,-2.1,2.92,49.74,0.05,-0.04,1.01,-0.56,-0.24,-0.71
1900-01-01 12:34:19.650,36.52,14.36,20.34,0.24,0.57,0.74,-1.3,1.36,0.14,-1.95,2.7,49.79,0.05,-0.03,1.01,-0.68,-0.09,-0.61
1900-01-01 12:34:19.696,36.44,14.46,20.35,0.24,0.58,0.74,-1.07,1.32,0.04,-1.89,2.92,49.86,0.05,-0.03,1.01,-0.47,-0.27,-0.74
1900-01-01 12:34:19.787,36.27,14.16,20.35,0.24,0.57,0.74,-1.33,1.21,-0.12,-2.13,2.76,49.9,0.05,-0.04,1.01,-0.51,-0.15,-0.82
1900-01-01 12:34:19.867,36.42,14.41,20.32,0.24,0.58,0.74,-1.21,1.02,-0.07,-2.12,3.04,49.94,0.05,-0.04,1.01,-0.24,-0.04,-0.81
1900-01-01 12:34:19.945,35.97,14.31,20.3,0.24,0.57,0.74,-1.17,1.33,-0.09,-2.33,2.94,49.97,0.05,-0.04,1.01,-0.67,-0.27,-0.88
1900-01-01 12:34:20.024,35.99,14.4,20.28,0.24,0.57,0.74,-1.44,1.3,0.11,-2.11,2.83,49.99,0.05,-0.04,1.01,-0.92,0.18,-0.69
1900-01-01 12:34:20.071,36.18,14.56,20.29,0.24,0.57,0.74,-1.45,1.43,-0.1,-2.13,2.88,50.05,0.05,-0.04,1.01,-0.76,-0.11,-0.6
1900-01-01 12:34:20.170,36.68,14.4,20.27,0.24,0.58,0.73,-1.24,1.13,-0.03,-1.72,2.63,50.11,0.05,-0.03,1.01,-0.27,-0.17,-0.94
1900-01-01 12:34:20.281,36.06,14.64,20.25,0.24,0.57,0.74,-0.75,0.9,-0.42,-2.36,3.05,50.13,0.05,-0.04,1.01,0.32,-0.25,-1.27
1900-01-01 12:34:20.355,35.73,14.58,20.18,0.24,0.56,0.74,-1.38,1.32,0.07,-2.21,3.01,50.09,0.05,-0.04,1.01,-0.79,-0.27,-1.09
1900-01-01 12:34:20.410,36.38,14.59,20.18,0.24,0.57,0.74,-1.31,1.38,-0.15,-1.94,2.7,50.09,0.05,-0.03,1.01,-0.73,-0.6,-0.96
1900-01-01 12:34:20.443,36.36,14.49,20.15,0.24,0.57,0.74,-1.3,1.21,-0.08,-1.79,2.85,50.1,0.05,-0.03,1.01,-0.34,-0.38,-0.91
1900-01-01 12:34:20.537,36.11,14.52,20.13,0.24,0.57,0.74,-1.15,1.22,0.06,-2.02,2.93,50.12,0.05,-0.04,1.01,-0.36,-0.31,-0.95
1900-01-01 12:34:20.630,36.1,14.47,20.13,0.24,0.57,0.74,-0.99,1.31,-0.16,-2.12,2.84,50.13,0.05,-0.04,1.01,-0.35,-0.37,-1.02
1900-01-01 12:34:20.676,36.39,14.46,20.1,0.24,0.57,0.74,-1.24,1.13,-0.14,-1.7,2.85,50.13,0.05,-0.03,1.01,-0.36,-0.59,-1.15
1900-01-01 12:34:20.811,36.2,14.38,20.07,0.24,0.57,0.74,-1.18,1.21,-0.16,-2.02,2.87,50.12,0.05,-0.04,1.01,-0.17,-0.33,-1.04
1900-01-01 12:34:20.869,36.23,14.43,20.03,0.24,0.57,0.74,-1.31,1.3,-0.11,-1.96,2.89,50.11,0.05,-0.03,1.01,-0.64,-0.28,-0.99
1900-01-01 12:34:20.910,35.96,14.39,20.01,0.24,0.57,0.74,-1.53,1.44,-0.12,-2.25,2.98,50.12,0.05,-0.04,1.01,-1.01,-0.42,-1.02
1900-01-01 12:34:21.004,36.24,14.46,19.98,0.24,0.57,0.74,-1.66,1.34,-0.11,-1.86,2.9,50.12,0.05,-0.03,1.01,-1.01,-0.21,-0.97
1900-01-01 12:34:21.096,36.05,14.39,19.96,0.24,0.57,0.74,-1.45,1.45,-0.2,-2.11,3.04,50.13,0.05,-0.04,1.01,-0.81,-0.37,-1.02
1900-01-01 12:34:21.144,36.12,14.2,19.92,0.24,0.57,0.74,-1.53,1.27,-0.06,-2.1,2.89,50.13,0.05,-0.04,1.0,-0.77,-0.23,-0.96
1900-01-01 12:34:21.287,35.94,14.28,19.9,0.24,0.57,0.74,-1.33,1.38,-0.09,-2.28,2.87,50.15,0.05,-0.04,1.01,-0.72,-0.37,-1.0
1900-01-01 12:34:21.331,36.22,14.26,19.88,0.24,0.57,0.74,-1.3,1.22,0.05,-2.1,3.01,50.15,0.05,-0.04,1.01,-0.55,-0.36,-0.9
1900-01-01 12:34:21.377,36.06,14.32,19.88,0.24,0.57,0.74,-1.23,1.3,-0.06,-2.28,2.86,50.17,0.05,-0.04,1.01,-0.53,-0.55,-1.0
1900-01-01 12:34:21.470,36.01,14.34,19.86,0.24,0.57,0.75,-1.39,1.16,0.1,-2.21,3.01,50.18,0.05,-0.04,1.01,-0.77,-0.31,-0.9
1900-01-01 12:34:21.588,36.27,14.33,19.86,0.24,0.57,0.74,-1.29,1.17,-0.01,-2.05,2.91,50.2,0.05,-0.04,1.01,-0.52,-0.36,-0.86
1900-01-01 12:34:21.612,36.01,14.22,19.86,0.24,0.57,0.74,-1.28,1.11,-0.07,-2.27,2.89,50.22,0.05,-0.04,1.01,-0.54,-0.44,-1.02
1900-01-01 12:34:21.701,36.0,14.39,19.84,0.24,0.57,0.75,-1.22,1.26,0.05,-2.17,3.0,50.23,0.05,-0.04,1.02,-0.56,-0.42,-0.9
1900-01-01 12:34:21.748,36.16,14.19,19.83,0.24,0.57,0.74,-1.5,1.27,-0.14,-2.17,2.86,50.25,0.05,-0.04,1.0,-0.75,-0.47,-1.02
1900-01-01 12:34:21.843,36.26,14.42,19.81,0.24,0.57,0.74,-1.3,0.98,0.02,-2.02,2.98,50.25,0.05,-0.04,1.01,-0.41,-0.27,-0.85
1900-01-01 12:34:21.934,35.86,14.45,19.8,0.24,0.57,0.74,-0.82,1.15,0.05,-2.25,3.16,50.28,0.06,-0.04,1.01,-0.14,-0.5,-0.9
1900-01-01 12:34:21.980,36.01,14.39,19.8,0.24,0.57,0.74,-0.82,1.3,-0.02,-2.18,3.12,50.3,0.06,-0.04,1.01,-0.47,-0.38,-0.91
1900-01-01 12:34:22.075,36.21,14.48,19.79,0.24,0.57,0.74,-1.05,1.14,0.04,-2.09,3.08,50.32,0.05,-0.04,1.01,-0.6,-0.53,-1.0
1900-01-01 12:34:22.185,36.14,14.48,19.78,0.24,0.57,0.74,-1.27,1.22,0.09,-1.96,3.16,50.32,0.06,-0.03,1.01,-0.76,-0.54,-0.98
1900-01-01 12:34:22.215,35.98,14.3,19.79,0.24,0.57,0.74,-1.31,1.56,0.13,-2.16,2.97,50.33,0.05,-0.04,1.01,-0.73,-0.25,-0.65
1900-01-01 12:34:22.335,36.75,14.52,19.8,0.24,0.58,0.74,-1.4,1.44,0.13,-1.6,2.98,50.39,0.05,-0.03,1.01,-0.64,-0.13,-0.47
1900-01-01 12:34:22.361,36.04,14.33,19.81,0.24,0.57,0.74,-1.24,1.48,0.11,-2.38,3.04,50.48,0.05,-0.04,1.01,-0.92,-0.27,-0.69
1900-01-01 12:34:22.447,36.2,14.43,19.82,0.24,0.57,0.74,-1.82,1.63,0.18,-2.06,3.01,50.53,0.05,-0.04,1.01,-1.26,-0.29,-0.63
1900-01-01 12:34:22.540,36.35,14.21,19.84,0.24,0.57,0.74,-1.67,1.63,0.05,-2.17,2.82,50.59,0.05,-0.04,1.01,-1.05,-0.15,-0.63
1900-01-01 12:34:22.585,35.95,14.32,19.84,0.24,0.57,0.75,-1.82,1.41,0.06,-2.5,3.12,50.66,0.06,-0.04,1.01,-1.18,-0.09,-0.72
1900-01-01 12:34:22.679,35.67,14.74,19.84,0.25,0.57,0.75,0.06,-1.73,0.12,-2.83,3.09,50.71,0.06,-0.05,1.03,2.54,2.64,0.03
1900-01-01 12:34:22.774,35.18,14.57,19.85,0.24,0.55,0.75,-0.64,-2.32,0.09,-3.06,2.69,50.87,0.05,-0.05,1.02,3.9,1.52,-0.17
1900-01-01 12:34:22.821,36.29,15.2,19.86,0.26,0.59,0.75,-3.16,-2.08,0.05,-0.71,1.88,51.0,0.03,-0.01,1.02,0.63,1.57,-0.55
1900-01-01 12:34:22.915,32.41,16.69,19.85,0.3,0.56,0.84,-5.67,-8.32,1.19,-5.2,4.03,51.08,0.08,-0.1,1.15,3.88,-7.36,-1.52
1900-01-01 12:34:23.010,33.86,18.61,20.03,0.33,0.58,0.8,-10.96,-14.32,5.31,-0.56,2.98,51.0,0.06,-0.01,1.15,0.24,-20.93,-7.31
1900-01-01 12:34:23.057,31.04,22.66,20.84,0.4,0.54,0.8,-16.74,-15.95,8.06,-0.43,9.66,50.04,0.18,-0.01,1.08,-2.85,-33.1,-8.11
1900-01-01 12:34:23.147,29.64,25.48,22.07,0.41,0.47,0.72,-16.28,-13.95,7.9,1.13,14.24,48.94,0.24,0.02,0.95,-4.02,-27.31,-5.83
1900-01-01 12:34:23.206,28.73,26.05,23.28,0.4,0.44,0.69,-13.04,-9.98,5.17,0.61,17.5,48.21,0.28,0.01,0.88,-4.94,-18.63,-4.57
1900-01-01 12:34:23.429,27.34,25.38,24.06,0.38,0.41,0.69,-7.7,-6.35,2.52,-0.92,16.64,47.66,0.26,-0.01,0.87,-2.95,-10.21,-3.8
1900-01-01 12:34:23.429,26.13,26.33,24.44,0.4,0.39,0.7,-3.36,-3.43,0.71,-1.77,17.23,47.24,0.28,-0.03,0.89,-0.11,-5.31,-3.11
1900-01-01 12:34:23.429,25.08,27.07,24.54,0.42,0.39,0.72,0.73,-0.24,-1.49,-2.17,19.1,46.92,0.31,-0.04,0.89,1.97,-0.4,-2.75
1900-01-01 12:34:23.523,26.83,25.61,24.31,0.39,0.41,0.71,4.21,1.84,-3.49,-1.76,17.06,46.65,0.28,-0.03,0.92,4.31,3.0,-2.46
1900-01-01 12:34:23.616,28.92,23.13,23.77,0.33,0.41,0.66,10.55,2.27,-8.24,-3.16,13.85,46.44,0.22,-0.05,0.87,13.6,0.48,-4.08
1900-01-01 12:34:23.663,29.41,26.44,22.5,0.4,0.44,0.68,14.15,6.94,-15.97,2.06,20.1,45.97,0.3,0.03,0.81,13.89,7.91,-8.37
1900-01-01 12:34:23.756,30.22,26.65,20.05,0.48,0.54,0.79,10.24,9.24,-19.38,4.07,20.35,44.85,0.38,0.08,1.01,5.79,13.86,-9.63
1900-01-01 12:34:23.885,32.14,25.82,17.08,0.49,0.6,0.82,2.3,6.32,-11.86,6.6,17.89,43.54,0.37,0.14,1.15,-2.95,11.11,-8.46
1900-01-01 12:34:23.885,35.84,23.55,15.26,0.42,0.61,0.74,-1.49,0.62,-1.68,7.93,14.33,42.41,0.29,0.16,1.12,-1.38,1.63,-3.51
1900-01-01 12:34:23.993,36.87,21.1,14.99,0.34,0.56,0.67,-0.35,1.22,2.56,7.82,13.56,42.03,0.23,0.13,0.94,3.33,-3.05,0.77
1900-01-01 12:34:24.036,36.15,20.03,15.37,0.31,0.54,0.67,2.02,4.79,0.08,5.43,13.75,42.3,0.22,0.09,0.9,1.29,2.63,1.69
1900-01-01 12:34:24.139,35.79,20.36,15.37,0.33,0.56,0.7,2.02,7.39,-3.93,4.89,13.59,42.72,0.23,0.08,0.95,0.38,2.62,1.37
1900-01-01 12:34:24.191,36.82,20.43,14.77,0.35,0.6,0.72,1.24,6.7,-4.85,6.61,13.83,43.09,0.25,0.12,1.02,3.31,0.18,1.73
1900-01-01 12:34:24.363,36.34,20.62,14.03,0.37,0.62,0.75,-0.79,3.84,-0.97,7.53,15.45,43.5,0.3,0.15,1.07,4.66,-4.96,4.56
1900-01-01 12:34:24.392,37.27,18.31,13.87,0.31,0.61,0.73,-2.64,1.05,3.38,6.97,14.98,44.36,0.28,0.13,1.03,1.95,-6.5,4.03
1900-01-01 12:34:24.441,37.57,18.04,14.38,0.3,0.58,0.7,-1.79,0.75,3.88,7.7,15.4,45.13,0.26,0.13,0.94,1.73,-2.18,3.11
1900-01-01 12:34:24.519,37.32,17.77,14.96,0.29,0.58,0.7,0.63,2.27,2.47,6.97,15.34,45.76,0.26,0.12,0.94,3.54,-0.23,3.44
1900-01-01 12:34:24.605,36.22,18.02,15.32,0.3,0.56,0.71,0.43,2.33,0.53,5.73,15.59,46.44,0.27,0.1,0.96,0.47,0.94,1.17
1900-01-01 12:34:24.649,35.46,19.22,15.39,0.33,0.58,0.74,-0.98,1.47,-0.95,6.3,16.07,46.77,0.29,0.12,1.0,-1.05,-0.93,-1.75
1900-01-01 12:34:24.740,33.31,23.12,15.24,0.43,0.6,0.81,-6.09,-1.05,2.92,6.09,17.81,46.66,0.37,0.13,1.16,0.64,-19.69,-0.32
1900-01-01 12:34:24.836,32.14,26.86,15.68,0.51,0.6,0.81,-11.71,-9.31,12.08,10.24,24.27,46.77,0.51,0.22,1.1,5.34,-43.76,-7.14
1900-01-01 12:34:24.883,32.06,25.45,17.53,0.42,0.52,0.72,-15.37,-14.11,18.07,9.58,30.24,45.83,0.54,0.18,0.91,3.63,-49.89,-11.92
1900-01-01 12:34:24.975,32.33,22.69,20.31,0.34,0.46,0.65,-11.4,-18.98,12.86,11.2,33.49,44.15,0.47,0.16,0.69,-6.82,-22.82,-19.19
1900-01-01 12:34:25.069,32.86,22.71,22.29,0.31,0.44,0.6,-5.2,-13.55,4.61,10.57,30.1,41.34,0.41,0.15,0.69,0.79,-16.05,-14.86
1900-01-01 12:34:25.115,31.08,25.65,22.99,0.34,0.4,0.57,4.76,-3.45,-6.63,9.84,33.33,39.21,0.42,0.13,0.62,0.07,1.21,-14.38
1900-01-01 12:34:25.208,33.32,27.29,21.97,0.4,0.48,0.61,7.21,10.77,-14.4,16.5,30.7,37.18,0.43,0.24,0.68,-4.64,15.61,-8.22
1900-01-01 12:34:25.372,34.52,26.43,19.75,0.43,0.55,0.67,9.73,20.12,-17.82,16.53,28.15,36.07,0.45,0.27,0.8,-4.81,23.99,-2.34
1900-01-01 12:34:25.372,37.18,25.18,17.01,0.45,0.64,0.71,10.22,23.6,-15.03,17.5,25.56,35.87,0.47,0.33,0.93,3.05,25.46,4.61
1900-01-01 12:34:25.442,35.49,22.78,14.7,0.42,0.63,0.78,6.21,17.17,-7.79,12.27,26.81,36.74,0.53,0.25,1.02,0.19,19.31,5.97
1900-01-01 12:34:25.490,36.82,19.22,13.5,0.35,0.64,0.78,1.8,8.0,-2.09,11.35,23.01,37.81,0.46,0.23,1.07,-3.34,7.44,1.68
1900-01-01 12:34:25.597,38.21,17.97,13.18,0.31,0.63,0.73,-0.27,-0.73,0.4,11.64,24.43,38.22,0.45,0.22,0.96,2.34,0.45,-1.9
1900-01-01 12:34:25.646,40.4,16.33,13.23,0.26,0.61,0.67,-0.64,0.5,0.95,13.27,21.22,38.09,0.36,0.23,0.89,0.1,0.48,-0.95
1900-01-01 12:34:25.734,39.57,17.5,13.37,0.29,0.61,0.68,-0.2,1.27,-0.3,13.08,22.02,38.1,0.37,0.23,0.9,-0.38,0.5,-1.51
1900-01-01 12:34:25.817,39.01,18.32,13.31,0.31,0.62,0.7,0.02,1.29,0.02,13.08,22.64,38.03,0.4,0.23,0.92,0.09,0.61,-1.21
1900-01-01 12:34:25.945,38.79,17.94,13.31,0.3,0.61,0.7,-0.66,0.63,-0.09,12.13,22.81,38.0,0.4,0.22,0.92,-0.44,0.04,-1.3
1900-01-01 12:34:25.945,39.9,18.11,13.28,0.3,0.62,0.68,-1.43,0.74,-0.18,13.52,22.11,37.96,0.38,0.24,0.91,-0.69,-0.4,-1.31
1900-01-01 12:34:26.053,39.18,18.33,13.25,0.31,0.63,0.7,-1.52,0.98,-0.28,12.66,22.4,37.92,0.4,0.23,0.93,-1.06,-1.27,-2.06
1900-01-01 12:34:26.110,37.35,23.33,13.2,0.43,0.66,0.75,-2.57,-0.51,2.48,13.49,24.07,37.77,0.48,0.28,1.05,3.74,-17.17,-13.33
1900-01-01 12:34:26.193,37.25,28.17,13.57,0.58,0.74,0.79,-10.58,-10.52,18.2,22.59,27.07,35.88,0.61,0.52,1.08,11.76,-42.57,-11.3
1900-01-01 12:34:26.387,36.4,29.87,16.38,0.52,0.62,0.66,-18.92,-11.37,30.34,26.24,33.94,34.29,0.61,0.48,0.76,11.24,-50.53,4.27
1900-01-01 12:34:26.387,31.07,29.08,21.05,0.41,0.43,0.59,-21.4,-5.21,24.17,20.3,49.29,35.1,0.61,0.28,0.45,-11.08,-22.53,7.1
1900-01-01 12:34:26.427,26.47,22.58,24.77,0.3,0.35,0.63,-11.79,7.52,4.5,8.25,44.92,36.36,0.52,0.11,0.51,-31.15,6.83,-3.85
1900-01-01 12:34:26.523,28.98,18.17,25.45,0.28,0.43,0.72,-7.45,9.79,-7.96,5.51,27.76,35.93,0.44,0.09,0.84,-24.21,6.76,-9.06
1900-01-01 12:34:26.569,28.06,20.6,24.22,0.36,0.48,0.82,-2.18,4.99,-8.92,8.45,32.15,34.7,0.59,0.16,0.93,-13.46,-6.15,-9.32
1900-01-01 12:34:26.662,25.19,23.82,22.85,0.4,0.42,0.8,-1.62,2.81,-6.31,9.5,38.45,33.43,0.64,0.17,0.79,0.73,-9.94,-6.3
1900-01-01 12:34:26.763,25.55,19.95,21.88,0.33,0.42,0.82,-4.6,-1.66,-12.54,5.79,42.65,32.63,0.71,0.11,0.76,2.69,-16.21,-11.4
1900-01-01 12:34:26.802,31.21,19.88,19.94,0.31,0.47,0.71,1.27,-4.33,-14.08,14.41,38.8,31.03,0.58,0.23,0.68,6.48,-18.04,-14.71
1900-01-01 12:34:26.894,28.73,21.12,17.77,0.35,0.47,0.78,-1.02,3.1,-8.84,12.4,41.66,28.93,0.66,0.21,0.71,9.53,-19.59,1.72
1900-01-01 12:34:26.945,30.01,22.87,16.41,0.4,0.52,0.8,-1.85,0.94,-5.89,15.94,46.87,29.35,0.79,0.3,0.68,5.66,-9.83,5.32
1900-01-01 12:34:27.062,31.03,23.68,15.5,0.4,0.51,0.75,-0.65,1.41,-1.52,16.8,47.41,30.32,0.77,0.3,0.64,4.96,-6.06,6.82
1900-01-01 12:34:27.107,30.18,21.5,15.26,0.35,0.48,0.75,3.62,1.89,2.42,14.39,47.6,31.52,0.76,0.26,0.65,4.19,-3.91,2.37
1900-01-01 12:34:27.180,28.9,22.43,15.62,0.37,0.47,0.77,4.93,-0.29,2.85,13.81,48.57,32.04,0.77,0.25,0.64,5.25,-5.34,-0.62
1900-01-01 12:34:27.396,31.14,25.16,16.05,0.42,0.51,0.73,1.53,1.67,5.96,18.49,50.08,32.1,0.79,0.33,0.57,6.09,-6.85,-0.65
1900-01-01 12:34:27.424,29.31,23.59,16.95,0.37,0.46,0.72,-0.13,3.16,9.47,14.88,51.89,32.16,0.79,0.26,0.56,8.05,-7.41,2.02
1900-01-01 12:34:27.454,30.86,23.75,18.38,0.39,0.5,0.73,-3.3,0.18,9.4,14.66,52.44,32.63,0.8,0.25,0.56,9.61,-8.65,4.57
1900-01-01 12:34:27.486,32.99,23.69,19.8,0.43,0.58,0.78,-2.23,-0.26,1.09,17.53,52.46,33.48,0.85,0.32,0.57,6.52,-12.69,0.05
1900-01-01 12:34:27.553,30.06,23.17,19.96,0.41,0.52,0.8,7.53,1.62,-6.55,17.38,53.4,33.65,0.88,0.33,0.56,6.89,3.38,-8.23
1900-01-01 12:34:27.647,31.56,23.64,18.96,0.37,0.49,0.7,1.27,3.13,-7.0,18.74,53.15,32.55,0.78,0.31,0.49,0.02,-0.21,-2.98
1900-01-01 12:34:27.739,32.42,23.12,17.88,0.38,0.52,0.72,2.53,-1.66,-7.28,16.33,53.76,32.26,0.85,0.3,0.55,-1.21,-1.26,-2.7
1900-01-01 12:34:27.787,35.2,26.49,16.75,0.44,0.56,0.67,6.92,-3.34,2.41,25.84,50.39,32.0,0.78,0.44,0.47,2.78,2.26,-4.07
1900-01-01 12:34:27.881,36.0,23.53,17.11,0.4,0.58,0.7,7.33,-2.6,-1.75,19.37,53.69,31.54,0.81,0.33,0.49,4.47,2.17,-5.74
1900-01-01 12:34:27.930,31.17,27.91,16.84,0.42,0.46,0.64,-1.96,-4.53,0.78,16.82,55.39,30.83,0.78,0.27,0.46,-1.68,-3.76,-0.76
1900-01-01 12:34:28.021,32.17,29.0,16.95,0.47,0.51,0.67,-5.2,-4.78,4.56,20.55,51.92,30.87,0.83,0.37,0.53,-4.82,-3.21,2.5
1900-01-01 12:34:28.118,35.85,25.87,17.64,0.43,0.58,0.68,-3.82,-3.02,1.85,20.57,51.33,31.41,0.82,0.37,0.55,1.22,-2.27,-2.47
1900-01-01 12:34:28.163,33.47,27.03,17.91,0.45,0.55,0.69,-3.15,-2.68,-0.95,20.72,52.76,31.19,0.81,0.36,0.5,0.44,-3.95,-4.82
1900-01-01 12:34:28.267,32.64,27.66,17.76,0.46,0.53,0.69,-7.78,-2.37,-2.01,19.57,53.99,30.61,0.84,0.35,0.5,-0.81,-4.08,-0.95
1900-01-01 12:34:28.371,32.3,27.5,17.44,0.45,0.52,0.69,-7.02,-2.69,-2.1,18.99,54.07,30.62,0.84,0.34,0.51,-3.73,-2.56,0.7
1900-01-01 12:34:28.434,32.46,27.83,17.11,0.45,0.52,0.68,-4.05,-4.45,-5.46,18.05,54.81,30.89,0.84,0.32,0.5,-4.41,-2.26,-1.79
1900-01-01 12:34:28.477,31.55,27.58,16.27,0.44,0.5,0.68,-2.89,-3.15,-6.17,17.86,55.27,30.77,0.83,0.31,0.48,-1.93,-0.41,-5.63
1900-01-01 12:34:28.572,32.57,30.07,15.31,0.51,0.54,0.68,-2.19,0.98,-4.79,23.44,53.26,30.07,0.83,0.41,0.46,0.08,-0.13,-5.25
1900-01-01 12:34:28.641,31.66,27.74,14.57,0.46,0.52,0.7,-2.09,1.18,-1.54,20.9,53.76,29.42,0.84,0.37,0.49,-1.12,1.25,-2.81
1900-01-01 12:34:28.716,32.94,27.1,14.32,0.44,0.53,0.68,-1.56,0.83,-2.4,20.97,53.06,29.15,0.81,0.36,0.49,-1.69,0.83,-2.8
1900-01-01 12:34:28.805,32.4,29.05,13.95,0.47,0.52,0.67,-1.84,0.13,-2.51,22.01,52.54,28.88,0.8,0.38,0.48,-2.71,0.07,-2.56
1900-01-01 12:34:28.877,33.02,27.99,13.56,0.46,0.54,0.68,-1.08,0.44,-1.6,21.65,52.31,28.65,0.81,0.38,0.5,-0.85,-0.26,-2.5
1900-01-01 12:34:28.963,33.6,27.31,13.3,0.45,0.55,0.69,-1.39,0.31,-1.5,22.18,51.95,28.42,0.82,0.39,0.5,-1.18,0.23,-1.16
1900-01-01 12:34:29.040,33.82,27.47,13.06,0.46,0.55,0.68,-1.4,1.5,-0.03,22.83,51.42,28.4,0.81,0.4,0.5,-1.79,0.15,-0.12
1900-01-01 12:34:29.087,33.66,27.34,13.05,0.45,0.54,0.67,-1.05,1.38,0.45,22.12,51.68,28.54,0.8,0.38,0.5,-1.27,-0.18,-0.61
1900-01-01 12:34:29.179,33.17,27.05,13.11,0.44,0.53,0.69,-0.43,1.76,-0.35,20.56,52.64,28.61,0.81,0.36,0.51,-0.22,0.09,-1.06
1900-01-01 12:34:29.230,33.41,28.04,13.05,0.46,0.54,0.68,-0.96,0.97,0.37,21.59,52.21,28.61,0.82,0.38,0.51,-0.88,-0.48,-0.82
1900-01-01 12:34:29.395,32.76,27.63,13.1,0.45,0.52,0.68,-1.59,0.95,0.13,20.6,52.87,28.64,0.81,0.36,0.5,-1.4,-1.34,-0.51
1900-01-01 12:34:29.395,33.77,27.77,13.11,0.46,0.55,0.68,-1.5,1.35,0.17,21.9,51.91,28.72,0.81,0.38,0.5,-0.5,-0.49,-0.63
1900-01-01 12:34:29.462,33.9,27.48,13.13,0.45,0.55,0.68,-1.29,1.25,0.21,21.77,51.93,28.78,0.81,0.38,0.51,-0.34,-0.94,-0.89
1900-01-01 12:34:29.558,33.39,27.67,13.15,0.46,0.54,0.68,-1.06,0.93,0.34,21.25,52.27,28.8,0.82,0.37,0.51,-0.58,-0.03,-0.85
1900-01-01 12:34:29.621,33.91,27.53,13.19,0.45,0.54,0.67,-0.59,0.84,0.14,20.93,52.56,28.83,0.8,0.36,0.5,-0.08,0.26,-1.33
1900-01-01 12:34:29.712,33.18,27.58,13.2,0.45,0.53,0.68,-0.65,1.02,-0.08,20.55,52.91,28.79,0.82,0.36,0.5,0.16,-0.15,-1.69
1900-01-01 12:34:29.792,33.41,27.77,13.18,0.46,0.54,0.68,-1.44,1.13,0.31,21.63,52.37,28.69,0.82,0.38,0.5,-0.73,-0.64,-0.68
1900-01-01 12:34:29.913,33.46,28.08,13.22,0.46,0.54,0.67,-1.76,1.21,0.34,21.39,52.46,28.74,0.81,0.37,0.5,-1.0,-0.37,-0.15
1900-01-01 12:34:29.945,34.24,27.15,13.27,0.44,0.54,0.66,-1.09,1.24,0.31,21.42,51.8,28.88,0.79,0.37,0.5,-0.35,-0.11,-0.89
1900-01-01 12:34:30.025,33.81,28.24,13.31,0.47,0.55,0.67,-1.24,0.75,0.12,22.22,51.95,28.9,0.81,0.39,0.5,-0.82,-0.69,-1.08
1900-01-01 12:34:30.085,33.68,27.68,13.32,0.46,0.54,0.68,-1.58,1.12,0.04,21.62,52.11,28.9,0.81,0.38,0.5,-0.82,-0.65,-0.52
1900-01-01 12:34:30.190,33.78,27.96,13.31,0.46,0.54,0.67,-0.37,1.15,0.08,21.43,52.28,28.98,0.81,0.38,0.5,0.45,0.59,-1.52
1900-01-01 12:34:30.261,33.72,27.56,13.32,0.45,0.54,0.67,0.28,0.99,-0.21,20.81,52.85,28.9,0.81,0.36,0.5,1.14,0.25,-2.03
1900-01-01 12:34:30.394,33.53,28.46,13.28,0.47,0.55,0.68,-1.36,0.81,-0.08,22.12,52.38,28.75,0.81,0.39,0.49,0.11,-0.94,-1.72
1900-01-01 12:34:30.411,34.28,28.17,13.26,0.46,0.55,0.66,-2.44,0.34,0.89,23.07,51.34,28.65,0.8,0.4,0.5,-0.88,-1.17,-0.52
1900-01-01 12:34:30.468,34.48,27.6,13.38,0.44,0.54,0.65,-2.68,-0.21,-0.85,21.1,51.62,28.73,0.78,0.36,0.51,-3.79,0.4,-0.05
1900-01-01 12:34:30.539,32.66,28.6,13.24,0.47,0.53,0.68,-3.21,1.02,-1.94,20.89,53.79,28.88,0.83,0.37,0.48,1.83,-1.82,-0.75
1900-01-01 12:34:30.632,33.4,28.0,12.94,0.48,0.56,0.7,-0.81,0.45,0.39,22.34,52.6,28.92,0.85,0.4,0.5,-0.38,-0.47,0.2
1900-01-01 12:34:30.680,35.03,28.1,12.99,0.46,0.56,0.65,-4.85,1.09,1.02,22.69,51.31,29.11,0.79,0.39,0.5,0.01,-0.53,0.8
1900-01-01 12:34:30.787,30.76,30.04,13.14,0.47,0.48,0.65,-6.45,1.67,1.96,20.04,54.41,29.39,0.82,0.34,0.47,0.38,5.38,1.09
1900-01-01 12:34:30.846,29.69,29.35,13.43,0.49,0.5,0.72,-6.18,0.95,0.29,19.39,54.33,29.71,0.86,0.35,0.51,-2.63,-4.38,0.36
1900-01-01 12:34:30.926,30.03,28.98,13.46,0.49,0.51,0.72,-6.18,-0.52,2.36,20.29,53.92,29.93,0.85,0.37,0.5,-2.67,-4.28,0.5
1900-01-01 12:34:31.009,30.85,28.35,13.82,0.46,0.5,0.7,-9.31,-1.24,2.95,20.79,53.45,30.16,0.83,0.37,0.49,-6.56,-4.07,1.37
1900-01-01 12:34:31.152,28.07,30.43,14.26,0.48,0.45,0.69,-6.4,-1.05,1.34,18.97,54.81,30.53,0.82,0.33,0.48,-6.56,-2.06,-0.56
1900-01-01 12:34:31.152,27.76,30.03,14.46,0.49,0.46,0.71,-5.08,-0.21,0.69,18.25,56.04,30.6,0.85,0.32,0.47,-3.64,-3.02,0.59
1900-01-01 12:34:31.234,26.88,30.53,14.55,0.5,0.45,0.73,-3.59,-1.08,0.97,17.91,56.5,30.85,0.87,0.32,0.48,-3.4,-2.97,-0.63
1900-01-01 12:34:31.385,26.54,29.81,14.69,0.48,0.43,0.72,-4.92,-2.39,-0.74,16.9,55.98,30.91,0.85,0.3,0.49,-4.6,-4.37,-1.47
1900-01-01 12:34:31.385,27.4,31.8,14.57,0.51,0.44,0.69,-2.84,-2.49,-1.67,18.62,55.99,30.85,0.84,0.32,0.46,-1.89,-3.95,-2.46
1900-01-01 12:34:31.467,26.66,31.42,14.31,0.51,0.44,0.71,-1.6,0.93,-0.01,18.75,56.48,30.63,0.85,0.33,0.46,-1.43,-0.72,-0.45
1900-01-01 12:34:31.570,26.61,31.55,14.3,0.51,0.44,0.71,0.24,1.38,0.82,17.79,56.48,30.72,0.85,0.31,0.47,-0.41,1.72,-1.2
1900-01-01 12:34:31.607,26.96,31.53,14.41,0.51,0.44,0.7,0.08,1.2,0.62,19.35,55.51,30.69,0.84,0.34,0.47,-2.15,1.54,-1.84
1900-01-01 12:34:31.701,27.57,31.85,14.5,0.52,0.46,0.71,-1.9,0.33,0.25,18.53,55.65,30.57,0.86,0.33,0.48,-1.26,-1.5,-0.67
1900-01-01 12:34:31.838,27.48,31.54,14.53,0.51,0.45,0.69,0.5,0.5,0.62,18.47,55.48,30.63,0.82,0.31,0.47,-1.95,0.4,-1.42
1900-01-01 12:34:31.838,27.7,31.31,14.61,0.51,0.46,0.7,-0.4,0.85,0.37,17.73,55.52,30.57,0.85,0.31,0.49,-0.83,0.25,-0.27
1900-01-01 12:34:31.934,27.26,32.12,14.66,0.51,0.44,0.69,-0.3,2.25,-0.41,17.75,55.62,30.69,0.83,0.31,0.48,0.16,0.44,-0.69
1900-01-01 12:34:31.982,27.93,32.3,14.59,0.52,0.46,0.69,0.53,2.39,0.57,19.56,54.49,30.74,0.83,0.34,0.49,1.98,0.71,-0.9
1900-01-01 12:34:32.069,27.45,31.56,14.67,0.51,0.45,0.7,0.11,2.37,1.04,17.66,55.95,30.76,0.85,0.31,0.48,0.88,0.37,0.15
1900-01-01 12:34:32.168,27.39,31.72,14.82,0.51,0.45,0.7,0.32,2.04,0.5,18.48,55.39,30.94,0.84,0.32,0.48,1.21,0.47,-1.16
1900-01-01 12:34:32.217,27.3,31.67,14.88,0.52,0.45,0.71,-0.25,1.21,0.08,17.24,56.18,30.92,0.86,0.31,0.49,-0.33,0.4,-0.79
1900-01-01 12:34:32.405,27.42,31.28,14.89,0.51,0.45,0.7,-1.5,1.04,-1.18,17.28,55.79,30.96,0.84,0.3,0.49,1.02,-1.17,-1.19
1900-01-01 12:34:32.445,27.72,30.49,14.7,0.5,0.46,0.72,-1.64,-0.05,-1.67,18.04,55.26,30.94,0.85,0.32,0.5,2.11,-2.79,-4.47
1900-01-01 12:34:32.486,28.68,31.78,14.43,0.52,0.47,0.69,-1.05,0.82,0.02,20.64,54.23,30.41,0.83,0.36,0.48,-0.85,0.47,-0.84
1900-01-01 12:34:32.544,28.14,31.47,14.43,0.51,0.46,0.69,-1.16,-0.29,-0.44,18.45,55.1,30.44,0.85,0.33,0.49,-2.24,1.02,-1.15
1900-01-01 12:34:32.594,28.25,31.93,14.35,0.52,0.46,0.69,-1.94,0.51,-0.63,18.91,55.28,30.42,0.84,0.33,0.48,-1.59,0.52,-1.28
1900-01-01 12:34:32.687,28.88,31.52,14.25,0.51,0.47,0.69,-1.06,1.24,0.3,20.15,53.73,30.39,0.82,0.35,0.49,-0.24,0.27,-0.84
1900-01-01 12:34:32.812,28.35,31.89,14.28,0.52,0.47,0.69,-0.69,1.38,-0.22,19.16,54.77,30.42,0.84,0.34,0.49,-0.68,0.03,-1.04
1900-01-01 12:34:32.842,28.78,32.09,14.24,0.53,0.48,0.69,-0.39,0.63,0.05,19.79,54.57,30.42,0.85,0.35,0.49,-1.77,0.56,-0.85
1900-01-01 12:34:32.920,28.01,31.85,14.24,0.51,0.45,0.68,-1.59,1.51,0.3,18.72,54.5,30.44,0.82,0.32,0.49,-1.39,-0.34,-0.56
1900-01-01 12:34:32.977,28.38,32.02,14.28,0.52,0.47,0.69,-1.37,1.4,0.43,19.24,54.13,30.52,0.84,0.34,0.5,-1.0,0.02,-0.59
1900-01-01 12:34:33.067,29.01,31.82,14.34,0.51,0.47,0.68,-1.21,1.78,0.24,19.6,54.02,30.59,0.82,0.34,0.49,-0.37,-0.6,-0.5
1900-01-01 12:34:33.205,28.92,32.01,14.36,0.52,0.47,0.68,-1.01,2.31,0.74,19.63,54.24,30.67,0.83,0.34,0.49,0.45,-0.13,0.05
1900-01-01 12:34:33.205,28.29,31.76,14.47,0.52,0.47,0.69,-0.66,1.44,1.01,18.67,54.56,30.83,0.84,0.33,0.5,0.3,0.11,-0.43
1900-01-01 12:34:33.294,28.49,31.63,14.61,0.52,0.47,0.69,-0.8,1.75,0.34,18.74,54.64,30.93,0.83,0.33,0.49,-0.02,-0.37,-0.34
1900-01-01 12:34:33.437,28.46,32.05,14.66,0.52,0.47,0.69,-0.97,1.08,-0.06,19.16,54.4,31.03,0.83,0.34,0.49,-0.44,-0.24,-0.82
1900-01-01 12:34:33.437,29.0,31.71,14.64,0.5,0.47,0.67,-1.2,1.34,-0.86,18.76,54.37,31.06,0.82,0.32,0.49,0.92,-0.78,-1.89
1900-01-01 12:34:33.530,29.58,31.71,14.5,0.52,0.49,0.68,0.97,1.89,-2.39,20.37,54.31,30.93,0.83,0.35,0.48,3.24,-1.21,-2.89
1900-01-01 12:34:33.667,29.18,30.85,14.13,0.5,0.47,0.68,2.37,2.38,-2.69,18.6,54.75,30.65,0.83,0.32,0.49,4.47,0.16,-3.52
1900-01-01 12:34:33.667,28.35,30.79,13.71,0.5,0.46,0.7,6.37,1.92,-1.31,14.41,56.78,30.27,0.86,0.26,0.5,7.4,-1.05,-7.3
1900-01-01 12:34:33.762,32.4,32.28,13.5,0.53,0.53,0.65,2.5,0.52,-1.56,25.75,51.54,29.32,0.8,0.44,0.45,6.12,-2.15,-6.75
1900-01-01 12:34:33.809,33.25,30.58,13.25,0.51,0.55,0.66,3.07,0.27,-0.34,26.02,50.97,28.45,0.81,0.45,0.47,4.18,0.42,-7.05
1900-01-01 12:34:33.906,32.95,30.62,13.19,0.5,0.53,0.65,-0.43,1.63,-0.27,25.04,52.18,27.53,0.81,0.43,0.45,-1.47,-1.08,-1.6
1900-01-01 12:34:33.997,31.92,30.99,13.14,0.5,0.52,0.66,-0.46,1.37,-0.24,23.45,53.48,27.45,0.82,0.41,0.45,-0.67,-0.89,-1.46
1900-01-01 12:34:34.043,32.78,30.77,13.1,0.5,0.53,0.65,-1.24,0.94,-1.02,24.9,51.9,27.38,0.8,0.43,0.46,-0.56,-1.04,-1.44
1900-01-01 12:34:34.136,32.71,30.92,12.93,0.5,0.52,0.64,1.02,1.16,-1.36,24.0,52.51,27.32,0.8,0.41,0.45,2.53,-1.54,-4.36
1900-01-01 12:34:34.191,34.19,29.96,12.72,0.48,0.54,0.63,4.89,3.02,-2.15,26.1,51.78,26.81,0.78,0.44,0.43,5.87,-0.76,-8.05
1900-01-01 12:34:34.284,35.18,30.06,12.38,0.5,0.58,0.65,3.18,1.55,-0.91,29.12,49.74,25.74,0.8,0.51,0.44,4.15,1.48,-6.92
1900-01-01 12:34:34.464,34.74,30.23,12.23,0.5,0.57,0.65,-2.72,1.32,0.25,29.05,50.27,24.85,0.8,0.5,0.43,-1.85,-1.81,0.24
1900-01-01 12:34:34.464,32.31,30.88,12.26,0.49,0.51,0.65,-7.21,2.07,1.07,24.6,54.11,25.04,0.82,0.42,0.42,-6.47,-8.49,7.8
1900-01-01 12:34:34.532,33.24,30.25,12.42,0.49,0.53,0.65,-10.71,1.87,-1.85,26.13,52.67,26.39,0.8,0.44,0.42,-6.27,-12.66,8.36
1900-01-01 12:34:34.605,31.8,29.01,12.13,0.47,0.51,0.67,8.58,2.15,-3.73,18.0,59.84,27.83,0.88,0.32,0.4,11.87,-5.37,-13.34
1900-01-01 12:34:34.651,38.06,28.22,11.55,0.46,0.6,0.62,26.85,0.7,-2.1,34.72,47.77,25.95,0.74,0.57,0.36,28.79,10.16,-37.49
1900-01-01 12:34:34.744,37.06,30.03,11.22,0.51,0.61,0.63,1.37,2.34,-0.33,34.74,48.69,20.35,0.8,0.61,0.35,3.61,-1.96,-3.6
1900-01-01 12:34:34.838,38.85,28.61,11.16,0.47,0.62,0.6,-1.0,1.35,0.68,35.4,47.5,19.96,0.75,0.59,0.35,0.69,0.21,-1.74
1900-01-01 12:34:34.903,38.82,29.18,11.25,0.48,0.62,0.6,-1.17,1.3,0.72,34.25,48.59,19.86,0.76,0.57,0.35,-1.11,1.37,-0.4
1900-01-01 12:34:34.956,38.16,29.55,11.35,0.49,0.61,0.6,-0.75,1.4,1.38,34.07,48.48,19.95,0.77,0.57,0.36,-1.26,1.11,0.32
1900-01-01 12:34:35.112,38.08,29.25,11.56,0.48,0.6,0.6,-1.05,1.42,0.76,33.22,49.05,20.16,0.76,0.55,0.36,-0.84,0.99,0.24
1900-01-01 12:34:35.112,38.51,29.46,11.66,0.48,0.61,0.6,-1.62,1.21,0.4,34.34,48.04,20.36,0.76,0.57,0.36,-1.11,0.21,0.26
1900-01-01 12:34:35.211,38.08,29.19,11.72,0.48,0.61,0.61,-6.05,0.37,-0.07,33.97,48.44,20.55,0.76,0.57,0.36,-6.18,-1.77,6.69
1900-01-01 12:34:35.259,39.03,29.3,11.7,0.47,0.61,0.58,-2.74,3.36,0.55,32.59,49.2,21.74,0.75,0.53,0.37,-2.79,2.64,6.72
1900-01-01 12:34:35.422,37.44,29.38,11.77,0.48,0.59,0.61,-2.79,6.23,0.4,31.01,50.24,22.92,0.78,0.52,0.39,-3.14,1.77,4.85
1900-01-01 12:34:35.450,36.82,30.17,11.82,0.5,0.59,0.62,-2.69,5.1,0.85,30.0,51.8,23.81,0.8,0.51,0.37,-3.25,1.66,3.73
1900-01-01 12:34:35.515,37.41,28.45,11.94,0.46,0.59,0.62,-1.31,5.45,0.92,29.81,50.39,24.54,0.78,0.5,0.4,-2.59,2.69,1.71
1900-01-01 12:34:35.610,36.61,28.49,12.08,0.45,0.57,0.61,-4.79,6.93,0.87,28.55,51.42,24.96,0.78,0.47,0.4,-3.07,1.17,6.66
1900-01-01 12:34:35.678,33.05,27.68,12.2,0.45,0.53,0.67,-1.25,5.14,-0.34,21.85,56.36,26.13,0.86,0.38,0.42,-3.93,1.63,2.11
1900-01-01 12:34:35.723,35.2,28.01,12.14,0.47,0.57,0.66,-2.56,3.69,-0.18,26.14,53.66,26.61,0.84,0.46,0.41,-3.53,-0.89,1.81
1900-01-01 12:34:35.817,35.23,25.93,12.1,0.43,0.56,0.67,-1.08,4.08,0.49,24.3,53.41,27.04,0.82,0.42,0.44,-1.69,1.42,-0.23
1900-01-01 12:34:35.865,35.31,25.98,12.17,0.42,0.56,0.67,-1.47,1.93,-0.32,24.87,53.32,27.17,0.81,0.42,0.43,-0.34,0.37,-0.22
1900-01-01 12:34:35.963,37.14,26.93,12.11,0.45,0.6,0.65,-0.68,2.21,-0.22,27.12,51.58,27.29,0.8,0.47,0.43,-0.15,1.73,-1.12
1900-01-01 12:34:36.054,35.82,26.13,12.07,0.43,0.57,0.66,0.19,2.59,-0.22,25.03,53.33,27.28,0.82,0.43,0.43,-0.09,2.7,-1.75
1900-01-01 12:34:36.101,36.41,26.43,12.03,0.44,0.58,0.66,-0.37,1.17,-0.34,25.9,51.85,27.17,0.81,0.45,0.45,0.2,0.8,-1.31
1900-01-01 12:34:36.197,36.32,25.89,11.97,0.43,0.58,0.66,-0.94,1.48,0.03,25.63,52.19,27.13,0.81,0.45,0.45,-0.6,0.63,-0.6
1900-01-01 12:34:36.303,36.58,26.07,11.97,0.43,0.58,0.66,-0.06,1.26,0.1,26.18,51.9,27.2,0.8,0.45,0.44,0.83,0.87,-2.18
1900-01-01 12:34:36.430,36.74,26.2,11.97,0.43,0.58,0.65,-0.95,1.02,0.02,26.3,51.6,27.02,0.8,0.45,0.45,-0.31,-0.11,-1.04
1900-01-01 12:34:36.445,36.86,26.18,11.97,0.43,0.58,0.65,-1.96,1.0,-0.15,26.62,51.41,27.02,0.8,0.46,0.44,-0.97,-0.55,-0.64
1900-01-01 12:34:36.507,35.88,26.56,11.93,0.43,0.57,0.66,-1.52,1.11,0.02,25.5,52.45,27.08,0.81,0.44,0.44,-0.92,-0.4,-0.84
1900-01-01 12:34:36.616,35.77,26.49,11.93,0.44,0.57,0.66,-0.22,1.23,0.14,25.96,52.06,27.11,0.81,0.45,0.44,0.13,0.71,-1.73
1900-01-01 12:34:36.660,35.84,25.54,11.94,0.43,0.58,0.68,0.17,1.05,0.59,25.76,51.96,27.01,0.83,0.46,0.46,-0.61,-0.37,-2.31
1900-01-01 12:34:36.751,37.68,26.77,12.02,0.44,0.59,0.63,-3.44,-0.36,0.86,27.41,49.77,26.82,0.77,0.46,0.45,-4.87,1.59,0.89
1900-01-01 12:34:36.803,37.19,26.34,12.15,0.42,0.57,0.63,-2.56,1.67,-1.25,26.14,51.73,27.11,0.77,0.43,0.43,0.93,-1.97,-2.56
1900-01-01 12:34:36.922,34.87,26.26,11.95,0.44,0.56,0.68,0.22,1.37,-0.88,25.32,53.02,26.88,0.82,0.44,0.44,1.12,-0.93,-3.17
1900-01-01 12:34:36.947,36.2,26.21,11.8,0.43,0.58,0.66,-0.96,0.98,0.58,26.39,51.44,26.55,0.81,0.46,0.45,-1.56,0.49,0.19
1900-01-01 12:34:37.038,36.12,26.54,11.88,0.43,0.57,0.65,-1.3,1.51,0.01,25.92,51.87,26.74,0.8,0.45,0.44,-1.62,0.53,0.22
1900-01-01 12:34:37.084,36.16,26.68,11.88,0.43,0.57,0.65,-0.95,1.37,0.05,25.82,51.69,26.93,0.8,0.44,0.45,-0.71,0.41,-0.51
1900-01-01 12:34:37.179,36.46,26.3,11.87,0.44,0.58,0.66,-1.09,1.15,0.05,26.42,51.25,27.01,0.8,0.46,0.45,-0.37,-0.31,-1.25
1900-01-01 12:34:37.274,36.47,26.06,11.87,0.43,0.58,0.66,-0.66,1.27,0.34,26.19,51.29,26.98,0.8,0.45,0.45,-0.12,0.01,-1.39
1900-01-01 12:34:37.318,36.69,25.88,11.92,0.44,0.6,0.67,-0.65,-0.22,1.42,25.69,51.79,26.93,0.82,0.45,0.46,-2.37,0.79,1.15
1900-01-01 12:34:37.461,36.23,25.82,12.12,0.41,0.56,0.64,-2.73,-0.02,-0.9,24.66,52.01,27.26,0.78,0.41,0.45,-1.76,-0.81,-0.86
1900-01-01 12:34:37.507,36.89,27.71,11.98,0.45,0.59,0.64,-1.62,-0.91,-2.0,27.39,51.04,27.29,0.79,0.47,0.44,-1.12,-1.05,-1.67
1900-01-01 12:34:37.554,36.88,27.37,11.66,0.45,0.59,0.64,-1.16,0.44,-0.69,26.78,51.0,27.19,0.79,0.46,0.45,-1.53,-0.37,-1.09
1900-01-01 12:34:37.648,36.69,26.83,11.55,0.44,0.58,0.65,-1.81,0.16,-0.77,26.12,51.16,27.18,0.79,0.45,0.45,-1.36,-0.88,-1.6
1900-01-01 12:34:37.742,37.05,27.26,11.42,0.45,0.59,0.64,-1.12,0.91,-0.44,26.69,50.66,27.09,0.79,0.46,0.46,-0.63,-0.33,-1.51
1900-01-01 12:34:37.791,36.06,26.79,11.34,0.44,0.57,0.65,-0.71,0.85,-0.15,25.23,51.94,27.02,0.81,0.44,0.46,-0.53,-0.4,-1.61
1900-01-01 12:34:37.882,36.73,27.21,11.31,0.45,0.58,0.64,-1.16,0.97,-0.32,26.27,51.09,26.93,0.8,0.45,0.46,-0.24,-0.34,-1.28
1900-01-01 12:34:37.929,36.41,27.08,11.26,0.44,0.58,0.65,-1.46,1.18,-0.14,25.92,51.37,26.89,0.79,0.44,0.45,-0.18,-0.69,-1.05
1900-01-01 12:34:38.067,36.49,27.18,11.23,0.45,0.58,0.65,-0.76,1.32,0.13,26.39,51.32,26.89,0.8,0.45,0.45,0.11,-0.68,-1.28
1900-01-01 12:34:38.101,36.83,27.25,11.24,0.45,0.59,0.65,-1.54,1.15,0.34,26.8,50.9,26.85,0.8,0.46,0.45,-0.11,-0.99,-0.44
1900-01-01 12:34:38.165,36.3,27.25,11.28,0.45,0.58,0.65,-1.21,1.08,0.75,25.89,51.86,26.94,0.81,0.45,0.45,0.25,-1.21,-0.66
1900-01-01 12:34:38.265,36.34,27.38,11.39,0.45,0.58,0.65,-1.95,1.13,0.95,26.67,51.2,27.0,0.8,0.46,0.45,-0.05,-1.44,-0.35
1900-01-01 12:34:38.352,37.44,26.77,11.52,0.44,0.59,0.63,-2.03,0.46,0.91,27.02,50.87,27.11,0.78,0.46,0.44,-0.44,-1.19,-0.08
1900-01-01 12:34:38.493,36.1,27.4,11.65,0.45,0.57,0.64,-0.87,0.96,0.31,25.91,51.89,27.25,0.8,0.44,0.44,-0.33,-0.73,-0.6
1900-01-01 12:34:38.493,35.9,27.16,11.69,0.44,0.57,0.65,-2.55,1.13,-0.4,26.26,51.71,27.32,0.79,0.45,0.44,-0.06,-1.76,-1.09
1900-01-01 12:34:38.572,36.84,27.7,11.62,0.46,0.6,0.65,-0.98,0.51,0.41,27.81,50.68,27.31,0.8,0.48,0.44,-0.42,0.06,-0.68
1900-01-01 12:34:38.619,36.75,27.51,11.68,0.45,0.59,0.64,-0.75,1.0,0.69,26.6,51.59,27.36,0.8,0.46,0.44,-0.7,0.74,-0.58
1900-01-01 12:34:38.715,36.11,28.0,11.77,0.46,0.58,0.64,-0.95,0.95,0.53,26.04,52.15,27.43,0.81,0.45,0.44,-0.43,-0.46,-0.69
1900-01-01 12:34:38.809,35.64,27.93,11.85,0.46,0.57,0.65,-1.45,1.07,0.57,25.6,52.41,27.49,0.81,0.44,0.44,-0.4,-0.94,-0.48
1900-01-01 12:34:38.856,35.69,28.17,11.93,0.46,0.57,0.65,-2.72,1.05,1.08,26.31,52.19,27.57,0.81,0.45,0.43,-0.79,-1.45,-0.01
1900-01-01 12:34:38.950,36.34,27.68,12.08,0.46,0.58,0.64,-2.45,0.82,0.72,26.73,51.57,27.73,0.8,0.46,0.44,-0.82,-1.52,0.12
1900-01-01 12:34:38.997,35.18,28.38,12.18,0.46,0.56,0.65,-0.95,1.08,1.27,25.66,52.72,27.91,0.81,0.44,0.43,0.7,-0.68,-0.98
1900-01-01 12:34:39.103,35.59,28.63,12.37,0.47,0.57,0.65,-1.79,0.56,1.44,26.04,52.53,27.91,0.81,0.45,0.43,-0.24,-1.16,-0.37
1900-01-01 12:34:39.150,34.97,28.23,12.58,0.46,0.55,0.65,-1.73,1.08,1.02,25.09,53.02,28.02,0.81,0.43,0.43,-0.13,-0.72,-0.23
1900-01-01 12:34:39.257,35.26,28.38,12.73,0.46,0.56,0.64,-1.42,0.95,0.4,25.55,52.88,28.14,0.81,0.44,0.43,0.06,-0.71,-0.89
1900-01-01 12:34:39.339,34.94,28.79,12.78,0.47,0.56,0.65,-1.33,0.82,0.56,26.17,52.46,28.16,0.81,0.45,0.43,-0.17,-0.67,-0.73
1900-01-01 12:34:39.458,34.95,28.93,12.86,0.47,0.56,0.64,-1.18,0.94,0.41,25.99,52.89,28.21,0.81,0.45,0.42,-0.62,-0.32,-0.78
1900-01-01 12:34:39.458,34.77,28.88,12.91,0.47,0.56,0.65,-1.11,1.07,-0.09,25.25,53.27,28.25,0.82,0.44,0.43,-0.47,-0.03,-1.09
1900-01-01 12:34:39.562,35.46,28.61,12.89,0.47,0.57,0.65,-0.83,1.12,0.27,26.28,52.41,28.24,0.81,0.45,0.43,-0.17,0.29,-1.23
1900-01-01 12:34:39.609,35.26,28.79,12.92,0.47,0.56,0.64,-1.09,1.38,0.19,25.79,52.74,28.21,0.81,0.44,0.43,-0.43,0.23,-0.92
1900-01-01 12:34:39.703,35.28,29.1,12.94,0.48,0.57,0.64,-0.9,1.46,0.47,26.36,52.55,28.23,0.81,0.45,0.42,-0.34,-0.04,-1.15
1900-01-01 12:34:39.798,35.08,28.93,13.0,0.47,0.56,0.64,-0.83,1.89,1.11,26.41,52.2,28.21,0.8,0.45,0.43,-0.6,-0.14,-0.29
1900-01-01 12:34:39.845,35.12,29.14,13.17,0.48,0.56,0.64,-0.76,1.83,0.89,25.85,52.79,28.32,0.81,0.44,0.43,-0.13,-0.04,-0.53
1900-01-01 12:34:39.940,35.41,29.04,13.29,0.47,0.57,0.64,-1.15,2.08,0.95,26.27,52.34,28.4,0.8,0.45,0.43,-0.09,-0.11,-0.27
1900-01-01 12:34:40.005,35.43,29.02,13.43,0.47,0.57,0.64,-0.45,2.43,1.26,26.81,51.98,28.52,0.8,0.46,0.43,0.31,-0.29,-1.02
1900-01-01 12:34:40.097,35.32,29.03,13.61,0.47,0.57,0.64,-0.02,3.03,1.51,26.32,52.34,28.52,0.81,0.45,0.43,0.69,-0.21,-1.06
1900-01-01 12:34:40.180,34.94,29.37,13.84,0.48,0.56,0.65,-0.09,2.64,1.53,26.31,52.75,28.52,0.82,0.46,0.42,1.02,0.18,-0.73
1900-01-01 12:34:40.223,34.95,28.3,14.06,0.47,0.56,0.66,-1.38,2.89,1.45,25.46,53.08,28.57,0.82,0.44,0.43,0.04,0.21,0.64
1900-01-01 12:34:40.316,34.78,28.49,14.27,0.47,0.56,0.65,-0.92,2.07,0.89,25.62,52.98,28.82,0.81,0.44,0.43,0.0,-0.03,-1.06
1900-01-01 12:34:40.460,34.95,28.31,14.4,0.46,0.56,0.65,-1.1,2.1,0.57,25.69,52.64,28.82,0.81,0.44,0.43,-0.19,0.31,-0.45
1900-01-01 12:34:40.484,35.34,28.75,14.48,0.47,0.56,0.64,-0.45,2.32,-0.6,26.52,52.43,28.91,0.8,0.45,0.42,-0.41,0.39,-1.82
1900-01-01 12:34:40.537,35.49,28.68,14.38,0.47,0.57,0.64,0.17,2.47,-0.48,26.46,52.34,28.79,0.8,0.45,0.42,0.08,0.5,-1.68
1900-01-01 12:34:40.599,34.6,28.24,14.3,0.47,0.56,0.67,-0.46,2.29,-0.51,25.4,53.05,28.69,0.82,0.44,0.43,-0.48,0.71,-1.07
1900-01-01 12:34:40.692,35.09,28.9,14.21,0.47,0.56,0.64,-0.99,1.56,-0.08,26.64,52.22,28.69,0.81,0.46,0.43,-0.69,0.24,-0.76
1900-01-01 12:34:40.788,35.29,28.17,14.19,0.46,0.56,0.65,-0.49,1.9,-0.15,25.82,52.37,28.73,0.81,0.44,0.44,-0.27,0.31,-1.27
1900-01-01 12:34:40.835,35.58,28.2,14.16,0.46,0.57,0.65,-0.79,1.87,0.06,26.34,52.29,28.69,0.8,0.45,0.43,-0.43,0.48,-1.18
1900-01-01 12:34:40.928,35.92,27.55,14.16,0.45,0.58,0.65,-0.38,1.31,-0.19,26.06,51.99,28.67,0.81,0.45,0.44,-0.22,0.08,-1.4
1900-01-01 12:34:41.022,35.53,28.26,14.12,0.46,0.57,0.65,-1.44,1.25,-0.15,26.31,52.3,28.61,0.81,0.45,0.43,-1.08,0.14,-0.53
1900-01-01 12:34:41.070,36.03,27.99,14.09,0.46,0.57,0.64,-1.24,1.35,-0.18,26.51,51.66,28.69,0.8,0.45,0.44,-0.69,0.04,-0.76
1900-01-01 12:34:41.163,36.13,27.92,14.05,0.46,0.58,0.64,-1.31,1.37,-0.35,26.35,51.76,28.73,0.8,0.45,0.44,-0.78,0.05,-0.82
1900-01-01 12:34:41.229,35.98,28.0,13.99,0.46,0.57,0.64,-0.75,1.18,-0.41,26.58,51.82,28.77,0.8,0.46,0.43,-0.56,0.08,-1.15
1900-01-01 12:34:41.308,36.26,27.92,13.92,0.46,0.58,0.64,-1.37,1.52,-0.47,26.5,51.59,28.75,0.79,0.45,0.44,-0.73,-0.15,-1.02
1900-01-01 12:34:41.468,35.92,27.73,13.84,0.46,0.58,0.65,-1.31,1.21,-0.43,26.02,51.9,28.75,0.81,0.45,0.45,-0.82,-0.12,-1.15
1900-01-01 12:34:41.468,36.08,27.48,13.77,0.45,0.58,0.65,-1.54,0.92,-0.08,26.37,51.52,28.74,0.8,0.46,0.45,-0.82,-0.34,-0.85
1900-01-01 12:34:41.541,36.04,27.85,13.75,0.46,0.58,0.65,-1.7,0.63,-0.11,26.46,51.56,28.76,0.81,0.46,0.45,-1.11,-0.4,-0.42
1900-01-01 12:34:41.633,36.26,28.1,13.72,0.46,0.58,0.64,-1.71,1.08,-0.3,26.31,51.74,28.86,0.8,0.45,0.44,-0.92,-0.2,-0.69
1900-01-01 12:34:41.680,36.14,27.94,13.67,0.46,0.58,0.64,-1.76,0.99,-0.28,26.35,51.61,28.91,0.8,0.45,0.44,-0.92,-0.63,-0.69
1900-01-01 12:34:41.774,36.49,27.79,13.61,0.45,0.58,0.64,-1.59,1.05,-0.66,26.66,51.41,28.96,0.79,0.45,0.44,-0.69,-0.85,-1.02
1900-01-01 12:34:41.828,36.48,27.95,13.51,0.45,0.57,0.63,-2.6,1.48,-1.94,27.16,51.41,28.96,0.78,0.46,0.42,1.61,-1.47,-1.86
1900-01-01 12:34:41.963,35.93,27.42,13.2,0.46,0.59,0.66,-0.07,1.09,-0.28,26.16,51.96,28.84,0.83,0.46,0.45,0.66,0.09,-1.75
1900-01-01 12:34:42.011,36.53,27.8,13.15,0.46,0.58,0.64,-1.11,1.63,0.11,27.11,51.28,28.73,0.8,0.47,0.44,-0.48,-0.15,-0.46
1900-01-01 12:34:42.057,36.58,27.61,13.16,0.46,0.59,0.64,-1.17,1.3,0.16,27.1,51.32,28.82,0.8,0.47,0.44,-0.1,-0.18,-1.05
1900-01-01 12:34:42.150,36.63,27.28,13.17,0.45,0.58,0.64,-0.76,1.3,0.24,26.41,51.62,28.82,0.8,0.45,0.44,0.02,-0.1,-1.05
1900-01-01 12:34:42.271,36.29,27.7,13.2,0.46,0.58,0.65,-1.07,1.37,0.15,26.54,51.8,28.82,0.81,0.46,0.44,-0.58,-0.15,-0.76
1900-01-01 12:34:42.299,36.71,27.56,13.21,0.45,0.58,0.64,-1.36,1.31,0.15,26.82,51.5,28.86,0.8,0.46,0.44,-0.73,-0.46,-0.55
1900-01-01 12:34:42.468,36.44,27.53,13.23,0.45,0.58,0.65,-0.93,1.21,0.11,26.79,51.56,28.93,0.8,0.46,0.44,-0.42,-0.34,-0.92
1900-01-01 12:34:42.496,36.67,27.65,13.24,0.46,0.59,0.64,-1.82,1.18,0.22,26.63,51.81,28.95,0.81,0.46,0.44,-1.29,-0.69,0.15
1900-01-01 12:34:42.556,36.65,27.59,13.26,0.45,0.58,0.64,-1.59,1.31,0.18,26.82,51.51,29.13,0.79,0.46,0.43,-0.63,-0.41,-0.49
1900-01-01 12:34:42.621,36.57,27.57,13.28,0.45,0.58,0.64,-1.59,1.04,0.11,26.75,51.67,29.22,0.8,0.46,0.44,-0.55,-0.44,-0.72
1900-01-01 12:34:42.667,36.36,27.64,13.29,0.45,0.58,0.64,-1.05,1.34,0.08,26.29,52.01,29.26,0.8,0.45,0.44,-0.27,-0.08,-1.07
1900-01-01 12:34:42.763,36.16,27.53,13.29,0.45,0.58,0.65,-1.09,1.19,-0.02,26.19,52.02,29.26,0.8,0.45,0.44,-0.5,-0.25,-1.05
1900-01-01 12:34:42.862,35.99,27.57,13.28,0.45,0.57,0.64,-1.73,0.52,-0.5,25.78,52.28,29.26,0.8,0.44,0.44,-1.3,-0.49,-0.66
1900-01-01 12:34:42.902,36.51,27.93,13.2,0.46,0.58,0.64,-1.44,0.89,-0.28,26.92,51.51,29.31,0.79,0.46,0.43,-0.63,-0.08,-0.85
1900-01-01 12:34:43.000,35.72,27.24,13.14,0.45,0.57,0.66,-1.09,-0.45,-0.97,25.01,52.55,29.34,0.82,0.43,0.45,-0.69,-0.45,-1.56
1900-01-01 12:34:43.089,36.7,26.81,12.99,0.44,0.58,0.64,-2.31,-1.38,-1.08,25.87,51.16,29.26,0.79,0.44,0.46,-0.96,-1.3,-1.71
1900-01-01 12:34:43.136,36.32,28.8,12.81,0.47,0.58,0.63,-1.56,-0.55,-1.55,26.86,51.88,29.16,0.8,0.46,0.43,-1.79,-1.13,-1.97
1900-01-01 12:34:43.229,36.21,28.54,12.57,0.47,0.58,0.63,-2.54,-1.31,-1.35,26.8,51.72,29.01,0.8,0.46,0.43,-1.92,-2.36,-2.18
1900-01-01 12:34:43.283,36.45,28.54,12.35,0.47,0.58,0.64,-2.22,-0.86,-1.03,27.46,51.34,28.84,0.8,0.47,0.43,-0.76,-2.24,-2.1
1900-01-01 12:34:43.391,36.19,29.16,12.18,0.47,0.57,0.62,-3.36,-1.49,-0.89,26.97,52.39,28.67,0.81,0.46,0.42,-0.64,-3.2,-1.97
1900-01-01 12:34:43.503,36.49,29.03,12.04,0.47,0.57,0.62,-4.7,0.15,0.41,28.37,51.1,28.53,0.78,0.48,0.41,-0.88,-3.61,-0.19
1900-01-01 12:34:43.503,36.83,28.82,12.09,0.48,0.6,0.64,-5.85,1.51,0.71,28.45,51.64,28.66,0.81,0.49,0.41,-2.93,-2.84,2.11
1900-01-01 12:34:43.601,35.68,28.53,12.19,0.47,0.58,0.65,-6.5,1.6,2.08,27.62,51.43,29.14,0.8,0.48,0.43,-4.6,-0.37,2.74
1900-01-01 12:34:43.723,31.02,29.95,12.5,0.47,0.48,0.65,1.5,2.17,2.98,20.71,55.34,29.71,0.81,0.35,0.44,-4.31,2.91,-2.51
1900-01-01 12:34:43.752,33.68,28.37,12.95,0.48,0.56,0.69,-0.02,0.79,-0.06,23.96,53.82,29.49,0.85,0.43,0.45,-1.17,-0.08,-1.55
1900-01-01 12:34:43.835,33.56,29.85,12.93,0.5,0.56,0.68,-3.28,-1.42,0.35,25.0,52.9,29.41,0.84,0.44,0.45,-1.76,-1.36,-3.17
1900-01-01 12:34:43.911,33.46,31.53,12.98,0.5,0.53,0.63,-1.18,0.57,-0.15,26.43,53.58,29.08,0.79,0.44,0.39,-3.5,3.02,-4.43
1900-01-01 12:34:43.983,36.51,27.99,12.95,0.46,0.59,0.64,-2.15,1.42,0.56,27.93,48.68,28.57,0.77,0.48,0.48,-0.17,1.15,-1.94
1900-01-01 12:34:44.070,34.46,28.92,13.02,0.47,0.55,0.65,-2.66,1.51,0.4,25.94,51.69,28.43,0.8,0.44,0.45,0.59,0.37,-2.69
1900-01-01 12:34:44.116,31.88,31.29,13.07,0.51,0.51,0.65,-1.14,2.55,-2.69,25.8,53.52,28.18,0.8,0.43,0.4,0.65,1.63,-5.23
1900-01-01 12:34:44.211,36.54,27.04,12.65,0.44,0.58,0.65,-0.39,2.18,0.87,29.01,45.65,27.54,0.74,0.5,0.52,1.57,2.13,-2.29
1900-01-01 12:34:44.292,34.75,28.52,12.78,0.46,0.55,0.65,-0.05,0.7,0.85,27.5,49.17,27.35,0.76,0.46,0.46,0.85,1.36,-2.37
1900-01-01 12:34:44.382,33.5,29.61,12.9,0.48,0.54,0.66,-1.26,1.6,-0.49,26.26,51.05,27.15,0.79,0.45,0.45,-0.54,1.12,-1.79
1900-01-01 12:34:44.511,33.62,29.62,12.82,0.48,0.54,0.66,-1.25,1.03,0.3,27.0,50.54,27.03,0.79,0.47,0.46,-0.33,0.23,-1.18
1900-01-01 12:34:44.585,33.71,29.1,12.85,0.48,0.54,0.66,-1.51,0.88,0.05,26.65,50.19,27.01,0.79,0.46,0.47,-0.7,0.18,-0.87
1900-01-01 12:34:44.623,33.72,29.53,12.85,0.48,0.54,0.65,-1.93,0.93,-0.02,27.34,49.78,27.04,0.78,0.47,0.46,-1.27,0.0,-0.3
1900-01-01 12:34:44.699,34.09,29.32,12.84,0.48,0.55,0.65,-1.12,0.89,-0.31,27.23,49.76,27.15,0.78,0.47,0.47,-1.05,0.5,-1.03
1900-01-01 12:34:44.726,33.91,28.93,12.78,0.47,0.55,0.66,-0.74,1.01,-0.17,26.74,49.82,27.15,0.78,0.46,0.47,-0.88,0.43,-0.99
1900-01-01 12:34:44.819,34.97,27.39,12.75,0.45,0.56,0.67,-0.34,0.28,0.82,26.23,48.53,27.16,0.77,0.45,0.51,-2.37,1.16,-0.54
1900-01-01 12:34:44.914,34.2,29.73,12.87,0.48,0.54,0.64,-0.98,-0.76,2.74,27.33,48.35,27.23,0.76,0.47,0.49,-1.98,-2.02,1.79
1900-01-01 12:34:44.962,33.63,31.81,13.28,0.53,0.56,0.65,0.06,-0.74,1.0,27.1,51.16,27.66,0.8,0.47,0.44,0.61,-3.62,-0.07
1900-01-01 12:34:45.055,31.15,32.37,13.42,0.52,0.5,0.65,-1.27,0.03,0.79,23.58,54.41,27.81,0.84,0.41,0.43,-3.08,-0.02,-0.2
1900-01-01 12:34:45.195,34.53,30.07,13.53,0.48,0.55,0.63,-0.66,0.43,0.33,26.57,49.3,27.94,0.77,0.46,0.48,-2.13,0.89,-1.59
1900-01-01 12:34:45.195,33.62,30.65,13.57,0.5,0.54,0.64,-0.76,1.41,-0.15,25.75,50.64,27.86,0.78,0.44,0.47,-1.86,0.43,-1.05
1900-01-01 12:34:45.289,34.85,30.25,13.54,0.5,0.56,0.64,-2.48,2.09,0.49,27.19,48.63,27.85,0.77,0.47,0.49,0.39,-1.39,1.4
1900-01-01 12:34:45.334,31.9,32.5,13.61,0.52,0.51,0.64,-2.73,2.15,-0.83,25.09,53.37,28.23,0.81,0.43,0.42,-3.64,1.4,0.88
1900-01-01 12:34:45.496,34.07,31.6,13.47,0.52,0.56,0.64,-3.99,1.64,0.05,27.33,49.72,28.52,0.79,0.48,0.47,-5.02,-0.78,1.04
1900-01-01 12:34:45.496,33.16,30.47,13.47,0.49,0.53,0.64,-2.78,2.11,0.08,24.81,51.01,28.83,0.79,0.43,0.48,-4.53,-0.01,-0.98
1900-01-01 12:34:45.569,33.09,30.51,13.47,0.5,0.54,0.66,-3.89,1.27,-0.55,25.14,50.31,28.84,0.79,0.43,0.49,-4.55,-0.53,-1.15
1900-01-01 12:34:45.664,32.84,30.83,13.38,0.5,0.53,0.65,-3.5,1.79,-0.6,24.57,50.88,28.83,0.79,0.42,0.48,-3.37,-0.32,-1.63
1900-01-01 12:34:45.755,31.82,31.11,13.28,0.51,0.52,0.67,-3.17,2.78,2.08,25.24,50.0,28.74,0.8,0.45,0.5,-5.29,3.59,-2.82
1900-01-01 12:34:45.802,31.2,27.65,13.59,0.49,0.55,0.76,0.99,-1.8,3.04,21.03,51.46,28.46,0.87,0.4,0.57,-2.85,1.49,0.69
1900-01-01 12:34:45.896,37.41,27.01,14.05,0.46,0.62,0.66,-4.18,-1.67,5.76,26.09,44.26,28.73,0.74,0.47,0.6,-0.64,-10.29,1.68
1900-01-01 12:34:45.945,30.35,33.33,14.92,0.53,0.49,0.65,-2.94,0.12,3.18,22.16,54.15,29.14,0.8,0.37,0.44,-6.08,-1.72,1.81
1900-01-01 12:34:46.028,28.6,36.25,15.4,0.58,0.47,0.64,-1.92,-1.47,0.17,22.14,54.85,29.58,0.84,0.39,0.45,-5.08,-0.63,-3.17
1900-01-01 12:34:46.132,31.15,33.23,15.41,0.53,0.5,0.64,-3.15,-0.5,0.2,23.28,50.46,29.25,0.79,0.4,0.51,-4.11,-0.21,-2.62
1900-01-01 12:34:46.179,31.63,32.78,15.43,0.53,0.51,0.64,-2.99,-0.38,0.18,23.28,51.06,29.01,0.79,0.4,0.5,-4.19,-0.65,-2.11
1900-01-01 12:34:46.272,30.92,33.14,15.45,0.53,0.5,0.64,-2.27,0.02,-1.34,22.25,50.92,28.84,0.79,0.38,0.51,-1.66,-0.51,-1.56
1900-01-01 12:34:46.404,30.84,33.79,15.24,0.55,0.5,0.64,-2.22,1.24,-0.79,24.02,49.83,28.76,0.78,0.42,0.51,-0.46,-1.11,-0.76
1900-01-01 12:34:46.404,30.95,33.18,15.11,0.53,0.5,0.64,-1.7,1.55,-0.47,22.73,50.65,28.81,0.79,0.39,0.51,-0.69,-1.01,-0.57
1900-01-01 12:34:46.518,30.92,33.02,15.03,0.53,0.5,0.65,-1.87,1.34,-0.25,23.12,50.5,28.88,0.79,0.4,0.51,-0.02,0.05,-1.32
1900-01-01 12:34:46.569,30.23,33.8,14.98,0.54,0.49,0.65,-2.83,1.37,-1.29,22.45,52.53,28.83,0.81,0.39,0.48,1.41,1.5,-2.27
1900-01-01 12:34:46.646,29.85,33.55,14.78,0.55,0.5,0.67,-4.55,1.87,-2.19,24.13,53.12,28.64,0.81,0.42,0.45,0.0,7.19,-3.17
1900-01-01 12:34:46.740,34.58,30.92,14.43,0.52,0.57,0.65,-2.07,2.61,-3.03,27.75,43.57,28.32,0.71,0.48,0.58,1.86,2.28,-3.59
1900-01-01 12:34:46.788,30.46,32.46,13.96,0.51,0.49,0.65,0.45,2.75,-3.57,23.52,48.48,27.93,0.75,0.4,0.53,1.34,3.63,-4.93
1900-01-01 12:34:46.878,31.85,31.6,13.41,0.52,0.53,0.67,-0.8,2.42,-0.95,25.79,46.13,27.34,0.75,0.45,0.56,4.21,0.9,-4.06
1900-01-01 12:34:46.978,33.34,30.64,13.26,0.5,0.54,0.65,-2.84,3.02,0.94,26.62,46.2,26.88,0.73,0.45,0.53,3.26,2.93,-3.45
1900-01-01 12:34:47.021,31.37,29.88,13.39,0.48,0.5,0.67,2.14,2.83,1.56,24.88,45.5,26.51,0.73,0.43,0.57,4.79,2.63,-3.61
1900-01-01 12:34:47.117,30.67,30.33,13.62,0.49,0.5,0.68,0.11,1.56,0.44,24.41,46.72,26.12,0.74,0.42,0.56,3.14,0.39,-2.89
1900-01-01 12:34:47.211,31.04,30.83,13.68,0.5,0.5,0.66,-1.38,-0.38,-0.67,26.06,45.28,25.84,0.73,0.45,0.56,-0.14,-6.31,-2.08
1900-01-01 12:34:47.255,32.31,31.77,13.57,0.52,0.53,0.65,-2.67,0.32,-0.48,28.89,46.35,25.68,0.73,0.49,0.5,-2.92,-7.65,0.24
1900-01-01 12:34:47.350,31.76,31.28,13.49,0.52,0.52,0.67,-0.66,0.72,0.81,27.67,47.76,25.88,0.76,0.48,0.5,0.01,-4.34,-0.41
1900-01-01 12:34:47.396,32.31,30.96,13.6,0.51,0.53,0.66,0.06,1.18,1.18,28.09,47.52,25.97,0.75,0.48,0.5,0.19,-2.25,-0.38
1900-01-01 12:34:47.548,32.21,30.63,13.77,0.5,0.53,0.67,-0.86,0.84,1.03,27.41,46.85,26.07,0.75,0.47,0.52,-0.62,-1.91,-0.32
1900-01-01 12:34:47.573,30.94,31.14,13.92,0.51,0.51,0.68,-0.21,-0.58,0.98,25.52,49.2,26.18,0.79,0.45,0.51,-2.24,-3.28,-0.17
1900-01-01 12:34:47.629,31.59,33.02,14.07,0.53,0.51,0.64,-1.02,0.34,0.79,27.69,48.32,26.31,0.75,0.47,0.48,-2.95,-2.15,-0.31
1900-01-01 12:34:47.723,31.74,32.7,14.18,0.53,0.51,0.64,-0.09,0.76,0.79,27.03,48.77,26.43,0.77,0.46,0.49,-1.94,-1.46,-0.4
1900-01-01 12:34:47.826,31.55,32.58,14.29,0.52,0.51,0.64,0.13,1.02,0.44,26.31,49.21,26.52,0.76,0.45,0.48,-0.16,-1.8,-0.89
1900-01-01 12:34:47.863,31.88,32.54,14.35,0.53,0.52,0.64,0.0,1.63,0.08,26.7,49.4,26.55,0.77,0.46,0.48,0.45,-0.05,-1.11
1900-01-01 12:34:47.955,32.62,32.03,14.35,0.52,0.53,0.64,0.58,1.46,-0.8,26.77,48.94,26.54,0.77,0.46,0.49,2.44,0.09,-1.88
1900-01-01 12:34:48.075,32.27,32.25,14.22,0.52,0.52,0.64,1.93,1.31,-0.8,26.93,49.32,26.41,0.78,0.46,0.48,2.87,1.22,-2.26
1900-01-01 12:34:48.101,32.65,31.82,14.09,0.52,0.53,0.64,0.98,1.54,-1.11,27.07,49.15,26.22,0.77,0.46,0.48,2.69,-0.1,-2.56
1900-01-01 12:34:48.191,33.91,31.86,13.91,0.52,0.55,0.63,-0.27,1.38,-1.24,29.35,47.37,25.99,0.75,0.5,0.47,1.36,-0.03,-1.6
1900-01-01 12:34:48.238,33.43,31.83,13.71,0.51,0.54,0.63,2.85,1.32,-1.05,27.3,49.11,25.91,0.77,0.47,0.48,3.98,0.24,-4.08
1900-01-01 12:34:48.337,34.04,31.81,13.55,0.52,0.55,0.63,-1.32,1.54,-0.66,30.05,47.44,25.44,0.75,0.51,0.46,0.89,-2.41,-0.66
1900-01-01 12:34:48.392,34.79,31.43,13.44,0.51,0.56,0.62,-2.89,1.37,0.16,30.93,46.88,25.5,0.75,0.52,0.46,-1.93,-2.16,0.28
1900-01-01 12:34:48.564,33.08,32.13,13.45,0.52,0.53,0.63,-3.44,1.64,0.17,27.69,49.46,25.7,0.77,0.47,0.46,-2.5,-1.63,1.6
1900-01-01 12:34:48.564,32.52,32.2,13.47,0.51,0.52,0.63,-4.63,1.08,-0.12,27.22,50.06,26.1,0.77,0.46,0.45,-2.88,-3.61,2.11
1900-01-01 12:34:48.648,33.37,31.9,13.44,0.53,0.55,0.64,-4.04,1.08,-0.37,28.67,48.92,26.59,0.77,0.49,0.46,-1.28,-4.69,0.0
1900-01-01 12:34:48.708,32.61,31.81,13.38,0.52,0.54,0.65,-5.02,1.42,0.02,28.43,49.79,26.75,0.79,0.49,0.45,-3.73,-4.18,1.75
1900-01-01 12:34:48.800,31.79,31.96,13.37,0.51,0.51,0.65,-5.57,1.99,0.92,26.93,50.37,27.17,0.78,0.46,0.46,-6.72,-1.47,4.1
1900-01-01 12:34:48.848,31.45,31.44,13.5,0.51,0.51,0.66,-4.49,2.46,0.68,25.27,51.94,27.95,0.8,0.44,0.45,-4.68,-0.22,2.18
1900-01-01 12:34:48.940,30.15,32.21,13.6,0.52,0.49,0.66,-2.27,1.05,0.44,23.65,53.0,28.45,0.81,0.41,0.46,-2.9,0.2,-0.59
1900-01-01 12:34:49.033,31.0,30.9,13.66,0.5,0.5,0.67,-3.33,1.21,-0.03,24.46,51.54,28.51,0.8,0.42,0.47,-4.2,2.24,-1.18
1900-01-01 12:34:49.083,30.7,31.96,13.64,0.52,0.5,0.66,-2.33,1.34,-1.0,24.44,51.69,28.49,0.8,0.42,0.47,-1.96,-0.03,-0.73
1900-01-01 12:34:49.175,30.81,31.75,13.48,0.51,0.5,0.66,-2.15,1.27,-1.13,24.78,51.26,28.54,0.79,0.43,0.47,-1.6,-0.79,-1.36
1900-01-01 12:34:49.253,30.79,31.22,13.3,0.51,0.5,0.67,-2.44,-0.1,-1.73,23.87,51.6,28.49,0.81,0.42,0.49,-2.11,0.81,-1.62
1900-01-01 12:34:49.317,30.48,31.48,13.03,0.51,0.5,0.67,-0.65,0.63,-0.05,24.37,51.09,28.4,0.8,0.43,0.49,-1.76,1.31,-1.11
1900-01-01 12:34:49.412,30.71,30.62,13.01,0.5,0.5,0.68,0.23,-1.08,-0.91,23.37,51.11,28.39,0.81,0.41,0.5,0.44,0.76,-3.37
1900-01-01 12:34:49.567,31.5,32.14,12.86,0.53,0.52,0.66,-1.38,-2.2,-0.85,26.46,49.49,28.03,0.79,0.46,0.49,0.15,-0.51,-2.98
1900-01-01 12:34:49.584,32.32,32.2,12.73,0.52,0.52,0.64,-3.1,-0.69,0.33,27.77,48.93,27.74,0.76,0.47,0.47,-0.82,-3.41,-0.65
1900-01-01 12:34:49.622,30.97,32.76,12.77,0.53,0.51,0.65,-2.63,-0.37,0.24,25.26,51.19,27.79,0.8,0.44,0.47,-1.63,-2.6,-0.85
1900-01-01 12:34:49.692,29.8,32.88,12.8,0.53,0.49,0.67,-2.52,-0.1,0.46,24.41,51.72,27.82,0.81,0.43,0.48,-1.18,-2.6,-1.06
1900-01-01 12:34:49.786,30.13,33.42,12.86,0.53,0.49,0.65,-1.98,-0.07,0.86,25.25,50.91,27.82,0.78,0.43,0.47,-1.56,-1.73,-0.69
1900-01-01 12:34:49.882,30.99,32.58,12.98,0.51,0.49,0.64,-1.32,0.82,0.11,25.1,50.62,27.87,0.77,0.42,0.47,-1.17,-0.5,0.16
1900-01-01 12:34:49.925,30.96,33.25,12.99,0.53,0.5,0.64,-0.28,1.9,-0.82,25.34,50.82,28.06,0.78,0.43,0.47,-0.63,-0.18,-0.11
1900-01-01 12:34:50.018,30.66,32.82,12.85,0.54,0.51,0.66,-1.6,1.24,-0.11,24.77,51.5,28.2,0.81,0.43,0.48,-1.04,-0.27,0.63
1900-01-01 12:34:50.065,30.37,32.67,12.83,0.54,0.5,0.67,-1.88,0.76,-0.4,24.15,51.72,28.45,0.83,0.43,0.49,-3.33,-0.59,0.52
1900-01-01 12:34:50.145,30.32,32.54,12.76,0.52,0.49,0.65,-2.12,1.08,-0.24,23.78,51.95,28.69,0.79,0.4,0.47,-0.99,0.08,-0.21
1900-01-01 12:34:50.251,31.03,32.92,12.71,0.53,0.5,0.65,-0.24,2.18,0.49,25.22,50.67,28.81,0.78,0.43,0.48,0.13,0.47,0.59
1900-01-01 12:34:50.298,30.14,33.21,12.78,0.54,0.49,0.66,-0.02,1.99,0.69,23.43,52.23,29.06,0.81,0.41,0.48,-0.1,1.41,0.36
1900-01-01 12:34:50.392,31.32,32.83,12.88,0.53,0.51,0.64,0.45,2.94,1.19,24.74,50.71,29.28,0.78,0.42,0.48,0.63,1.2,0.36
1900-01-01 12:34:50.571,31.29,32.5,13.05,0.52,0.51,0.65,1.47,5.02,1.67,25.16,50.18,29.49,0.77,0.43,0.48,1.15,2.12,1.21
1900-01-01 12:34:50.571,29.5,33.22,13.29,0.54,0.48,0.66,1.82,3.24,-0.3,21.74,53.62,29.83,0.84,0.39,0.48,0.08,2.96,-1.27
1900-01-01 12:34:50.612,31.73,33.17,13.24,0.53,0.51,0.63,0.01,5.07,0.46,26.21,49.97,29.79,0.77,0.44,0.47,-0.24,2.14,-0.57
1900-01-01 12:34:50.704,29.0,31.43,13.3,0.52,0.48,0.7,0.83,2.65,-0.32,20.5,52.6,29.87,0.83,0.37,0.52,-0.12,2.39,-0.93
1900-01-01 12:34:50.751,31.21,31.26,13.24,0.51,0.51,0.67,-2.41,0.53,-0.33,23.1,51.06,29.88,0.8,0.4,0.5,-0.4,0.12,-0.66
1900-01-01 12:34:50.866,32.14,32.14,13.19,0.52,0.52,0.64,-1.21,0.97,-0.05,25.34,49.17,29.94,0.77,0.44,0.5,-0.26,0.62,-0.74
1900-01-01 12:34:50.938,31.44,31.21,13.17,0.51,0.51,0.67,-1.85,0.44,-0.62,23.17,50.46,29.98,0.79,0.41,0.52,0.22,0.15,-0.47
1900-01-01 12:34:50.985,30.44,31.51,13.07,0.52,0.5,0.68,-1.92,0.03,-3.15,23.28,51.85,30.07,0.81,0.41,0.49,4.34,-2.98,-3.8
1900-01-01 12:34:51.077,31.0,32.52,12.58,0.54,0.52,0.67,-2.1,-4.06,-1.9,24.81,51.3,29.65,0.82,0.44,0.49,-1.05,-3.24,-4.84
1900-01-01 12:34:51.189,32.82,32.44,12.28,0.51,0.52,0.62,-3.57,-1.08,-0.63,27.51,48.56,29.06,0.75,0.46,0.47,-2.63,-2.22,-2.03
1900-01-01 12:34:51.217,31.28,31.68,12.17,0.51,0.51,0.66,-1.95,-0.92,-0.11,23.85,50.92,28.91,0.79,0.41,0.49,-0.88,-0.56,-1.67
1900-01-01 12:34:51.311,31.54,33.14,12.15,0.54,0.51,0.64,-2.21,-0.91,-0.03,26.02,50.3,28.81,0.79,0.45,0.47,-1.18,-0.84,-1.51
1900-01-01 12:34:51.443,30.5,33.28,12.13,0.54,0.5,0.65,-1.6,0.52,0.19,25.05,51.02,28.74,0.79,0.43,0.47,-0.95,1.41,0.21
1900-01-01 12:34:51.443,30.26,33.1,12.15,0.53,0.49,0.65,-0.94,0.95,0.29,25.17,50.53,28.93,0.78,0.43,0.48,0.47,0.95,0.04
1900-01-01 12:34:51.573,31.25,32.58,12.19,0.53,0.51,0.66,-1.57,0.85,-0.34,24.5,50.3,29.09,0.79,0.43,0.5,-0.25,-0.5,1.54
