Time,Roll1,Pitch1,Yaw1,AccX1,AccY1,AccZ1,RotX1,RotY1,RotZ1,Roll2,Pitch2,Yaw2,AccX2,AccY2,AccZ2,RotX2,RotY2,RotZ2
1900-01-01 16:45:46.327,43.93,44.78,1.24,0.71,0.7,0.15,-0.52,-0.26,-0.95,54.23,27.25,-0.65,0.45,0.8,0.36,-1.42,1.18,-0.02
1900-01-01 16:45:46.327,43.97,44.68,1.25,0.71,0.7,0.15,-0.3,-0.36,-0.89,54.12,27.35,-0.66,0.45,0.8,0.36,-1.07,1.37,-0.05
1900-01-01 16:45:46.409,43.93,44.86,1.27,0.71,0.7,0.15,-0.62,-0.18,-1.08,54.58,27.1,-0.68,0.45,0.8,0.35,-1.33,1.48,-0.01
1900-01-01 16:45:46.472,43.78,44.92,1.27,0.71,0.7,0.15,-0.47,-0.31,-1.01,53.95,27.53,-0.69,0.46,0.8,0.36,-0.98,1.5,-0.05
1900-01-01 16:45:46.551,44.05,44.65,1.27,0.71,0.7,0.15,0.05,-0.09,-0.96,54.56,26.89,-0.7,0.44,0.8,0.36,-0.63,1.77,-0.25
1900-01-01 16:45:46.645,43.64,44.98,1.28,0.71,0.69,0.15,2.85,-0.31,-0.98,53.34,28.08,-0.75,0.46,0.78,0.36,5.91,4.05,-2.51
1900-01-01 16:45:46.692,43.77,45.15,1.29,0.71,0.7,0.14,12.92,-1.37,0.67,56.58,25.75,-1.14,0.43,0.82,0.33,20.58,10.79,-6.92
1900-01-01 16:45:46.787,44.43,45.07,1.55,0.72,0.71,0.09,-1.4,-0.33,-1.4,59.4,24.57,-2.21,0.41,0.85,0.29,-1.25,1.21,-0.5
1900-01-01 16:45:46.863,44.32,44.94,1.5,0.72,0.71,0.11,-0.15,-0.43,-0.74,58.71,24.81,-2.29,0.42,0.85,0.3,-1.99,0.86,-0.04
1900-01-01 16:45:46.928,44.15,45.1,1.54,0.71,0.7,0.11,-0.9,0.08,-0.98,58.16,25.13,-2.31,0.42,0.83,0.31,-2.15,0.82,0.11
1900-01-01 16:45:47.010,44.55,44.6,1.55,0.71,0.71,0.12,-0.66,-0.54,-1.31,57.95,25.01,-2.3,0.42,0.83,0.32,-1.08,0.92,-0.29
1900-01-01 16:45:47.068,43.86,45.46,1.51,0.72,0.7,0.11,-1.22,-0.26,-1.32,58.42,24.78,-2.35,0.41,0.83,0.31,-2.33,1.34,0.15
1900-01-01 16:45:47.162,43.96,45.31,1.47,0.71,0.7,0.11,-0.63,-0.44,-1.03,58.02,25.25,-2.34,0.42,0.83,0.31,-1.41,1.2,-0.01
1900-01-01 16:45:47.257,43.98,45.26,1.47,0.72,0.7,0.12,-0.76,-0.36,-0.83,58.09,25.18,-2.35,0.42,0.84,0.31,-1.43,0.8,0.21
1900-01-01 16:45:47.303,44.43,44.77,1.5,0.71,0.71,0.12,-0.52,-0.43,-0.7,58.4,24.56,-2.32,0.41,0.84,0.31,-1.42,1.07,0.21
1900-01-01 16:45:47.407,44.34,44.81,1.55,0.71,0.7,0.12,-0.39,-0.42,-0.98,57.91,25.13,-2.3,0.42,0.83,0.31,-0.98,1.39,0.08
1900-01-01 16:45:47.451,44.06,45.19,1.56,0.71,0.7,0.11,-0.31,-0.47,-1.02,58.3,24.89,-2.29,0.41,0.84,0.31,-0.13,1.32,-0.04
1900-01-01 16:45:47.573,43.97,45.3,1.56,0.72,0.7,0.11,-0.47,-0.08,-1.0,58.2,25.08,-2.31,0.42,0.84,0.31,-1.48,0.14,0.38
1900-01-01 16:45:47.679,44.26,44.93,1.57,0.72,0.71,0.12,-0.61,-0.21,-0.92,57.75,25.32,-2.26,0.42,0.83,0.31,-1.02,0.63,0.08
1900-01-01 16:45:47.679,44.33,44.89,1.59,0.71,0.7,0.12,-0.35,-0.24,-0.97,58.23,25.16,-2.25,0.42,0.83,0.3,-0.61,1.43,-0.03
1900-01-01 16:45:47.788,44.14,45.05,1.6,0.71,0.7,0.12,-0.56,-0.25,-1.14,57.85,25.42,-2.27,0.42,0.83,0.31,-0.87,1.5,-0.03
1900-01-01 16:45:47.885,44.15,45.14,1.58,0.72,0.7,0.11,-0.4,-0.27,-0.98,58.64,24.81,-2.28,0.41,0.84,0.3,-0.72,1.6,-0.05
1900-01-01 16:45:47.921,44.2,45.07,1.59,0.71,0.7,0.11,-0.56,-0.28,-1.02,58.39,25.14,-2.3,0.42,0.84,0.3,-1.11,1.24,-0.02
1900-01-01 16:45:48.009,44.38,44.84,1.59,0.71,0.71,0.12,-0.21,-0.2,-0.89,58.06,25.27,-2.31,0.42,0.83,0.31,-0.73,1.29,-0.03
1900-01-01 16:45:48.105,44.29,44.99,1.62,0.71,0.7,0.11,-0.15,0.08,-1.11,58.47,25.07,-2.32,0.42,0.84,0.3,-0.88,1.42,0.07
1900-01-01 16:45:48.151,44.18,45.07,1.6,0.72,0.7,0.12,-0.51,-0.17,-1.02,58.09,25.41,-2.32,0.42,0.84,0.3,-1.19,1.17,0.15
1900-01-01 16:45:48.248,44.52,44.71,1.61,0.71,0.71,0.12,-0.36,-0.26,-0.85,58.32,25.17,-2.31,0.42,0.84,0.3,-1.18,1.32,0.05
1900-01-01 16:45:48.292,44.42,44.85,1.64,0.71,0.71,0.11,-0.52,-0.23,-1.05,58.42,25.08,-2.31,0.42,0.84,0.3,-1.08,1.56,0.09
1900-01-01 16:45:48.386,44.55,44.68,1.64,0.71,0.71,0.12,-0.29,-0.28,-1.05,58.73,24.82,-2.3,0.42,0.85,0.3,-1.04,1.49,0.21
1900-01-01 16:45:48.531,44.37,44.92,1.63,0.71,0.7,0.11,-0.43,-0.21,-1.07,58.44,25.2,-2.28,0.42,0.84,0.3,-1.22,1.46,-0.02
1900-01-01 16:45:48.545,44.27,45.01,1.63,0.71,0.71,0.11,-0.52,-0.42,-0.92,58.59,25.1,-2.29,0.42,0.84,0.3,-1.23,1.08,-0.02
1900-01-01 16:45:48.622,44.42,44.83,1.65,0.71,0.71,0.11,-0.4,-0.19,-1.02,58.55,24.98,-2.3,0.42,0.84,0.3,-1.21,1.35,0.15
1900-01-01 16:45:48.669,44.33,44.91,1.65,0.71,0.7,0.12,-0.49,-0.31,-1.02,58.22,25.29,-2.29,0.42,0.83,0.3,-1.11,1.14,0.0
1900-01-01 16:45:48.781,44.36,44.91,1.65,0.71,0.71,0.11,-0.43,-0.21,-1.02,58.54,25.13,-2.3,0.42,0.84,0.3,-1.24,1.37,0.02
1900-01-01 16:45:48.863,44.31,44.96,1.66,0.71,0.7,0.11,-0.33,-0.16,-1.09,58.33,25.3,-2.3,0.42,0.84,0.3,-1.24,1.36,0.02
1900-01-01 16:45:48.904,44.4,44.86,1.65,0.71,0.71,0.11,-0.4,-0.31,-0.95,58.7,24.99,-2.31,0.42,0.84,0.3,-1.2,1.34,-0.05
1900-01-01 16:45:48.999,44.37,44.9,1.66,0.71,0.7,0.11,-0.39,-0.2,-0.94,58.44,25.2,-2.32,0.42,0.84,0.3,-1.14,1.32,-0.04
1900-01-01 16:45:49.095,44.33,44.91,1.68,0.71,0.71,0.12,-0.39,-0.11,-1.08,58.61,25.03,-2.34,0.42,0.84,0.3,-0.98,1.74,0.03
1900-01-01 16:45:49.143,44.37,44.88,1.67,0.71,0.71,0.11,-0.44,-0.25,-0.9,58.6,24.97,-2.34,0.42,0.84,0.3,-1.19,1.47,0.11
1900-01-01 16:45:49.238,44.31,44.98,1.69,0.71,0.7,0.11,-0.36,0.1,-0.92,58.87,24.92,-2.33,0.42,0.85,0.3,-1.0,1.67,0.04
1900-01-01 16:45:49.285,44.46,44.79,1.71,0.71,0.71,0.12,-0.11,-0.29,-0.83,58.33,25.2,-2.33,0.42,0.84,0.3,-0.96,1.69,-0.01
1900-01-01 16:45:49.381,44.59,44.7,1.74,0.71,0.71,0.11,-0.75,0.01,-1.17,58.72,24.86,-2.34,0.41,0.84,0.3,-1.36,1.53,-0.02
1900-01-01 16:45:49.474,44.69,44.57,1.72,0.71,0.71,0.11,-0.64,-0.33,-1.17,58.34,25.17,-2.35,0.42,0.84,0.3,-1.16,1.38,0.05
1900-01-01 16:45:49.521,44.38,44.91,1.7,0.71,0.71,0.11,-0.66,-0.34,-0.96,58.71,24.96,-2.36,0.42,0.84,0.3,-1.4,1.51,0.03
1900-01-01 16:45:49.615,44.34,44.92,1.71,0.71,0.7,0.11,-0.48,-0.3,-0.92,58.49,25.14,-2.36,0.42,0.84,0.3,-1.42,1.04,0.11
1900-01-01 16:45:49.662,44.59,44.72,1.73,0.71,0.71,0.11,-0.38,-0.29,-0.94,58.91,24.77,-2.35,0.41,0.84,0.3,-1.02,1.29,0.15
1900-01-01 16:45:49.757,44.48,44.71,1.75,0.71,0.71,0.12,-0.52,-0.34,-0.93,58.25,25.17,-2.34,0.42,0.84,0.3,-1.11,1.26,0.01
1900-01-01 16:45:49.852,44.29,44.97,1.76,0.72,0.71,0.11,-0.78,-0.15,-1.13,58.37,25.21,-2.34,0.42,0.84,0.3,-1.43,1.24,0.14
1900-01-01 16:45:49.901,44.38,44.88,1.75,0.71,0.71,0.11,-0.63,-0.21,-0.94,58.62,24.99,-2.33,0.42,0.84,0.3,-1.24,1.09,-0.05
1900-01-01 16:45:49.993,44.43,44.84,1.77,0.71,0.71,0.11,-0.5,-0.27,-0.92,58.46,25.14,-2.35,0.42,0.84,0.3,-1.4,1.1,0.04
1900-01-01 16:45:50.040,44.53,44.7,1.78,0.71,0.71,0.12,-0.6,-0.27,-0.76,58.37,25.13,-2.35,0.42,0.84,0.3,-1.34,1.22,-0.04
1900-01-01 16:45:50.133,44.36,44.94,1.83,0.71,0.71,0.11,-0.66,-0.11,-1.18,58.66,25.03,-2.37,0.42,0.84,0.3,-1.28,1.46,0.08
1900-01-01 16:45:50.226,44.39,44.91,1.8,0.71,0.71,0.11,-0.34,-0.37,-1.04,58.6,25.11,-2.36,0.42,0.84,0.3,-1.07,1.29,-0.05
1900-01-01 16:45:50.273,44.5,44.73,1.8,0.71,0.71,0.12,-0.34,-0.31,-0.82,58.34,25.29,-2.38,0.42,0.84,0.3,-1.05,1.37,-0.01
1900-01-01 16:45:50.367,44.48,44.77,1.84,0.71,0.71,0.12,-0.75,-0.34,-1.01,58.41,25.16,-2.39,0.42,0.84,0.3,-1.29,1.4,0.18
1900-01-01 16:45:50.460,44.49,44.78,1.84,0.71,0.71,0.11,-0.56,-0.37,-0.96,58.62,24.9,-2.37,0.42,0.84,0.3,-1.26,1.3,0.07
1900-01-01 16:45:50.507,44.49,44.82,1.85,0.71,0.7,0.11,-0.47,-0.27,-0.98,58.89,25.0,-2.37,0.42,0.84,0.29,-1.1,1.24,-0.08
1900-01-01 16:45:50.602,44.39,44.89,1.86,0.71,0.71,0.11,-0.5,-0.3,-0.9,58.56,25.02,-2.39,0.42,0.84,0.3,-1.23,1.27,0.04
1900-01-01 16:45:50.650,44.49,44.78,1.88,0.71,0.71,0.11,-0.65,-0.53,-1.15,58.43,25.17,-2.39,0.42,0.84,0.3,-1.15,1.24,-0.04
1900-01-01 16:45:50.744,44.61,44.72,1.87,0.71,0.71,0.11,-0.67,-0.05,-1.05,58.78,24.87,-2.4,0.42,0.85,0.3,-1.46,1.11,0.18
1900-01-01 16:45:50.840,44.56,44.69,1.87,0.71,0.71,0.11,-0.5,-0.41,-1.04,58.5,25.23,-2.39,0.42,0.84,0.3,-1.21,1.05,-0.02
1900-01-01 16:45:50.886,44.68,44.6,1.87,0.71,0.71,0.11,-0.67,-0.13,-1.04,58.6,24.94,-2.4,0.42,0.84,0.3,-1.55,1.08,0.21
1900-01-01 16:45:50.980,44.65,44.6,1.87,0.71,0.71,0.11,-0.54,-0.34,-1.07,58.43,25.17,-2.37,0.42,0.84,0.3,-1.33,1.22,-0.16
1900-01-01 16:45:51.075,44.51,44.76,1.86,0.71,0.71,0.11,-0.51,-0.17,-0.97,58.67,25.01,-2.41,0.42,0.84,0.3,-1.26,1.22,0.03
1900-01-01 16:45:51.122,44.49,44.74,1.87,0.71,0.71,0.12,-0.54,-0.42,-1.09,58.43,25.13,-2.41,0.42,0.84,0.3,-1.23,1.24,-0.12
1900-01-01 16:45:51.217,44.33,44.98,1.86,0.71,0.7,0.11,-0.42,-0.16,-1.02,58.66,25.0,-2.44,0.42,0.84,0.3,-1.08,1.61,0.03
1900-01-01 16:45:51.264,44.53,44.76,1.87,0.71,0.7,0.11,-0.31,-0.39,-1.04,58.89,24.97,-2.44,0.41,0.84,0.29,-0.84,1.34,-0.31
1900-01-01 16:45:51.359,44.63,44.66,1.87,0.71,0.71,0.11,-1.5,0.05,-1.46,58.82,25.12,-2.5,0.42,0.84,0.29,-0.76,1.73,0.23
1900-01-01 16:45:51.453,44.58,44.68,1.8,0.7,0.7,0.11,-1.56,0.21,-1.6,59.31,24.49,-2.47,0.41,0.84,0.29,0.71,2.44,0.17
1900-01-01 16:45:51.500,44.93,44.23,1.72,0.7,0.71,0.12,-0.99,-0.25,-1.91,59.11,24.96,-2.45,0.42,0.85,0.29,2.63,2.42,0.76
1900-01-01 16:45:51.594,45.17,44.01,1.59,0.71,0.72,0.12,-0.49,-0.45,-1.44,58.81,25.0,-2.35,0.42,0.85,0.3,3.64,-1.05,1.31
1900-01-01 16:45:51.641,44.16,44.99,1.53,0.72,0.71,0.12,0.66,-0.78,-0.93,59.42,25.88,-2.16,0.43,0.85,0.26,4.98,0.75,1.03
1900-01-01 16:45:51.735,44.67,44.71,1.54,0.71,0.71,0.1,0.57,-0.21,-0.73,60.36,25.76,-2.01,0.43,0.85,0.23,3.56,0.13,0.98
1900-01-01 16:45:51.828,44.97,44.42,1.59,0.7,0.71,0.1,2.34,0.44,-0.79,60.0,25.91,-1.87,0.43,0.84,0.24,5.11,3.89,-0.27
1900-01-01 16:45:51.875,45.22,44.34,1.63,0.71,0.72,0.09,9.8,-0.06,0.5,61.13,24.84,-1.92,0.41,0.85,0.23,18.12,7.93,-6.56
1900-01-01 16:45:51.968,44.96,44.59,1.86,0.72,0.72,0.09,12.51,-0.21,3.08,64.2,23.66,-2.93,0.41,0.91,0.17,21.66,9.12,-7.63
1900-01-01 16:45:52.063,44.6,45.17,2.49,0.71,0.7,0.06,3.71,-0.28,1.32,66.7,21.83,-4.1,0.37,0.91,0.13,4.88,5.2,-1.43
1900-01-01 16:45:52.110,43.8,46.04,2.85,0.72,0.69,0.05,0.21,0.08,-1.14,66.13,22.69,-4.32,0.38,0.9,0.12,-0.93,2.53,-0.68
1900-01-01 16:45:52.204,44.55,45.29,2.83,0.72,0.71,0.05,-0.05,0.05,-0.98,66.46,22.04,-4.43,0.38,0.92,0.14,-1.71,2.14,0.05
1900-01-01 16:45:52.252,44.27,45.58,2.84,0.72,0.7,0.05,0.18,0.24,-0.88,66.59,21.97,-4.43,0.37,0.9,0.13,-1.32,1.42,-0.47
1900-01-01 16:45:52.345,43.92,45.93,2.87,0.73,0.7,0.05,1.32,-0.1,-0.82,66.31,22.32,-4.52,0.38,0.91,0.13,-0.37,-0.1,-1.89
1900-01-01 16:45:52.440,44.21,45.61,2.9,0.73,0.72,0.06,0.88,0.35,-1.39,66.09,22.39,-4.81,0.38,0.91,0.14,0.61,0.37,-2.63
1900-01-01 16:45:52.488,46.0,43.81,2.85,0.73,0.76,0.06,-4.66,0.27,-2.06,67.99,20.22,-5.22,0.36,0.97,0.15,-8.55,-4.44,0.14
1900-01-01 16:45:52.582,47.42,42.02,2.69,0.73,0.81,0.11,-18.84,1.78,-1.14,67.83,20.45,-5.21,0.38,1.01,0.15,-42.4,-8.43,2.48
1900-01-01 16:45:52.627,42.03,46.97,2.68,0.73,0.67,0.13,-23.79,4.67,-4.24,63.56,20.79,-4.84,0.35,0.87,0.26,-45.42,8.06,0.0
1900-01-01 16:45:52.722,43.58,44.36,2.19,0.69,0.68,0.19,-26.53,10.15,-2.01,56.45,22.59,-4.84,0.35,0.76,0.36,-44.18,3.42,6.62
1900-01-01 16:45:52.817,42.87,43.25,2.04,0.68,0.68,0.26,-24.86,7.91,-9.73,49.27,24.56,-3.84,0.4,0.72,0.48,-39.53,-1.6,6.68
1900-01-01 16:45:52.866,42.48,42.01,0.71,0.68,0.68,0.31,-22.23,8.55,-11.51,43.65,24.9,-2.83,0.41,0.68,0.58,-31.87,-2.54,4.69
1900-01-01 16:45:52.959,43.48,40.3,-0.9,0.64,0.68,0.32,-17.65,12.15,-9.02,43.17,24.49,-2.11,0.39,0.65,0.57,-24.15,-1.74,2.98
1900-01-01 16:45:53.053,42.08,40.39,-2.13,0.63,0.65,0.35,-14.69,8.76,-9.08,41.49,24.24,-1.66,0.38,0.62,0.58,-19.73,-3.05,-0.57
1900-01-01 16:45:53.100,41.24,35.34,-3.37,0.55,0.63,0.46,-17.44,12.59,-12.47,35.02,28.36,-1.76,0.43,0.52,0.6,-22.41,-8.36,4.66
1900-01-01 16:45:53.193,42.12,31.84,-5.13,0.54,0.69,0.53,-17.5,12.73,-16.35,34.0,28.32,-1.05,0.48,0.56,0.68,-14.87,-10.18,9.62
1900-01-01 16:45:53.240,42.51,29.63,-7.5,0.52,0.71,0.57,-20.65,14.11,-13.79,29.27,31.42,0.43,0.54,0.5,0.72,-18.67,-5.88,11.24
1900-01-01 16:45:53.335,40.0,29.28,-9.47,0.48,0.63,0.58,-14.1,8.08,-9.13,30.03,32.69,2.15,0.52,0.48,0.66,-10.82,-4.47,5.28
1900-01-01 16:45:53.429,31.42,36.27,-10.71,0.58,0.51,0.61,-13.26,16.04,-3.6,29.16,36.82,2.95,0.6,0.49,0.63,0.38,-25.84,0.3
1900-01-01 16:45:53.477,32.64,23.1,-11.1,0.39,0.54,0.75,-22.71,16.05,7.15,21.79,43.29,2.99,0.7,0.38,0.64,2.39,-38.12,13.14
1900-01-01 16:45:53.569,31.86,19.52,-9.84,0.35,0.56,0.82,-19.07,12.6,22.12,22.09,44.56,5.0,0.72,0.39,0.62,-1.6,-15.87,25.95
1900-01-01 16:45:53.663,28.35,21.63,-6.28,0.42,0.54,0.91,-11.89,13.08,24.53,18.84,51.49,8.98,0.9,0.37,0.61,-4.27,6.27,28.97
1900-01-01 16:45:53.710,31.03,20.52,-2.37,0.39,0.57,0.87,-5.65,1.14,18.21,17.29,47.83,13.41,0.79,0.32,0.64,-12.15,22.15,34.66
1900-01-01 16:45:53.805,36.1,23.76,0.59,0.42,0.61,0.73,-3.66,-6.01,9.05,15.61,36.19,18.72,0.59,0.27,0.76,-10.4,38.64,7.36
1900-01-01 16:45:53.899,29.88,35.95,2.13,0.52,0.44,0.57,-0.48,-8.21,0.71,21.44,38.6,19.84,0.52,0.31,0.58,5.76,6.45,5.65
1900-01-01 16:45:53.945,25.43,33.08,2.39,0.48,0.38,0.63,-8.82,-3.46,-6.76,12.98,47.84,20.68,0.64,0.19,0.54,-8.37,-2.39,1.58
1900-01-01 16:45:54.040,27.16,29.24,1.52,0.46,0.43,0.7,-3.15,-4.66,-7.74,15.98,39.59,20.92,0.59,0.25,0.66,-7.4,4.13,-5.94
1900-01-01 16:45:54.087,28.03,27.03,0.49,0.47,0.49,0.78,-0.15,-0.36,-11.5,15.53,42.09,20.0,0.65,0.26,0.67,-8.48,5.45,-6.5
1900-01-01 16:45:54.181,26.72,26.08,-1.11,0.47,0.48,0.84,2.92,0.37,-14.08,11.91,40.1,19.0,0.69,0.22,0.79,-3.14,7.01,-7.8
1900-01-01 16:45:54.275,26.02,27.17,-3.1,0.49,0.47,0.84,4.4,-2.21,-9.08,13.4,39.52,17.8,0.67,0.25,0.78,-0.5,3.83,-5.96
1900-01-01 16:45:54.322,27.28,26.31,-4.33,0.47,0.48,0.81,0.85,-1.04,-7.02,14.09,39.94,16.88,0.65,0.25,0.74,-4.58,6.92,-4.76
1900-01-01 16:45:54.416,29.99,26.5,-5.25,0.44,0.49,0.73,3.76,-0.91,-6.5,16.27,37.91,16.14,0.58,0.27,0.7,0.22,5.5,-3.98
1900-01-01 16:45:54.464,30.34,26.33,-6.08,0.42,0.48,0.7,8.04,-5.59,-8.69,14.51,37.27,15.53,0.57,0.24,0.71,8.58,3.9,-6.71
1900-01-01 16:45:54.561,34.01,25.12,-7.25,0.42,0.56,0.71,7.95,-2.08,-5.86,20.14,32.61,14.49,0.52,0.33,0.75,2.05,3.33,-4.85
1900-01-01 16:45:54.655,35.23,22.65,-7.98,0.41,0.61,0.76,1.35,4.78,-4.51,19.16,33.1,13.75,0.55,0.33,0.78,-5.43,4.71,0.84
1900-01-01 16:45:54.701,33.11,21.97,-8.51,0.39,0.57,0.78,-4.56,7.58,-4.21,12.09,35.41,13.87,0.58,0.21,0.79,-6.84,2.3,3.71
1900-01-01 16:45:54.795,30.48,20.41,-8.99,0.35,0.51,0.8,-6.21,9.43,-10.39,10.17,40.69,14.42,0.63,0.17,0.71,-13.47,8.9,1.47
1900-01-01 16:45:54.889,29.34,22.26,-10.43,0.38,0.49,0.78,-8.42,7.56,-7.64,10.48,36.95,14.64,0.61,0.18,0.78,-12.11,4.48,4.71
1900-01-01 16:45:54.935,29.59,20.58,-11.44,0.33,0.47,0.75,-2.56,-0.15,-1.4,9.8,36.26,15.35,0.57,0.16,0.76,-2.13,-1.89,0.32
1900-01-01 16:45:55.030,28.45,21.69,-11.49,0.36,0.46,0.77,2.47,-1.86,3.4,12.2,38.15,15.39,0.57,0.19,0.7,5.32,1.48,0.36
1900-01-01 16:45:55.075,25.99,20.48,-10.82,0.37,0.47,0.89,-10.29,17.18,11.16,12.54,37.12,15.44,0.61,0.22,0.77,-4.14,5.44,16.39
1900-01-01 16:45:55.169,26.73,16.64,-8.94,0.31,0.48,0.91,-15.62,16.34,23.36,7.44,33.34,17.95,0.6,0.14,0.9,-2.12,-2.0,23.9
1900-01-01 16:45:55.264,30.15,20.34,-5.2,0.37,0.54,0.85,-1.78,7.91,36.96,12.21,36.59,21.61,0.63,0.22,0.82,6.28,-0.5,22.62
1900-01-01 16:45:55.310,33.12,23.12,0.61,0.4,0.56,0.75,14.92,1.96,27.46,13.39,36.34,25.06,0.55,0.22,0.72,10.32,12.41,7.34
1900-01-01 16:45:55.403,29.28,20.22,4.95,0.36,0.51,0.84,13.23,-3.76,13.86,5.43,32.99,26.17,0.56,0.1,0.85,1.62,20.66,-6.49
1900-01-01 16:45:55.498,30.36,25.26,7.22,0.41,0.49,0.72,-2.1,-8.21,7.02,12.2,32.7,25.17,0.51,0.2,0.76,0.78,-4.68,0.88
1900-01-01 16:45:55.545,28.57,27.24,8.45,0.44,0.46,0.72,-9.71,-8.34,1.89,13.83,34.32,25.3,0.52,0.22,0.72,-2.82,-9.58,-0.12
1900-01-01 16:45:55.639,22.92,28.81,8.9,0.46,0.37,0.75,-7.47,-6.18,-5.57,6.76,40.48,25.27,0.61,0.11,0.71,-0.79,-10.04,-1.77
1900-01-01 16:45:55.685,24.2,26.31,8.2,0.47,0.43,0.84,-3.08,-4.7,-11.24,7.94,36.77,24.99,0.62,0.14,0.81,-1.6,-4.35,-6.55
1900-01-01 16:45:55.779,20.78,25.5,6.64,0.46,0.38,0.88,-6.02,-1.31,-21.38,4.66,43.0,23.98,0.68,0.08,0.72,-5.39,-3.33,-6.2
1900-01-01 16:45:55.874,25.48,22.15,3.53,0.4,0.46,0.87,-6.11,2.2,-27.76,11.12,38.6,23.02,0.63,0.2,0.77,-9.56,4.81,-4.74
1900-01-01 16:45:55.920,29.39,22.13,-0.56,0.38,0.5,0.8,-3.56,5.89,-19.33,14.42,32.7,22.29,0.54,0.25,0.81,-7.14,10.19,0.27
1900-01-01 16:45:56.016,29.44,20.38,-3.36,0.35,0.5,0.81,-5.5,4.5,-17.24,9.81,36.44,22.32,0.58,0.17,0.77,-13.79,11.54,-6.53
1900-01-01 16:45:56.110,29.49,20.57,-5.85,0.35,0.49,0.8,-1.98,5.48,-19.59,9.93,36.96,21.31,0.57,0.16,0.74,-13.12,8.5,-1.96
1900-01-01 16:45:56.157,25.33,19.28,-8.69,0.31,0.41,0.8,-2.07,7.48,-21.6,6.12,36.33,21.0,0.55,0.1,0.74,-14.02,9.24,1.26
1900-01-01 16:45:56.251,26.67,13.13,-11.83,0.21,0.42,0.81,-6.79,7.53,-17.54,1.27,32.45,21.18,0.5,0.02,0.78,-16.89,8.4,-1.66
1900-01-01 16:45:56.298,25.56,10.44,-14.37,0.18,0.44,0.89,-2.97,5.49,-13.3,-0.91,31.27,20.92,0.53,-0.02,0.87,-12.05,6.12,-2.39
1900-01-01 16:45:56.392,26.01,8.08,-16.26,0.14,0.44,0.89,0.82,-0.13,-9.02,-1.27,28.48,20.54,0.48,-0.02,0.88,-3.15,5.13,-6.08
1900-01-01 16:45:56.485,27.6,9.43,-17.48,0.16,0.46,0.87,2.89,-2.31,-3.42,1.25,29.18,19.6,0.48,0.02,0.86,1.32,2.06,-4.52
1900-01-01 16:45:56.532,27.91,12.11,-17.84,0.21,0.48,0.88,5.95,-4.42,-4.28,2.59,31.94,18.91,0.54,0.05,0.87,6.72,1.51,-7.24
1900-01-01 16:45:56.625,31.93,12.29,-18.34,0.22,0.54,0.83,9.79,-6.79,-1.28,9.63,29.97,17.8,0.49,0.17,0.84,12.24,2.89,-7.18
1900-01-01 16:45:56.719,32.54,13.24,-18.37,0.23,0.54,0.81,1.4,-2.4,5.35,9.22,29.35,16.69,0.48,0.16,0.83,5.21,-5.0,2.34
1900-01-01 16:45:56.766,32.53,11.99,-17.4,0.21,0.53,0.81,-3.91,2.23,3.96,4.52,30.98,17.04,0.49,0.08,0.82,-2.42,-4.23,-3.01
1900-01-01 16:45:56.860,34.87,10.21,-16.64,0.18,0.56,0.79,2.12,3.48,-2.95,11.52,28.06,16.57,0.45,0.19,0.83,4.47,-9.41,-6.46
1900-01-01 16:45:56.954,33.04,11.24,-16.93,0.2,0.57,0.85,-3.34,4.97,-6.34,9.15,34.63,15.57,0.58,0.16,0.82,-4.63,-10.18,-2.98
1900-01-01 16:45:57.001,32.46,8.51,-17.74,0.15,0.54,0.84,-0.62,0.04,-7.29,6.58,33.02,15.11,0.54,0.11,0.82,-4.31,-5.6,-6.7
1900-01-01 16:45:57.095,31.97,8.86,-18.7,0.15,0.52,0.82,5.43,-3.14,-9.67,9.6,34.98,14.07,0.55,0.16,0.76,0.69,-3.26,-8.29
1900-01-01 16:45:57.142,32.49,10.19,-20.02,0.18,0.53,0.82,5.63,-2.9,-10.18,7.9,36.64,12.8,0.58,0.13,0.77,2.93,-2.02,-3.58
1900-01-01 16:45:57.237,36.13,9.67,-21.42,0.17,0.58,0.78,11.13,-3.15,-10.85,12.23,34.51,12.24,0.55,0.21,0.77,6.37,-4.19,-6.19
1900-01-01 16:45:57.329,37.73,6.17,-22.92,0.1,0.59,0.76,16.08,-5.02,-7.34,12.68,34.84,11.29,0.56,0.21,0.77,7.97,-2.84,-9.45
1900-01-01 16:45:57.376,38.36,6.75,-23.89,0.11,0.59,0.74,9.53,-1.67,-4.35,13.52,34.02,9.83,0.52,0.22,0.74,2.56,0.56,-4.31
1900-01-01 16:45:57.469,40.6,7.99,-24.39,0.14,0.68,0.78,-0.55,6.71,-6.92,18.61,36.53,9.17,0.59,0.32,0.73,-4.44,2.08,3.53
1900-01-01 16:45:57.563,37.36,5.94,-25.29,0.11,0.63,0.82,-9.6,5.5,-9.18,9.27,38.26,9.7,0.66,0.17,0.82,-10.11,1.03,7.58
1900-01-01 16:45:57.610,37.85,5.28,-26.52,0.1,0.66,0.84,-0.09,-0.95,-6.95,10.13,39.07,10.84,0.68,0.19,0.82,-5.0,4.31,2.58
1900-01-01 16:45:57.703,41.24,6.35,-27.43,0.11,0.67,0.75,-2.88,-1.89,-1.27,13.39,36.66,11.23,0.59,0.23,0.76,-6.24,3.82,-0.04
1900-01-01 16:45:57.750,38.82,5.38,-27.46,0.09,0.58,0.72,1.24,-1.69,-1.0,10.34,35.05,11.21,0.53,0.17,0.73,-0.8,3.37,-3.76
1900-01-01 16:45:57.844,39.28,6.27,-27.46,0.1,0.6,0.73,0.59,0.13,-2.44,12.38,35.34,10.63,0.54,0.2,0.74,1.15,2.47,-1.32
1900-01-01 16:45:57.938,39.57,5.33,-27.67,0.09,0.64,0.76,0.09,1.26,-3.58,11.8,36.31,10.42,0.6,0.21,0.79,0.54,0.63,-1.09
1900-01-01 16:45:57.985,39.86,4.12,-28.06,0.07,0.63,0.75,5.63,-0.21,-1.49,11.94,35.15,10.24,0.56,0.2,0.77,4.02,-0.44,-3.39
1900-01-01 16:45:58.079,39.97,3.66,-28.12,0.06,0.64,0.76,5.1,-0.74,-0.78,11.96,36.33,9.72,0.59,0.2,0.77,3.82,0.95,-2.41
1900-01-01 16:45:58.172,42.4,4.31,-28.08,0.08,0.68,0.74,5.79,-1.58,-0.92,14.37,35.09,9.34,0.57,0.25,0.78,3.03,1.05,-3.08
1900-01-01 16:45:58.219,42.72,5.27,-28.07,0.09,0.68,0.73,5.66,-1.63,-0.13,15.17,34.85,8.87,0.56,0.26,0.77,2.37,1.89,-3.26
1900-01-01 16:45:58.312,43.36,5.48,-27.93,0.1,0.69,0.72,5.03,-1.64,-0.73,15.2,35.67,8.36,0.58,0.26,0.77,2.04,2.05,-4.14
1900-01-01 16:45:58.360,44.71,5.23,-27.88,0.09,0.7,0.7,2.36,-0.75,-0.92,16.48,34.24,7.72,0.55,0.28,0.76,0.09,1.85,-2.35
1900-01-01 16:45:58.454,44.48,5.21,-27.86,0.09,0.69,0.69,1.15,-0.47,-1.12,16.79,34.45,7.36,0.55,0.28,0.74,-0.17,0.91,-1.44
1900-01-01 16:45:58.548,45.14,5.1,-27.87,0.09,0.69,0.68,0.02,-0.14,-1.34,17.02,34.02,7.13,0.54,0.28,0.75,-0.1,1.16,-0.76
1900-01-01 16:45:58.596,45.42,5.46,-27.92,0.09,0.7,0.69,1.03,-0.05,-1.61,18.07,34.59,7.0,0.56,0.31,0.75,0.85,1.55,-1.97
1900-01-01 16:45:58.689,44.65,4.99,-28.01,0.09,0.7,0.71,-0.6,0.11,-1.4,16.13,35.09,6.7,0.57,0.28,0.77,-0.21,1.4,-0.82
1900-01-01 16:45:58.736,45.02,5.38,-28.06,0.09,0.72,0.71,0.53,-0.27,-1.3,17.51,34.6,6.56,0.57,0.3,0.76,-0.85,2.47,-0.69
1900-01-01 16:45:58.831,45.59,4.8,-28.1,0.08,0.7,0.69,-0.76,0.01,-1.28,18.02,33.8,6.45,0.54,0.3,0.75,-1.41,2.06,-0.76
1900-01-01 16:45:58.926,45.69,4.4,-28.14,0.07,0.69,0.67,-0.42,0.24,-1.5,17.07,32.78,6.32,0.52,0.28,0.76,-0.92,1.98,-0.73
1900-01-01 16:45:58.973,45.33,4.67,-28.21,0.08,0.71,0.69,-0.4,0.18,-1.22,17.09,33.66,6.2,0.54,0.29,0.76,-0.97,2.53,0.1
1900-01-01 16:45:59.066,45.85,4.75,-28.23,0.08,0.72,0.69,0.09,0.15,-1.37,18.01,33.65,6.21,0.55,0.31,0.76,-0.24,1.32,-0.53
1900-01-01 16:45:59.160,45.29,4.08,-28.29,0.07,0.7,0.69,0.43,-0.08,-1.44,17.48,33.43,6.12,0.54,0.29,0.76,-0.24,1.73,-1.16
1900-01-01 16:45:59.207,45.28,4.56,-28.35,0.08,0.7,0.69,-0.71,-0.11,-1.72,17.61,33.49,5.94,0.55,0.3,0.77,-2.45,1.49,0.95
1900-01-01 16:45:59.301,45.71,4.91,-28.45,0.09,0.72,0.69,0.32,-0.63,-1.53,17.89,33.71,6.07,0.55,0.3,0.76,-1.65,1.15,0.27
1900-01-01 16:45:59.348,46.28,4.99,-28.53,0.09,0.72,0.68,-0.29,-0.18,-1.52,18.38,33.68,6.1,0.55,0.31,0.76,-1.47,1.27,-0.07
1900-01-01 16:45:59.442,45.56,4.12,-28.6,0.07,0.71,0.7,-0.37,-0.21,-1.04,17.04,34.0,6.08,0.56,0.29,0.77,-0.51,2.0,-0.47
1900-01-01 16:45:59.536,46.44,4.21,-28.6,0.07,0.71,0.67,-0.44,-0.64,-0.72,17.68,33.1,6.01,0.53,0.29,0.76,-0.79,2.14,-0.86
1900-01-01 16:45:59.583,45.63,4.64,-28.55,0.08,0.7,0.68,0.87,-0.31,-1.03,18.2,33.23,5.86,0.53,0.3,0.75,-0.25,0.69,-1.02
1900-01-01 16:45:59.677,45.41,4.31,-28.55,0.07,0.7,0.68,0.98,-0.4,-1.08,16.81,33.86,5.7,0.54,0.28,0.76,1.08,1.8,-0.5
1900-01-01 16:45:59.769,47.04,4.43,-28.55,0.08,0.73,0.68,3.53,-1.0,-1.73,19.85,33.38,5.62,0.54,0.34,0.75,2.69,2.06,0.55
1900-01-01 16:45:59.817,47.86,4.67,-28.66,0.08,0.74,0.67,-0.44,-0.09,-1.68,19.66,33.09,5.69,0.54,0.33,0.76,-1.21,0.56,0.05
1900-01-01 16:45:59.911,47.2,4.26,-28.76,0.07,0.74,0.68,-0.46,-0.39,-1.22,19.24,33.48,5.69,0.55,0.33,0.76,-2.22,0.98,-0.3
1900-01-01 16:45:59.958,47.51,4.43,-28.78,0.08,0.74,0.67,-0.69,-0.5,-1.28,19.12,33.25,5.64,0.55,0.33,0.77,-2.61,1.42,-0.53
1900-01-01 16:46:00.052,47.29,4.18,-28.82,0.07,0.71,0.65,-0.56,-0.29,-0.91,18.81,32.91,5.55,0.52,0.31,0.74,-1.66,0.89,-0.63
1900-01-01 16:46:00.145,47.09,3.95,-28.8,0.07,0.72,0.66,-0.6,-0.09,-1.37,18.65,33.09,5.44,0.53,0.31,0.75,-1.14,0.58,-0.49
1900-01-01 16:46:00.193,47.41,4.07,-28.85,0.07,0.74,0.68,0.63,-0.41,-0.95,19.59,32.6,5.36,0.54,0.34,0.78,-1.18,1.58,-0.32
1900-01-01 16:46:00.286,46.99,4.14,-28.84,0.07,0.73,0.68,-0.08,-0.53,-0.67,18.62,33.39,5.3,0.54,0.31,0.76,-2.05,1.94,-0.52
1900-01-01 16:46:00.380,47.37,4.37,-28.78,0.07,0.72,0.66,-0.64,-0.37,-0.95,19.05,33.14,5.21,0.53,0.32,0.75,-1.87,1.93,0.08
1900-01-01 16:46:00.426,47.95,4.26,-28.77,0.07,0.73,0.65,-0.4,-0.21,-1.05,19.12,32.57,5.22,0.52,0.32,0.75,-1.21,1.41,-0.34
1900-01-01 16:46:00.521,47.33,4.11,-28.77,0.07,0.73,0.67,0.34,-0.34,-0.84,19.3,32.72,5.16,0.53,0.32,0.76,-0.98,1.4,-0.3
1900-01-01 16:46:00.567,47.54,4.26,-28.74,0.07,0.73,0.66,0.02,-0.31,-0.77,19.05,32.86,5.1,0.53,0.32,0.76,-0.96,1.95,-0.57
1900-01-01 16:46:00.662,47.62,3.99,-28.7,0.07,0.72,0.66,0.02,0.03,-1.03,19.15,32.31,5.01,0.52,0.32,0.76,-0.58,1.63,-0.76
1900-01-01 16:46:00.756,48.97,3.68,-28.7,0.06,0.73,0.63,2.0,0.17,-0.82,20.01,31.83,4.88,0.51,0.33,0.75,1.04,2.66,-3.96
1900-01-01 16:46:00.803,48.16,4.89,-28.66,0.08,0.74,0.66,2.29,0.47,-0.92,19.64,32.75,4.27,0.54,0.33,0.77,0.05,2.56,-3.51
1900-01-01 16:46:00.895,47.41,4.6,-28.65,0.08,0.73,0.67,0.04,0.44,-1.03,19.75,32.72,3.73,0.53,0.33,0.76,-0.5,1.92,-1.24
1900-01-01 16:46:00.987,48.59,4.11,-28.64,0.07,0.73,0.64,-0.31,0.35,-1.02,20.0,31.61,3.53,0.51,0.33,0.76,0.14,2.15,-1.0
1900-01-01 16:46:01.035,48.69,3.57,-28.64,0.06,0.74,0.65,-1.0,0.73,-1.44,19.72,32.12,3.37,0.52,0.33,0.76,-0.34,2.05,-0.95
1900-01-01 16:46:01.130,47.84,3.72,-28.7,0.07,0.75,0.67,1.5,0.03,-0.79,20.28,31.44,3.22,0.52,0.35,0.78,2.5,3.96,-2.3
1900-01-01 16:46:01.178,49.18,3.73,-28.66,0.07,0.76,0.65,2.05,-1.08,-0.12,22.9,30.04,2.86,0.5,0.39,0.77,2.8,3.31,-2.83
1900-01-01 16:46:01.272,49.85,4.17,-28.52,0.07,0.75,0.63,0.08,-0.52,-0.76,23.0,29.7,2.42,0.48,0.38,0.75,-0.84,1.77,-0.83
1900-01-01 16:46:01.364,48.93,4.22,-28.48,0.07,0.75,0.65,-0.66,-0.12,-0.82,21.6,30.74,2.29,0.5,0.36,0.76,-0.53,1.44,-0.81
1900-01-01 16:46:01.413,49.09,3.97,-28.45,0.07,0.75,0.64,-1.29,0.44,-0.73,22.33,29.85,2.16,0.49,0.37,0.77,-1.03,1.77,0.01
1900-01-01 16:46:01.507,49.58,3.99,-28.4,0.07,0.75,0.64,-0.37,-0.2,-1.1,22.88,29.88,2.15,0.49,0.38,0.76,-0.82,1.49,-0.66
1900-01-01 16:46:01.602,49.0,4.06,-28.41,0.07,0.75,0.65,0.15,-0.37,-0.71,22.6,30.26,2.04,0.49,0.38,0.76,-0.6,1.41,-0.63
1900-01-01 16:46:01.647,49.55,4.42,-28.36,0.08,0.75,0.64,-0.98,-0.21,-0.99,23.37,29.69,1.93,0.48,0.39,0.76,-2.08,0.82,0.38
1900-01-01 16:46:01.742,49.32,3.98,-28.35,0.07,0.76,0.65,-2.82,0.55,-1.25,22.63,29.79,1.98,0.49,0.38,0.77,-3.39,0.72,0.53
1900-01-01 16:46:01.789,48.85,3.69,-28.38,0.06,0.73,0.64,-0.33,-0.13,-0.61,21.96,30.18,2.06,0.49,0.36,0.75,-1.06,1.2,-0.73
1900-01-01 16:46:01.883,48.83,3.67,-28.32,0.06,0.73,0.64,-0.49,-0.09,-1.04,21.72,30.27,1.94,0.49,0.36,0.75,-1.09,0.85,-0.31
1900-01-01 16:46:01.976,48.92,3.93,-28.32,0.07,0.75,0.65,-0.8,-0.05,-1.18,22.17,30.43,1.88,0.5,0.37,0.76,-1.22,0.68,0.24
1900-01-01 16:46:02.024,49.17,3.88,-28.34,0.07,0.75,0.64,-0.36,-0.14,-1.32,22.14,30.31,1.91,0.5,0.37,0.76,-0.88,0.93,-0.4
1900-01-01 16:46:02.119,49.77,3.85,-28.38,0.07,0.75,0.63,-1.85,0.67,-1.22,22.95,30.07,1.84,0.48,0.38,0.75,-3.49,0.23,-1.08
1900-01-01 16:46:02.165,48.8,3.93,-28.41,0.07,0.74,0.64,-0.77,0.65,-1.53,22.39,30.48,1.67,0.49,0.37,0.75,-2.66,0.1,-1.91
1900-01-01 16:46:02.260,48.34,3.49,-28.49,0.06,0.75,0.66,-0.45,0.18,-1.28,21.98,30.55,1.37,0.51,0.37,0.77,-1.22,1.24,-0.88
1900-01-01 16:46:02.354,48.56,3.2,-28.52,0.06,0.75,0.66,-0.73,-0.31,-0.93,21.76,30.89,1.22,0.5,0.36,0.76,-1.57,1.08,-0.17
1900-01-01 16:46:02.400,49.01,3.64,-28.51,0.06,0.74,0.64,-0.58,-0.15,-0.94,22.59,30.24,1.19,0.49,0.37,0.75,-1.48,1.02,0.6
1900-01-01 16:46:02.494,48.99,3.39,-28.49,0.06,0.74,0.64,-0.24,-0.27,-0.97,22.41,30.23,1.27,0.49,0.37,0.76,-0.87,1.31,-0.22
1900-01-01 16:46:02.588,49.26,3.47,-28.48,0.06,0.75,0.64,-0.11,-0.16,-1.02,22.9,29.83,1.23,0.48,0.38,0.76,-0.89,1.18,-0.58
1900-01-01 16:46:02.635,48.83,3.4,-28.48,0.06,0.75,0.65,-0.21,0.26,-1.22,22.14,30.37,1.13,0.5,0.37,0.76,-1.2,0.58,-1.27
1900-01-01 16:46:02.729,48.65,3.32,-28.51,0.06,0.74,0.65,-0.13,-0.16,-1.11,22.48,30.32,0.93,0.5,0.38,0.76,-0.72,0.89,-0.57
1900-01-01 16:46:02.775,48.84,3.19,-28.52,0.06,0.75,0.65,-1.39,-0.03,-1.18,22.5,30.76,0.84,0.5,0.38,0.76,-1.84,0.85,0.56
1900-01-01 16:46:02.869,49.53,3.86,-28.54,0.07,0.75,0.64,-0.02,-0.53,-1.28,23.34,30.04,0.91,0.5,0.39,0.76,-1.08,1.36,-0.48
1900-01-01 16:46:02.963,47.93,2.77,-28.58,0.05,0.72,0.64,-1.15,-0.31,-0.27,21.2,30.53,0.83,0.48,0.34,0.74,-0.33,1.21,-1.24
1900-01-01 16:46:03.010,49.95,3.16,-28.46,0.05,0.73,0.61,2.58,0.33,-0.02,22.13,29.28,0.63,0.46,0.36,0.74,5.02,1.92,-4.45
1900-01-01 16:46:03.104,51.77,4.81,-28.3,0.08,0.78,0.61,1.89,1.68,4.98,26.97,28.2,-0.05,0.46,0.44,0.73,8.84,-6.24,-3.17
1900-01-01 16:46:03.198,48.46,3.84,-27.38,0.07,0.77,0.68,2.8,1.69,-0.25,25.7,30.21,-0.54,0.51,0.44,0.76,2.26,-1.6,2.01
1900-01-01 16:46:03.244,50.22,3.17,-27.26,0.05,0.76,0.63,2.27,0.21,-0.95,26.97,31.88,-0.24,0.52,0.45,0.71,2.31,2.37,0.02
1900-01-01 16:46:03.338,51.87,4.39,-27.25,0.07,0.77,0.6,-0.95,0.37,0.28,28.29,29.87,-0.25,0.48,0.45,0.7,2.39,0.53,1.08
1900-01-01 16:46:03.384,49.64,5.25,-27.05,0.09,0.75,0.63,-1.66,1.56,-0.18,28.45,30.13,-0.09,0.49,0.47,0.71,4.32,-1.76,8.14
1900-01-01 16:46:03.477,51.45,3.24,-26.92,0.06,0.78,0.62,3.56,-0.19,-0.57,26.0,35.53,1.14,0.56,0.42,0.66,6.02,0.27,-0.89
1900-01-01 16:46:03.571,49.41,1.51,-26.85,0.03,0.76,0.65,4.12,-1.41,-1.46,24.74,31.4,0.99,0.52,0.42,0.75,2.95,0.89,0.26
1900-01-01 16:46:03.618,50.56,2.8,-26.91,0.05,0.74,0.61,9.24,-5.44,-0.66,25.06,31.88,1.02,0.52,0.41,0.72,5.49,-3.18,-4.44
1900-01-01 16:46:03.712,57.47,2.26,-26.85,0.04,0.76,0.48,34.56,-14.41,4.3,30.51,29.66,0.34,0.47,0.48,0.67,24.82,3.92,-24.07
1900-01-01 16:46:03.806,61.88,8.27,-26.04,0.16,0.95,0.49,33.57,-16.77,12.05,39.25,29.07,-3.36,0.52,0.68,0.65,15.36,5.4,-19.66
1900-01-01 16:46:03.853,62.38,11.2,-24.02,0.19,0.88,0.42,13.45,-10.79,16.43,37.97,22.98,-6.39,0.39,0.61,0.68,8.98,4.12,-0.83
1900-01-01 16:46:03.947,65.33,15.62,-21.34,0.26,0.87,0.3,11.62,-2.19,17.98,46.54,20.6,-6.53,0.33,0.69,0.56,10.5,-0.26,-5.43
1900-01-01 16:46:03.997,66.9,14.59,-18.41,0.23,0.85,0.28,-9.09,-7.18,16.59,37.25,28.86,-7.37,0.45,0.56,0.59,4.22,2.53,1.09
1900-01-01 16:46:04.089,58.11,17.12,-15.72,0.3,0.88,0.45,10.99,-11.33,15.63,41.06,35.92,-7.21,0.54,0.6,0.44,7.03,40.1,0.82
1900-01-01 16:46:04.183,63.8,19.76,-13.16,0.34,0.9,0.28,9.42,-7.16,4.21,44.1,20.93,-7.09,0.34,0.66,0.59,2.59,18.39,-1.95
1900-01-01 16:46:04.230,64.46,22.18,-12.36,0.36,0.86,0.2,7.24,-7.18,1.07,43.83,15.7,-7.4,0.26,0.66,0.64,-0.57,11.95,-2.65
1900-01-01 16:46:04.326,59.3,25.93,-12.04,0.44,0.86,0.26,0.75,-4.91,-1.67,47.15,23.49,-7.81,0.38,0.7,0.53,-1.82,8.08,-1.87
1900-01-01 16:46:04.419,62.19,24.01,-12.14,0.44,0.95,0.24,0.98,-2.69,-3.34,44.12,18.85,-8.11,0.34,0.74,0.68,3.28,3.22,-4.52
1900-01-01 16:46:04.467,64.28,23.19,-12.49,0.4,0.91,0.18,5.68,-3.91,3.19,49.4,13.93,-8.81,0.24,0.76,0.61,8.63,7.55,-3.55
1900-01-01 16:46:04.561,63.27,23.17,-11.84,0.37,0.84,0.2,8.99,-3.47,5.07,45.25,19.14,-9.36,0.29,0.62,0.54,22.21,7.92,-8.53
1900-01-01 16:46:04.608,61.41,25.03,-10.91,0.41,0.86,0.22,-4.45,0.91,1.21,51.12,16.01,-10.67,0.26,0.72,0.52,-6.72,3.88,-0.1
1900-01-01 16:46:04.702,61.57,25.37,-10.57,0.43,0.89,0.21,-3.06,1.6,-2.84,51.09,15.59,-10.7,0.26,0.76,0.56,-5.72,6.47,-1.82
1900-01-01 16:46:04.797,63.62,23.81,-10.84,0.39,0.88,0.18,-5.4,2.34,-2.6,49.05,11.39,-10.98,0.19,0.72,0.6,-8.37,4.61,0.69
1900-01-01 16:46:04.844,62.96,24.82,-11.08,0.42,0.89,0.17,-0.38,0.58,-2.69,52.63,13.56,-10.89,0.23,0.77,0.54,-3.21,2.66,-1.67
1900-01-01 16:46:04.939,63.57,22.73,-11.34,0.39,0.9,0.22,0.49,1.27,-1.85,48.22,11.48,-11.15,0.2,0.75,0.64,-1.16,5.02,0.55
1900-01-01 16:46:05.034,62.79,22.46,-11.46,0.38,0.89,0.25,0.41,-0.44,0.37,47.38,12.87,-11.08,0.22,0.72,0.63,0.12,1.9,0.6
1900-01-01 16:46:05.081,62.4,23.22,-11.25,0.39,0.88,0.24,-1.86,-1.34,0.37,47.98,14.11,-10.99,0.23,0.72,0.6,-0.67,-2.06,0.08
1900-01-01 16:46:05.175,61.24,25.21,-11.03,0.44,0.9,0.23,-1.61,-0.89,0.11,49.61,14.62,-10.99,0.25,0.76,0.59,-0.24,-1.93,0.03
1900-01-01 16:46:05.223,62.16,24.65,-10.86,0.44,0.93,0.22,-1.7,-1.18,0.87,50.84,13.43,-10.99,0.24,0.81,0.61,0.18,-5.26,1.2
1900-01-01 16:46:05.318,62.53,24.21,-10.56,0.4,0.88,0.21,-0.75,-1.13,4.11,49.32,14.19,-10.82,0.24,0.73,0.58,2.78,-5.6,3.37
1900-01-01 16:46:05.412,62.08,24.6,-9.77,0.39,0.82,0.2,0.53,-1.4,3.79,50.89,15.8,-10.31,0.24,0.68,0.5,2.78,-2.6,2.37
1900-01-01 16:46:05.458,61.87,25.15,-9.04,0.39,0.81,0.19,1.3,-0.51,-1.28,50.71,16.67,-9.96,0.25,0.68,0.49,1.26,2.45,-1.44
1900-01-01 16:46:05.553,60.77,26.48,-9.07,0.43,0.84,0.19,2.42,0.88,-5.87,52.38,15.31,-10.19,0.25,0.75,0.52,2.11,2.02,-4.86
1900-01-01 16:46:05.600,61.9,24.16,-9.81,0.42,0.91,0.24,-3.03,3.02,-6.89,50.29,16.23,-10.94,0.28,0.77,0.58,-7.15,7.17,-0.86
1900-01-01 16:46:05.694,62.66,23.7,-10.71,0.42,0.92,0.23,-2.56,1.24,-4.31,50.09,14.07,-11.08,0.25,0.79,0.61,-5.71,3.37,-1.4
1900-01-01 16:46:05.789,62.53,23.91,-11.21,0.41,0.9,0.22,-2.34,1.0,-1.44,49.92,14.43,-11.3,0.25,0.77,0.6,-2.87,0.43,0.26
1900-01-01 16:46:05.835,62.14,24.13,-11.28,0.4,0.87,0.22,-0.46,0.76,-0.58,51.1,14.84,-11.27,0.24,0.74,0.55,0.17,2.89,0.24
1900-01-01 16:46:05.930,62.57,23.06,-11.21,0.38,0.86,0.23,-2.63,1.44,-1.6,48.72,15.0,-11.24,0.24,0.7,0.57,-3.18,2.17,0.72
1900-01-01 16:46:06.023,61.57,23.73,-11.29,0.4,0.86,0.25,-0.83,0.74,-2.53,48.42,15.25,-11.14,0.25,0.72,0.59,-3.14,3.34,-0.67
1900-01-01 16:46:06.070,62.68,23.16,-11.52,0.4,0.91,0.24,0.63,1.2,-1.4,50.53,13.46,-11.25,0.24,0.78,0.6,-0.66,3.5,0.16
1900-01-01 16:46:06.167,64.23,21.61,-11.58,0.38,0.92,0.24,-0.73,2.2,0.08,50.17,12.7,-11.23,0.22,0.77,0.6,-0.56,2.5,1.98
1900-01-01 16:46:06.259,64.08,21.3,-11.41,0.37,0.9,0.24,-0.85,1.4,0.72,48.29,13.37,-10.94,0.23,0.73,0.61,-0.59,-0.38,2.4
1900-01-01 16:46:06.306,61.75,23.42,-11.14,0.39,0.86,0.25,-1.34,0.21,0.9,48.09,15.65,-10.58,0.26,0.7,0.58,-0.61,-2.69,2.02
1900-01-01 16:46:06.400,60.67,24.82,-10.84,0.41,0.85,0.25,-1.34,0.23,-1.34,49.78,16.93,-10.28,0.28,0.73,0.55,0.06,-2.03,-0.85
1900-01-01 16:46:06.447,61.23,23.21,-10.89,0.41,0.9,0.28,-3.24,0.43,-1.14,50.2,16.28,-10.42,0.28,0.78,0.58,-3.2,0.36,0.9
1900-01-01 16:46:06.541,62.65,22.08,-10.91,0.38,0.89,0.27,-5.24,1.74,0.95,46.75,14.43,-10.29,0.24,0.72,0.63,-5.78,2.18,5.28
1900-01-01 16:46:06.636,62.52,22.4,-10.6,0.37,0.85,0.25,-2.28,-0.8,1.41,47.33,15.22,-9.49,0.24,0.69,0.58,-2.56,5.45,1.47
1900-01-01 16:46:06.683,61.08,24.64,-10.23,0.39,0.83,0.23,0.55,-1.67,1.28,49.47,15.69,-9.27,0.25,0.7,0.54,0.34,-0.26,-0.45
1900-01-01 16:46:06.776,58.51,26.78,-9.88,0.44,0.82,0.25,0.79,0.17,-0.69,49.68,18.11,-9.35,0.29,0.71,0.53,-0.12,3.08,-0.01
1900-01-01 16:46:06.824,60.33,24.48,-9.82,0.41,0.87,0.27,0.04,1.34,-1.86,48.23,16.45,-9.36,0.27,0.72,0.58,-0.56,2.98,-0.4
1900-01-01 16:46:06.919,61.8,22.52,-9.95,0.39,0.89,0.28,-1.12,2.63,-1.97,47.17,14.95,-9.43,0.26,0.73,0.62,-2.71,2.73,1.71
1900-01-01 16:46:07.019,60.57,23.15,-10.09,0.39,0.85,0.29,0.18,-0.07,-1.76,46.02,15.88,-9.18,0.26,0.69,0.61,-1.05,2.43,-0.82
1900-01-01 16:46:07.060,61.65,22.64,-10.2,0.37,0.85,0.27,0.69,-2.21,-1.77,47.62,16.08,-9.31,0.26,0.69,0.57,-0.42,1.9,-2.52
1900-01-01 16:46:07.154,60.59,24.72,-10.31,0.41,0.85,0.25,0.87,-2.69,-3.31,49.48,16.5,-9.7,0.27,0.72,0.55,-1.29,2.79,-4.18
1900-01-01 16:46:07.248,61.22,24.31,-10.66,0.41,0.88,0.25,2.59,-3.25,-1.56,49.08,13.91,-10.35,0.24,0.77,0.62,1.98,1.61,-3.24
1900-01-01 16:46:07.295,62.79,22.76,-10.75,0.42,0.96,0.26,0.67,-2.34,-1.22,51.19,13.89,-10.86,0.25,0.81,0.6,1.05,-1.75,-2.24
1900-01-01 16:46:07.387,66.16,19.53,-10.77,0.34,0.94,0.23,0.48,-1.66,-1.2,49.59,8.58,-11.21,0.16,0.8,0.66,2.15,-0.28,-0.11
1900-01-01 16:46:07.482,63.35,22.19,-10.8,0.33,0.79,0.21,1.36,-2.11,7.32,50.47,14.63,-11.23,0.21,0.64,0.48,6.31,-5.42,5.01
1900-01-01 16:46:07.529,58.01,27.89,-9.52,0.42,0.77,0.22,0.28,0.15,-1.73,51.33,20.25,-10.48,0.29,0.66,0.44,0.03,-0.36,1.91
1900-01-01 16:46:07.623,62.0,25.19,-9.63,0.46,0.95,0.21,-27.79,7.22,-11.08,55.76,14.08,-10.19,0.26,0.89,0.55,-42.17,-19.24,21.62
1900-01-01 16:46:07.670,60.23,22.74,-11.19,0.42,0.95,0.34,-7.11,7.76,1.61,42.13,22.22,-6.85,0.4,0.72,0.68,-8.77,6.74,6.56
1900-01-01 16:46:07.763,58.08,21.19,-10.78,0.37,0.87,0.39,-0.31,2.3,1.27,37.47,21.28,-5.86,0.37,0.62,0.71,1.44,4.5,2.02
1900-01-01 16:46:07.857,59.7,21.89,-10.43,0.35,0.82,0.32,1.63,-2.14,2.33,42.14,21.17,-5.56,0.33,0.61,0.59,3.82,-1.15,-1.24
1900-01-01 16:46:07.903,59.19,24.17,-9.92,0.39,0.81,0.29,2.49,-2.82,-0.98,45.55,21.71,-5.76,0.33,0.64,0.54,0.69,0.66,-4.18
1900-01-01 16:46:07.997,58.95,23.83,-9.91,0.4,0.85,0.32,1.44,-1.1,-4.61,44.47,20.28,-6.41,0.34,0.68,0.6,-1.84,6.52,-5.46
1900-01-01 16:46:08.090,61.06,22.02,-10.45,0.38,0.88,0.31,0.25,-0.81,-3.6,45.08,17.51,-7.25,0.3,0.7,0.64,-1.47,4.4,-2.91
1900-01-01 16:46:08.138,61.23,22.32,-10.85,0.39,0.89,0.3,0.66,-0.83,-2.37,45.92,18.05,-7.7,0.31,0.71,0.62,-0.92,2.34,-1.92
1900-01-01 16:46:08.231,61.5,22.45,-11.05,0.39,0.9,0.29,0.71,-0.11,-1.03,46.13,16.7,-8.0,0.29,0.73,0.64,0.32,2.35,-0.31
1900-01-01 16:46:08.278,61.86,21.75,-11.05,0.36,0.87,0.29,0.93,-1.06,1.8,46.15,17.25,-8.06,0.28,0.69,0.6,2.4,-0.45,0.53
1900-01-01 16:46:08.372,60.85,23.62,-10.62,0.4,0.86,0.27,2.87,-0.93,0.21,48.54,17.9,-7.99,0.29,0.72,0.56,3.15,2.44,-1.93
1900-01-01 16:46:08.466,60.31,24.16,-10.43,0.41,0.87,0.28,-0.34,1.83,-1.02,47.28,18.98,-8.29,0.32,0.72,0.58,-1.23,4.66,0.64
1900-01-01 16:46:08.513,61.05,22.69,-10.42,0.39,0.89,0.3,-0.01,1.95,-0.74,46.34,16.79,-8.2,0.29,0.73,0.63,-1.02,3.76,1.34
1900-01-01 16:46:08.606,60.77,21.6,-10.38,0.37,0.87,0.32,-1.84,0.87,1.24,43.39,17.92,-8.0,0.3,0.67,0.64,-1.02,-0.79,2.76
1900-01-01 16:46:08.700,60.02,22.4,-10.03,0.37,0.84,0.31,-0.02,-1.3,1.46,44.08,19.12,-7.59,0.31,0.66,0.6,2.81,-0.91,-0.24
1900-01-01 16:46:08.747,60.0,24.1,-9.65,0.41,0.86,0.29,-0.08,-2.53,-0.32,48.05,18.97,-7.64,0.31,0.72,0.57,1.19,-0.57,-1.27
1900-01-01 16:46:08.840,60.37,24.3,-9.54,0.41,0.87,0.27,-1.5,-1.32,-0.44,48.24,18.21,-7.84,0.31,0.73,0.58,-0.26,-0.66,0.11
1900-01-01 16:46:08.888,60.96,24.02,-9.45,0.4,0.87,0.26,-0.73,-0.57,0.83,49.35,17.99,-7.83,0.3,0.73,0.55,0.22,-0.41,1.4
1900-01-01 16:46:08.982,59.99,24.37,-9.16,0.4,0.84,0.28,1.16,0.11,0.35,47.47,20.04,-7.63,0.32,0.69,0.55,2.37,2.98,-0.21
1900-01-01 16:46:09.076,60.86,24.04,-8.95,0.4,0.87,0.26,3.15,-0.07,-0.05,49.68,17.74,-7.67,0.3,0.74,0.56,5.12,5.01,-0.96
1900-01-01 16:46:09.123,60.12,24.49,-8.8,0.41,0.86,0.27,0.6,0.61,0.39,48.87,18.26,-7.82,0.3,0.73,0.56,0.21,2.44,1.15
1900-01-01 16:46:09.217,59.73,24.45,-8.58,0.41,0.85,0.28,-0.02,-0.11,-1.1,48.13,18.97,-7.66,0.31,0.71,0.56,-1.21,1.97,-0.53
1900-01-01 16:46:09.312,60.62,24.1,-8.59,0.4,0.86,0.27,-0.15,-0.89,-1.62,49.24,18.12,-7.75,0.3,0.72,0.55,-1.21,1.5,-1.35
1900-01-01 16:46:09.358,60.47,24.51,-8.68,0.41,0.86,0.26,-0.01,-0.79,-2.09,49.77,17.81,-7.96,0.3,0.74,0.55,-1.6,2.56,-1.68
1900-01-01 16:46:09.452,60.44,24.51,-8.84,0.42,0.87,0.27,-0.48,-0.18,-2.16,49.89,17.82,-8.23,0.3,0.75,0.55,-2.05,2.91,-1.09
1900-01-01 16:46:09.499,60.85,24.2,-9.01,0.41,0.88,0.26,-0.57,0.12,-1.67,49.69,16.82,-8.4,0.29,0.76,0.57,-1.77,2.18,-0.36
1900-01-01 16:46:09.593,60.78,24.17,-9.11,0.41,0.87,0.27,-0.56,0.28,-0.79,49.26,17.43,-8.47,0.29,0.74,0.57,-1.51,1.53,0.79
1900-01-01 16:46:09.684,61.02,23.83,-9.07,0.4,0.87,0.26,0.02,-0.08,-1.08,49.82,16.78,-8.35,0.28,0.74,0.56,-1.43,2.1,-0.1
1900-01-01 16:46:09.733,60.93,23.74,-9.08,0.4,0.87,0.27,-0.48,-0.23,-1.51,49.01,17.17,-8.38,0.29,0.73,0.57,-1.95,1.66,-0.45
1900-01-01 16:46:09.826,61.13,23.51,-9.15,0.4,0.88,0.27,-1.02,-0.5,-1.31,49.2,17.16,-8.46,0.29,0.74,0.57,-2.07,0.47,0.0
1900-01-01 16:46:09.921,60.93,23.85,-9.19,0.4,0.88,0.27,-0.68,-0.5,-0.82,49.35,16.83,-8.46,0.28,0.74,0.57,-1.35,0.73,0.07
1900-01-01 16:46:09.968,60.99,24.02,-9.16,0.41,0.87,0.26,-1.0,-0.33,-0.21,49.79,17.36,-8.46,0.29,0.74,0.55,-0.95,0.79,0.55
1900-01-01 16:46:10.061,60.87,23.98,-9.03,0.4,0.86,0.26,-0.99,-0.3,-0.44,49.17,17.79,-8.39,0.29,0.73,0.56,-1.15,0.2,0.5
1900-01-01 16:46:10.154,60.79,24.23,-8.94,0.41,0.86,0.26,-0.5,0.08,-0.99,49.75,17.07,-8.32,0.28,0.74,0.56,-1.69,1.51,0.35
1900-01-01 16:46:10.202,60.92,24.02,-8.94,0.41,0.87,0.26,-0.57,0.46,-1.29,49.58,17.03,-8.27,0.28,0.74,0.56,-2.13,2.33,0.43
1900-01-01 16:46:10.296,60.68,24.11,-8.97,0.41,0.88,0.27,-0.89,0.41,-1.05,48.82,17.44,-8.22,0.29,0.74,0.58,-1.51,1.36,0.54
1900-01-01 16:46:10.343,60.82,23.8,-8.98,0.4,0.87,0.27,-0.47,0.07,-0.45,49.29,17.17,-8.14,0.29,0.74,0.57,-1.02,1.5,0.64
1900-01-01 16:46:10.435,60.64,23.88,-8.89,0.4,0.86,0.27,-0.89,-0.11,-0.44,48.9,17.89,-8.05,0.3,0.73,0.56,-1.16,0.47,0.4
1900-01-01 16:46:10.530,60.46,23.91,-8.8,0.4,0.86,0.28,-0.82,-0.14,-0.97,48.32,17.86,-8.0,0.29,0.72,0.57,-1.76,1.08,0.18
1900-01-01 16:46:10.577,60.56,23.76,-8.79,0.4,0.87,0.28,-0.89,-0.53,-1.38,48.18,17.72,-7.98,0.3,0.72,0.58,-1.92,1.08,-0.42
1900-01-01 16:46:10.674,60.81,23.86,-8.84,0.4,0.87,0.27,-0.46,-1.09,-1.1,49.29,17.07,-8.06,0.29,0.75,0.57,-1.02,0.19,-0.63
1900-01-01 16:46:10.720,60.66,24.34,-8.85,0.41,0.86,0.26,-0.61,-0.37,-0.86,49.43,17.4,-8.16,0.29,0.74,0.56,-1.34,0.8,0.02
1900-01-01 16:46:10.812,60.36,24.38,-8.82,0.41,0.86,0.27,-0.64,-0.15,-0.87,49.1,18.08,-8.17,0.3,0.73,0.56,-1.26,1.24,0.15
1900-01-01 16:46:10.907,60.8,23.86,-8.8,0.4,0.86,0.27,-0.68,-0.19,-1.07,48.74,17.44,-8.15,0.29,0.72,0.57,-1.39,1.36,-0.15
1900-01-01 16:46:10.953,60.57,23.74,-8.8,0.4,0.87,0.28,-0.38,-0.25,-1.27,48.16,17.41,-8.18,0.29,0.73,0.58,-1.74,1.66,-0.21
1900-01-01 16:46:11.047,60.41,23.95,-8.84,0.4,0.87,0.28,-0.49,-0.8,-1.19,48.67,17.69,-8.22,0.29,0.73,0.57,-1.23,0.92,-0.75
1900-01-01 16:46:11.142,60.95,23.86,-8.86,0.4,0.87,0.27,-0.48,-0.55,-1.34,49.29,17.14,-8.35,0.29,0.74,0.57,-1.35,1.34,-0.6
1900-01-01 16:46:11.187,60.7,24.11,-8.91,0.4,0.86,0.27,-0.82,-0.2,-1.37,48.88,17.92,-8.45,0.29,0.72,0.56,-1.53,1.8,-0.37
1900-01-01 16:46:11.282,60.68,24.1,-8.96,0.4,0.85,0.26,-0.43,0.08,-2.78,49.32,17.7,-8.51,0.29,0.72,0.54,-2.1,3.08,-1.25
1900-01-01 16:46:11.377,60.8,23.56,-9.23,0.38,0.84,0.27,-0.66,0.25,-6.65,48.52,17.32,-8.71,0.27,0.69,0.55,-5.79,6.77,-3.92
1900-01-01 16:46:11.423,63.2,20.78,-10.09,0.37,0.93,0.29,-4.53,-1.63,-4.65,46.63,14.56,-9.32,0.26,0.75,0.66,-4.8,-2.79,0.18
1900-01-01 16:46:11.518,61.78,21.83,-10.64,0.38,0.9,0.3,0.0,-3.07,-1.46,46.17,16.56,-9.3,0.28,0.72,0.63,1.12,-5.79,-5.69
1900-01-01 16:46:11.564,62.1,21.4,-10.71,0.37,0.89,0.29,0.15,-4.21,-1.0,47.81,17.08,-10.18,0.29,0.73,0.59,1.5,-10.39,-4.22
1900-01-01 16:46:11.657,61.92,22.81,-10.7,0.39,0.89,0.27,0.94,-3.52,0.09,51.38,17.96,-10.84,0.3,0.76,0.53,2.99,-6.65,-2.95
1900-01-01 16:46:11.752,62.16,23.34,-10.53,0.4,0.89,0.25,-0.44,-0.96,-0.21,52.89,17.54,-11.3,0.29,0.78,0.51,0.56,-0.28,-0.15
1900-01-01 16:46:11.799,62.12,23.29,-10.4,0.39,0.88,0.25,-0.44,1.2,-0.21,52.41,17.76,-11.33,0.29,0.76,0.51,-1.59,7.77,1.49
1900-01-01 16:46:11.893,61.97,23.35,-10.28,0.39,0.86,0.25,-1.18,1.62,-0.79,50.28,16.03,-11.11,0.27,0.74,0.55,-2.94,6.24,1.08
1900-01-01 16:46:11.986,61.7,22.52,-10.24,0.38,0.87,0.28,-0.99,1.03,-1.01,48.87,17.35,-10.96,0.29,0.73,0.57,-1.8,3.36,0.58
1900-01-01 16:46:12.033,61.69,22.38,-10.24,0.38,0.87,0.28,0.04,-0.12,-1.07,48.78,17.18,-10.88,0.28,0.72,0.56,-1.22,2.1,-0.53
1900-01-01 16:46:12.127,62.3,22.23,-10.24,0.37,0.87,0.27,-0.38,-0.51,-1.53,50.4,16.41,-10.96,0.27,0.74,0.55,-1.44,1.85,-0.71
1900-01-01 16:46:12.173,62.03,22.72,-10.32,0.38,0.87,0.26,-0.46,0.07,-1.69,49.82,16.72,-11.08,0.28,0.73,0.55,-2.4,3.46,-0.58
1900-01-01 16:46:12.267,62.19,22.6,-10.42,0.38,0.88,0.26,-0.04,-0.29,-1.69,50.01,15.87,-11.18,0.27,0.75,0.57,-1.32,2.15,-0.62
1900-01-01 16:46:12.360,62.49,22.45,-10.52,0.38,0.89,0.26,0.27,-0.06,-1.24,50.49,15.55,-11.28,0.26,0.76,0.56,-1.45,2.19,0.14
1900-01-01 16:46:12.408,62.56,22.21,-10.55,0.38,0.89,0.26,-0.3,0.13,-0.82,50.04,15.58,-11.27,0.26,0.75,0.57,-1.31,1.48,0.26
1900-01-01 16:46:12.500,62.13,22.28,-10.52,0.38,0.88,0.27,-0.67,0.41,-0.9,49.14,16.06,-11.24,0.27,0.73,0.58,-1.68,2.0,0.4
1900-01-01 16:46:12.596,62.33,22.21,-10.5,0.38,0.88,0.27,-0.67,0.02,-0.85,49.59,15.99,-11.19,0.27,0.74,0.57,-1.47,1.59,0.29
1900-01-01 16:46:12.642,62.11,22.24,-10.47,0.37,0.88,0.27,-0.66,-0.56,-0.92,49.17,16.2,-11.15,0.27,0.73,0.57,-0.9,1.29,-0.08
1900-01-01 16:46:12.736,62.08,22.5,-10.45,0.38,0.88,0.27,-0.39,-1.11,-1.05,49.68,16.14,-11.17,0.27,0.74,0.57,-0.81,0.92,-0.71
1900-01-01 16:46:12.830,62.54,22.57,-10.45,0.38,0.88,0.25,-0.69,-0.78,-1.02,50.77,15.65,-11.29,0.26,0.75,0.55,-1.34,0.64,-0.33
1900-01-01 16:46:12.877,62.5,22.48,-10.45,0.38,0.88,0.26,-0.72,0.02,-1.08,50.26,15.68,-11.35,0.26,0.75,0.56,-1.85,1.26,0.3
1900-01-01 16:46:12.972,62.22,22.44,-10.46,0.38,0.88,0.27,-0.69,-0.11,-1.02,49.89,16.03,-11.31,0.27,0.74,0.56,-1.36,1.11,0.11
1900-01-01 16:46:13.019,62.5,22.1,-10.46,0.37,0.88,0.27,-0.74,0.14,-1.18,49.54,16.02,-11.3,0.27,0.74,0.57,-1.62,1.56,0.21
1900-01-01 16:46:13.112,62.16,22.36,-10.48,0.38,0.88,0.27,-0.57,-0.21,-1.1,49.26,16.32,-11.28,0.27,0.73,0.57,-1.47,1.49,-0.02
1900-01-01 16:46:13.206,62.49,22.31,-10.49,0.38,0.88,0.26,-0.75,-0.43,-1.15,50.17,15.46,-11.29,0.26,0.75,0.57,-1.6,1.06,-0.05
1900-01-01 16:46:13.252,62.48,22.3,-10.51,0.38,0.88,0.26,-0.41,-0.02,-0.77,49.82,15.97,-11.3,0.27,0.74,0.57,-1.54,1.02,0.3
1900-01-01 16:46:13.348,62.18,22.26,-10.47,0.38,0.88,0.27,-0.97,-0.11,-0.63,49.34,15.93,-11.27,0.27,0.74,0.57,-1.79,0.87,0.62
1900-01-01 16:46:13.439,62.29,22.41,-10.41,0.38,0.88,0.26,-0.69,-0.41,-0.52,49.61,16.13,-11.18,0.27,0.74,0.57,-1.17,0.9,0.22
1900-01-01 16:46:13.487,62.23,22.39,-10.33,0.38,0.88,0.27,-0.91,-0.24,-0.5,49.37,16.29,-11.15,0.27,0.74,0.57,-1.21,0.75,0.49
1900-01-01 16:46:13.582,62.15,22.5,-10.25,0.38,0.88,0.27,-0.56,-0.17,-0.48,49.82,16.04,-11.09,0.27,0.74,0.56,-1.27,1.1,0.41
1900-01-01 16:46:13.676,62.33,22.3,-10.16,0.38,0.88,0.27,-0.71,-0.02,-0.56,49.59,16.04,-11.03,0.27,0.74,0.57,-1.47,1.19,0.55
1900-01-01 16:46:13.723,62.36,22.24,-10.09,0.38,0.88,0.27,-0.02,-0.29,-0.5,49.7,15.79,-10.96,0.26,0.74,0.57,-0.45,1.5,-0.15
1900-01-01 16:46:13.816,62.61,22.26,-10.01,0.38,0.89,0.26,0.56,-0.25,0.46,49.87,15.71,-10.99,0.27,0.75,0.58,0.44,0.92,0.6
1900-01-01 16:46:13.863,61.87,22.68,-9.78,0.39,0.88,0.27,1.12,-1.64,1.21,49.19,16.52,-10.91,0.28,0.74,0.58,1.45,-0.79,0.23
1900-01-01 16:46:13.957,61.23,23.63,-9.44,0.4,0.87,0.26,0.8,-1.68,0.71,49.87,17.16,-10.88,0.29,0.74,0.56,0.86,-0.56,-0.15
1900-01-01 16:46:14.052,61.39,23.68,-9.17,0.4,0.87,0.26,-0.27,-1.26,0.03,49.99,17.1,-10.91,0.29,0.74,0.56,0.03,-0.16,-0.08
1900-01-01 16:46:14.099,61.73,23.88,-9.01,0.4,0.88,0.24,-0.78,-1.09,-0.07,51.43,16.54,-10.93,0.28,0.76,0.54,-0.85,-0.6,0.16
1900-01-01 16:46:14.192,61.26,24.33,-8.86,0.41,0.88,0.25,0.01,-0.71,-0.17,51.36,17.05,-10.92,0.29,0.77,0.54,-0.47,0.12,0.3
1900-01-01 16:46:14.286,60.22,24.81,-8.73,0.42,0.87,0.27,-0.98,-0.63,0.39,49.64,18.68,-10.88,0.31,0.75,0.55,-0.35,-0.99,1.25
1900-01-01 16:46:14.333,61.13,24.37,-8.51,0.41,0.87,0.25,-0.92,-0.56,0.66,50.82,17.87,-10.69,0.3,0.75,0.53,-0.18,-0.52,1.37
1900-01-01 16:46:14.427,61.28,24.1,-8.25,0.4,0.86,0.25,-1.47,0.2,0.09,51.0,17.91,-10.49,0.29,0.75,0.53,-1.7,0.25,1.57
1900-01-01 16:46:14.521,60.77,24.24,-8.08,0.41,0.86,0.26,-1.47,0.27,-0.42,49.92,18.42,-10.26,0.31,0.74,0.54,-2.03,0.57,1.21
1900-01-01 16:46:14.570,60.43,24.52,-7.98,0.41,0.87,0.27,-1.17,-0.53,-0.58,49.62,18.82,-10.09,0.32,0.74,0.55,-1.27,0.02,0.28
1900-01-01 16:46:14.662,60.66,24.74,-7.92,0.42,0.87,0.25,-1.01,-0.76,-0.24,50.82,18.28,-10.05,0.31,0.76,0.53,-1.09,-0.41,0.62
1900-01-01 16:46:14.708,60.38,25.2,-7.79,0.42,0.85,0.24,-0.66,-0.42,-0.21,51.0,19.0,-9.96,0.31,0.74,0.51,-1.08,0.65,0.42
1900-01-01 16:46:14.803,60.34,24.99,-7.67,0.41,0.84,0.25,-0.95,0.25,-1.63,50.48,19.41,-9.91,0.31,0.72,0.51,-2.34,3.02,-0.1
1900-01-01 16:46:14.896,60.52,24.78,-7.76,0.41,0.85,0.25,-0.34,0.46,-2.95,50.56,18.63,-9.93,0.3,0.74,0.52,-2.77,4.69,-1.37
1900-01-01 16:46:14.945,60.56,24.46,-8.05,0.41,0.86,0.26,-0.56,0.82,-3.66,49.97,18.3,-10.15,0.3,0.74,0.54,-3.6,5.88,-2.15
1900-01-01 16:46:15.040,60.99,23.76,-8.45,0.41,0.89,0.27,-0.35,0.45,-3.08,49.33,17.19,-10.49,0.3,0.76,0.58,-2.74,4.13,-1.39
1900-01-01 16:46:15.086,61.22,23.57,-8.77,0.4,0.89,0.27,-0.21,-0.21,-1.55,49.26,17.25,-10.71,0.29,0.75,0.58,-1.37,2.06,-0.59
1900-01-01 16:46:15.180,61.53,23.34,-8.85,0.4,0.88,0.27,-0.5,-0.7,-0.71,49.59,16.89,-10.81,0.29,0.75,0.57,-1.43,0.6,0.09
1900-01-01 16:46:15.274,61.64,23.36,-8.8,0.4,0.89,0.26,-0.33,-1.27,0.71,49.73,16.74,-10.8,0.28,0.75,0.57,-0.21,-0.78,0.56
1900-01-01 16:46:15.321,61.18,24.16,-8.53,0.41,0.87,0.25,-0.58,-0.73,1.05,50.14,17.6,-10.72,0.29,0.74,0.55,-0.24,-0.53,1.08
1900-01-01 16:46:15.414,60.75,24.55,-8.21,0.41,0.86,0.25,-0.63,-0.39,-0.1,50.21,17.98,-10.57,0.29,0.73,0.53,-1.01,0.66,0.52
1900-01-01 16:46:15.509,60.65,24.47,-8.07,0.41,0.85,0.26,-0.18,-0.13,-1.41,50.16,17.9,-10.5,0.29,0.73,0.54,-1.58,2.47,-0.63
1900-01-01 16:46:15.556,61.0,24.16,-8.13,0.41,0.87,0.26,-0.87,0.12,-1.97,49.75,17.55,-10.6,0.29,0.74,0.56,-2.28,2.48,-0.49
1900-01-01 16:46:15.650,60.95,24.12,-8.27,0.41,0.87,0.26,-0.56,-0.08,-1.63,49.89,17.15,-10.68,0.29,0.75,0.56,-1.81,2.21,-0.3
1900-01-01 16:46:15.745,61.08,24.02,-8.36,0.41,0.88,0.26,-0.44,-0.33,-1.44,49.72,17.15,-10.74,0.29,0.75,0.56,-1.41,1.66,-0.54
1900-01-01 16:46:15.792,61.24,24.0,-8.43,0.4,0.87,0.25,-0.77,-0.07,-0.97,49.69,17.4,-10.83,0.29,0.74,0.56,-1.31,1.21,0.1
1900-01-01 16:46:15.886,61.18,23.93,-8.42,0.4,0.87,0.26,-0.72,0.0,-1.32,49.76,16.91,-10.82,0.28,0.74,0.56,-1.6,2.06,-0.17
1900-01-01 16:46:15.933,60.95,23.95,-8.46,0.4,0.87,0.26,-0.78,-0.09,-1.15,49.3,17.44,-10.86,0.29,0.74,0.56,-1.52,1.4,0.0
1900-01-01 16:46:16.026,61.24,23.72,-8.48,0.4,0.88,0.26,-0.7,-0.34,-1.35,49.59,17.09,-10.87,0.29,0.74,0.56,-1.65,1.28,-0.43
1900-01-01 16:46:16.119,61.39,23.8,-8.53,0.4,0.88,0.26,-0.79,-0.26,-1.18,50.08,16.82,-10.94,0.28,0.75,0.56,-1.44,1.3,0.01
1900-01-01 16:46:16.167,61.09,23.9,-8.55,0.4,0.87,0.26,-0.82,0.1,-0.89,49.54,17.2,-10.95,0.29,0.74,0.56,-1.45,1.17,0.37
1900-01-01 16:46:16.261,61.32,23.59,-8.52,0.4,0.87,0.26,-0.59,-0.03,-0.95,49.45,17.09,-10.9,0.28,0.74,0.56,-1.21,1.37,0.07
1900-01-01 16:46:16.354,61.31,23.55,-8.51,0.4,0.87,0.26,-0.82,-0.09,-0.95,49.5,17.07,-10.9,0.28,0.74,0.56,-1.3,1.31,0.1
1900-01-01 16:46:16.401,61.11,23.77,-8.5,0.4,0.87,0.26,-0.67,-0.25,-1.08,49.4,17.06,-10.89,0.28,0.74,0.56,-1.57,1.26,-0.02
1900-01-01 16:46:16.496,61.16,23.81,-8.51,0.4,0.87,0.26,-0.52,-0.42,-1.19,49.63,17.01,-10.9,0.28,0.74,0.56,-1.31,1.27,-0.27
1900-01-01 16:46:16.543,61.08,23.91,-8.53,0.4,0.87,0.26,-0.65,-0.22,-0.92,49.31,17.18,-10.95,0.29,0.74,0.56,-1.05,1.23,-0.08
1900-01-01 16:46:16.637,61.22,23.74,-8.51,0.4,0.87,0.26,-0.89,-0.18,-1.02,49.61,17.23,-10.97,0.29,0.73,0.56,-1.6,1.27,0.13
1900-01-01 16:46:16.729,61.47,23.47,-8.51,0.4,0.87,0.26,-0.46,-0.33,-1.09,49.76,16.68,-10.96,0.28,0.74,0.56,-1.4,1.24,-0.11
1900-01-01 16:46:16.777,61.13,23.81,-8.52,0.4,0.87,0.26,-0.55,-0.08,-1.0,49.77,17.07,-10.99,0.28,0.74,0.56,-1.41,1.62,0.06
1900-01-01 16:46:16.871,61.22,23.58,-8.52,0.4,0.87,0.27,-0.72,0.0,-1.03,49.44,16.9,-10.99,0.28,0.74,0.57,-1.54,1.4,0.27
1900-01-01 16:46:16.965,61.03,23.72,-8.51,0.4,0.87,0.27,-0.81,0.07,-1.08,49.65,17.01,-10.95,0.28,0.74,0.56,-1.69,1.58,0.14
1900-01-01 16:46:17.013,61.2,23.58,-8.52,0.4,0.88,0.27,-0.47,-0.09,-1.24,49.37,17.06,-10.94,0.29,0.74,0.57,-1.68,1.31,-0.08
1900-01-01 16:46:17.107,61.16,23.56,-8.55,0.4,0.88,0.27,-0.47,-0.46,-0.69,49.27,16.85,-10.96,0.29,0.75,0.58,-0.84,0.71,0.1
1900-01-01 16:46:17.154,61.23,23.46,-8.5,0.4,0.88,0.27,-0.83,-0.52,-0.08,49.32,17.06,-10.95,0.29,0.74,0.57,-0.72,0.01,0.62
1900-01-01 16:46:17.249,61.27,23.58,-8.36,0.4,0.87,0.27,-1.15,-0.36,0.07,49.57,16.98,-10.87,0.28,0.74,0.56,-0.96,-0.15,1.02
1900-01-01 16:46:17.341,60.63,24.06,-8.19,0.4,0.86,0.27,-0.95,-0.36,0.0,49.18,17.81,-10.72,0.3,0.73,0.56,-0.94,-0.03,0.76
1900-01-01 16:46:17.389,60.75,24.17,-8.03,0.41,0.87,0.27,-0.99,-0.5,-0.18,49.59,17.78,-10.61,0.3,0.74,0.56,-1.24,-0.29,0.78
1900-01-01 16:46:17.485,60.61,24.29,-7.9,0.41,0.87,0.27,-0.89,-0.29,-0.07,49.26,18.19,-10.5,0.3,0.73,0.56,-0.79,-0.01,0.82
1900-01-01 16:46:17.579,60.51,24.21,-7.75,0.41,0.87,0.27,-0.92,-0.39,-0.28,49.36,18.22,-10.38,0.3,0.74,0.55,-1.09,0.08,0.73
1900-01-01 16:46:17.626,60.29,24.44,-7.63,0.41,0.86,0.27,-0.81,-0.4,-0.29,49.09,18.68,-10.28,0.31,0.73,0.55,-1.07,0.02,0.48
1900-01-01 16:46:17.720,60.2,24.39,-7.52,0.41,0.86,0.27,-0.85,-0.56,-0.72,49.23,18.55,-10.21,0.31,0.73,0.55,-1.35,0.57,0.2
1900-01-01 16:46:17.814,60.24,24.55,-7.47,0.41,0.85,0.27,-0.27,-0.7,-0.71,49.48,18.49,-10.19,0.3,0.73,0.54,-0.91,0.63,-0.24
1900-01-01 16:46:17.860,60.32,24.63,-7.42,0.41,0.85,0.26,-0.31,-0.28,-1.14,49.56,18.59,-10.24,0.31,0.73,0.54,-1.35,1.82,-0.24
1900-01-01 16:46:17.955,59.16,25.38,-7.44,0.43,0.87,0.28,-1.12,0.49,-1.62,49.68,19.48,-10.28,0.33,0.75,0.55,-2.85,2.31,0.34
1900-01-01 16:46:18.002,57.87,26.31,-7.53,0.48,0.91,0.31,-6.04,4.35,0.17,50.02,19.81,-10.24,0.36,0.82,0.58,-6.74,1.13,6.11
1900-01-01 16:46:18.096,56.64,25.07,-7.34,0.45,0.89,0.37,-14.08,6.95,4.72,42.46,22.03,-9.32,0.4,0.72,0.67,-8.82,-4.68,13.66
1900-01-01 16:46:18.191,54.27,24.94,-6.46,0.41,0.79,0.39,-14.53,1.8,8.89,39.94,26.08,-7.23,0.41,0.6,0.59,-6.06,-8.98,12.42
1900-01-01 16:46:18.239,50.78,28.61,-4.94,0.43,0.69,0.37,-13.98,0.53,6.88,42.73,29.64,-5.34,0.42,0.57,0.46,-5.26,-10.06,9.05
1900-01-01 16:46:18.333,49.5,29.38,-3.73,0.45,0.7,0.39,-8.99,-0.24,-0.5,42.49,31.46,-3.96,0.45,0.59,0.45,-8.56,0.92,4.38
1900-01-01 16:46:18.379,52.13,25.04,-3.65,0.4,0.75,0.42,-10.66,-0.34,-1.49,39.05,25.47,-3.3,0.41,0.6,0.62,-9.4,6.68,-3.5
1900-01-01 16:46:18.474,52.63,26.08,-3.72,0.45,0.81,0.42,-5.6,-3.34,-2.01,42.28,23.79,-3.84,0.4,0.66,0.61,-7.45,6.15,-5.2
1900-01-01 16:46:18.567,53.34,25.86,-3.87,0.46,0.84,0.43,-3.02,-2.04,-1.04,43.76,19.99,-4.65,0.35,0.71,0.65,-6.79,7.55,-2.44
1900-01-01 16:46:18.614,52.3,26.49,-3.87,0.45,0.8,0.43,-4.15,0.72,2.01,40.87,20.81,-5.03,0.36,0.66,0.67,7.16,7.88,3.15
1900-01-01 16:46:18.708,53.8,24.26,-3.4,0.42,0.82,0.43,-3.33,1.56,6.37,42.5,18.94,-4.56,0.32,0.67,0.66,-1.81,-2.88,10.37
1900-01-01 16:46:18.803,48.14,28.76,-2.27,0.48,0.74,0.46,-1.67,5.47,4.76,37.88,25.44,-2.98,0.41,0.59,0.64,-3.17,2.27,12.82
1900-01-01 16:46:18.850,46.44,28.9,-1.39,0.5,0.75,0.51,-4.92,3.71,3.75,34.21,30.56,-1.04,0.51,0.57,0.66,-7.4,-6.91,11.97
1900-01-01 16:46:18.944,42.77,31.69,-0.66,0.53,0.69,0.52,-5.19,2.71,3.79,32.01,32.67,0.79,0.54,0.53,0.65,-7.63,-5.19,9.43
1900-01-01 16:46:18.989,47.08,28.85,0.08,0.49,0.74,0.48,-3.64,0.19,5.73,35.77,31.64,2.21,0.51,0.56,0.6,-1.68,-12.39,12.68
1900-01-01 16:46:19.084,44.39,31.85,1.11,0.51,0.67,0.46,2.14,3.39,6.85,34.77,34.57,4.14,0.53,0.53,0.56,2.03,-6.27,13.66
1900-01-01 16:46:19.178,42.96,31.98,2.31,0.52,0.67,0.49,0.87,4.24,5.59,29.47,38.29,6.2,0.59,0.47,0.58,-0.4,-1.08,8.08
1900-01-01 16:46:19.226,44.29,29.68,3.31,0.51,0.72,0.53,1.8,3.55,2.89,29.66,38.32,7.41,0.63,0.5,0.62,0.11,-6.31,6.72
1900-01-01 16:46:19.320,44.9,29.68,3.91,0.51,0.73,0.52,-1.11,1.27,1.89,29.68,40.65,8.42,0.66,0.5,0.59,7.08,-10.82,8.4
1900-01-01 16:46:19.414,44.6,28.97,4.35,0.5,0.72,0.54,4.66,-2.56,3.53,29.55,41.5,9.69,0.69,0.51,0.58,13.11,-9.54,5.79
1900-01-01 16:46:19.461,46.04,30.48,5.05,0.54,0.76,0.5,4.58,-4.14,4.66,32.41,42.36,10.56,0.7,0.56,0.53,9.71,-5.77,6.23
1900-01-01 16:46:19.555,44.65,33.12,5.91,0.57,0.74,0.48,2.67,-3.89,4.19,32.16,43.79,11.49,0.72,0.55,0.51,8.77,-10.24,4.49
1900-01-01 16:46:19.603,43.16,35.85,6.71,0.6,0.7,0.45,2.24,-2.64,4.82,33.72,47.41,12.17,0.74,0.56,0.39,6.21,-6.24,-0.82
1900-01-01 16:46:19.697,42.87,35.84,7.6,0.6,0.69,0.45,-0.23,5.68,2.55,33.51,47.97,12.04,0.74,0.55,0.38,3.38,-4.15,3.3
1900-01-01 16:46:19.791,42.93,34.37,8.14,0.57,0.69,0.47,-0.36,1.88,0.82,31.71,49.12,12.53,0.76,0.53,0.39,1.46,-3.79,1.48
1900-01-01 16:46:19.838,43.33,34.54,8.43,0.58,0.7,0.47,-3.43,1.71,-2.54,32.6,48.06,12.74,0.76,0.55,0.4,-1.78,-0.83,0.06
1900-01-01 16:46:19.933,43.16,34.6,8.2,0.56,0.67,0.45,-2.98,0.73,1.25,33.2,48.97,12.74,0.73,0.53,0.35,-0.69,-2.28,0.74
1900-01-01 16:46:19.980,42.42,34.69,8.55,0.56,0.66,0.46,-1.95,-1.11,-0.67,32.77,48.37,12.85,0.72,0.52,0.37,-1.19,-1.11,-0.84
1900-01-01 16:46:20.073,41.5,35.23,8.6,0.57,0.65,0.47,-0.3,-0.37,-3.63,32.6,49.96,12.71,0.74,0.52,0.34,-0.67,1.67,-3.25
1900-01-01 16:46:20.168,42.41,34.46,8.21,0.58,0.69,0.49,-1.78,-0.23,-1.85,33.45,47.99,12.21,0.76,0.57,0.39,-3.78,-0.21,-1.21
1900-01-01 16:46:20.216,42.23,34.03,8.08,0.57,0.68,0.49,-1.17,-1.07,-0.53,32.37,48.81,12.01,0.76,0.54,0.39,-2.04,-0.43,-0.9
1900-01-01 16:46:20.308,42.47,33.76,8.16,0.56,0.68,0.49,0.0,-0.46,-0.77,32.87,48.36,11.87,0.75,0.55,0.39,-1.27,0.37,-0.49
1900-01-01 16:46:20.356,42.14,34.37,8.2,0.57,0.68,0.49,0.93,-1.85,-0.64,33.95,47.97,11.78,0.75,0.56,0.37,-0.34,0.8,-1.01
1900-01-01 16:46:20.451,41.48,34.21,8.26,0.57,0.67,0.5,0.1,-1.04,-0.83,32.11,49.23,11.62,0.76,0.54,0.38,-0.4,2.04,-0.26
1900-01-01 16:46:20.545,42.09,34.55,8.29,0.57,0.68,0.48,-1.37,-1.89,-0.63,32.92,49.03,11.57,0.76,0.54,0.37,-1.47,0.81,0.15
1900-01-01 16:46:20.591,42.63,35.26,8.36,0.58,0.68,0.46,-0.74,-2.5,-0.42,34.3,47.98,11.59,0.74,0.56,0.36,-1.16,-0.15,-1.49
1900-01-01 16:46:20.686,42.09,35.62,8.45,0.59,0.68,0.46,-1.22,-4.66,-0.47,33.53,48.38,11.35,0.75,0.55,0.37,-2.04,-1.66,-2.34
1900-01-01 16:46:20.780,42.1,35.72,8.54,0.59,0.68,0.47,-1.78,-2.66,-0.39,34.22,48.0,10.98,0.76,0.57,0.37,-6.18,-6.44,-1.88
1900-01-01 16:46:20.826,41.32,36.37,8.64,0.6,0.67,0.47,-2.4,-4.34,-0.05,33.58,49.87,10.69,0.76,0.55,0.33,-5.54,-6.11,-0.57
1900-01-01 16:46:20.920,41.38,36.95,8.79,0.6,0.66,0.45,-1.08,-0.32,-2.06,35.04,48.25,10.59,0.74,0.57,0.33,-3.7,-2.66,-0.84
1900-01-01 16:46:20.967,41.54,36.76,8.63,0.6,0.67,0.45,-3.47,-1.53,-2.68,33.83,49.46,10.46,0.76,0.55,0.33,-5.75,-5.21,1.31
1900-01-01 16:46:21.061,41.35,36.73,8.38,0.61,0.67,0.46,-4.16,-6.6,-2.01,34.12,50.29,10.65,0.78,0.57,0.31,-6.27,-7.21,4.66
1900-01-01 16:46:21.153,41.09,37.11,8.23,0.61,0.66,0.46,-6.11,1.9,-3.31,30.86,53.16,11.35,0.8,0.51,0.31,-8.47,-4.9,5.09
1900-01-01 16:46:21.201,40.9,37.05,7.88,0.61,0.66,0.46,-6.98,-4.42,-2.0,30.49,53.59,12.12,0.81,0.51,0.31,-8.59,-4.67,7.62
1900-01-01 16:46:21.295,40.95,35.08,7.74,0.59,0.68,0.51,-0.27,2.4,-0.92,29.14,53.83,13.27,0.84,0.51,0.35,-3.18,1.63,3.18
1900-01-01 16:46:21.390,40.43,36.3,7.75,0.6,0.66,0.48,0.91,2.99,-0.35,28.68,54.98,13.75,0.83,0.48,0.32,-2.15,6.51,-1.12
1900-01-01 16:46:21.437,40.37,35.7,7.86,0.59,0.65,0.49,-1.66,3.44,-0.89,28.73,53.29,13.57,0.81,0.48,0.36,-2.33,7.17,-0.31
1900-01-01 16:46:21.531,40.68,34.87,7.88,0.57,0.65,0.5,-1.8,1.36,-0.96,28.61,52.92,13.52,0.8,0.48,0.37,-4.52,4.32,0.18
1900-01-01 16:46:21.578,40.79,35.05,7.89,0.58,0.66,0.5,0.0,0.51,-1.39,29.6,51.6,13.53,0.78,0.49,0.37,-1.92,5.51,-1.02
1900-01-01 16:46:21.672,40.39,34.88,7.84,0.57,0.65,0.5,-0.01,-0.52,-2.02,28.23,52.67,13.37,0.79,0.47,0.38,1.08,4.76,-1.21
1900-01-01 16:46:21.767,40.6,35.26,7.69,0.58,0.66,0.5,-0.69,-3.4,-1.93,28.79,52.08,13.18,0.8,0.49,0.38,4.28,4.05,-3.6
1900-01-01 16:46:21.814,41.67,34.8,7.56,0.58,0.67,0.49,-2.6,-2.82,-1.51,29.53,50.88,12.62,0.77,0.49,0.39,-1.4,-3.24,-3.17
1900-01-01 16:46:21.907,41.51,35.19,7.48,0.57,0.66,0.47,-0.56,-0.96,-1.82,32.67,49.68,12.13,0.74,0.52,0.34,0.15,-8.15,-1.21
1900-01-01 16:46:22.000,40.91,35.27,7.36,0.58,0.66,0.49,0.67,-5.9,-2.05,31.04,52.17,11.93,0.81,0.53,0.34,-0.47,-4.05,0.5
1900-01-01 16:46:22.049,40.94,35.83,7.21,0.61,0.68,0.49,-0.08,-0.42,-0.69,31.44,52.39,12.0,0.81,0.53,0.32,-1.63,1.17,1.11
1900-01-01 16:46:22.142,40.6,36.41,7.26,0.6,0.66,0.48,0.94,0.43,0.76,31.65,52.86,12.16,0.81,0.53,0.3,-2.66,5.18,1.25
1900-01-01 16:46:22.188,41.09,35.62,7.53,0.59,0.67,0.49,0.69,0.27,1.08,32.34,50.85,12.34,0.79,0.54,0.34,-1.05,6.8,3.39
1900-01-01 16:46:22.285,41.2,35.29,7.86,0.58,0.66,0.48,0.05,0.86,0.73,30.82,50.83,12.85,0.78,0.51,0.37,-2.57,3.2,1.85
1900-01-01 16:46:22.378,40.96,35.06,8.12,0.57,0.65,0.49,-0.16,1.14,-1.09,28.96,52.28,13.12,0.78,0.48,0.37,0.23,2.88,-0.62
1900-01-01 16:46:22.425,41.13,35.63,8.12,0.59,0.66,0.48,-0.96,-1.85,-1.42,30.08,51.91,13.02,0.78,0.5,0.36,-0.27,3.6,-0.15
1900-01-01 16:46:22.520,40.83,35.81,8.06,0.59,0.66,0.48,-1.09,-2.56,-1.98,30.8,51.02,12.99,0.78,0.51,0.36,-1.4,2.98,0.46
1900-01-01 16:46:22.615,40.86,35.91,7.91,0.59,0.65,0.48,-0.33,0.48,-2.92,31.02,51.32,13.05,0.78,0.51,0.35,-1.39,6.18,0.81
1900-01-01 16:46:22.661,41.36,35.86,7.63,0.59,0.67,0.48,-1.52,1.58,-2.77,29.17,52.14,13.16,0.8,0.49,0.38,-2.02,4.72,1.79
1900-01-01 16:46:22.754,41.12,34.85,7.37,0.58,0.67,0.5,0.02,0.08,-3.05,28.88,51.59,13.43,0.79,0.49,0.4,-1.44,2.85,-0.66
1900-01-01 16:46:22.803,41.82,34.49,7.06,0.57,0.67,0.49,-1.0,-1.55,-2.82,29.56,51.16,13.32,0.78,0.49,0.39,-3.27,0.98,0.05
1900-01-01 16:46:22.896,41.47,34.8,6.79,0.58,0.67,0.49,-1.6,-3.42,-3.7,29.46,50.83,13.32,0.78,0.49,0.4,-2.96,0.03,-1.82
1900-01-01 16:46:22.991,42.01,35.37,6.38,0.58,0.67,0.47,-0.63,-2.76,-3.41,33.0,48.73,13.03,0.76,0.55,0.38,-0.46,1.68,0.0
1900-01-01 16:46:23.039,42.83,34.16,6.02,0.57,0.69,0.48,-2.21,-3.43,-3.85,29.24,50.53,13.02,0.76,0.48,0.4,-0.88,0.02,-4.36
1900-01-01 16:46:23.133,42.19,34.67,5.59,0.58,0.68,0.48,-2.55,-2.72,-3.73,31.24,50.02,12.35,0.77,0.52,0.38,-2.6,0.6,-1.08
1900-01-01 16:46:23.181,43.6,33.81,5.18,0.57,0.7,0.47,-2.44,-1.47,-3.02,30.96,49.72,12.17,0.77,0.52,0.4,-2.15,-2.07,-2.47
1900-01-01 16:46:23.273,44.28,35.34,4.87,0.59,0.71,0.43,1.34,-0.74,-1.87,36.71,45.43,11.78,0.73,0.61,0.37,1.73,-1.17,-4.63
1900-01-01 16:46:23.368,43.74,34.69,4.75,0.58,0.7,0.45,3.35,2.15,0.74,34.36,48.05,11.07,0.76,0.57,0.36,-0.63,-6.12,-4.53
1900-01-01 16:46:23.416,43.59,32.77,5.02,0.55,0.7,0.49,1.08,2.77,1.67,32.25,49.61,10.37,0.77,0.54,0.37,-0.52,-2.54,1.3
1900-01-01 16:46:23.510,41.88,33.85,5.43,0.56,0.67,0.49,-0.53,0.63,0.21,30.15,52.33,10.56,0.78,0.49,0.34,-1.09,1.33,1.28
1900-01-01 16:46:23.556,43.69,34.19,5.62,0.57,0.7,0.46,-0.66,2.08,-0.89,33.69,49.19,10.75,0.76,0.56,0.35,-2.17,2.57,2.53
1900-01-01 16:46:23.654,42.81,34.51,5.64,0.57,0.68,0.47,1.19,2.74,-0.45,32.45,49.96,11.12,0.77,0.54,0.35,1.09,2.64,1.83
1900-01-01 16:46:23.746,42.69,34.47,5.74,0.57,0.68,0.47,1.69,2.4,-0.28,31.68,50.51,11.39,0.77,0.53,0.36,0.89,3.73,0.71
1900-01-01 16:46:23.794,43.07,34.18,5.85,0.56,0.69,0.47,1.13,2.95,0.01,31.54,51.14,11.49,0.78,0.52,0.35,0.1,4.37,1.51
1900-01-01 16:46:23.888,43.63,33.27,6.01,0.55,0.7,0.48,1.96,2.7,-0.18,32.75,49.15,11.71,0.76,0.54,0.37,0.69,3.92,1.37
1900-01-01 16:46:23.936,43.01,33.82,6.14,0.56,0.69,0.48,0.49,1.86,-0.74,32.11,49.87,11.91,0.76,0.53,0.36,0.17,2.04,1.52
1900-01-01 16:46:24.035,43.24,34.05,6.19,0.57,0.69,0.47,0.52,1.71,-0.15,31.84,50.0,12.13,0.77,0.53,0.37,0.66,2.38,1.85
1900-01-01 16:46:24.126,42.91,33.63,6.32,0.56,0.69,0.48,0.58,1.4,0.38,30.59,51.34,12.4,0.79,0.51,0.37,0.87,1.89,1.36
1900-01-01 16:46:24.171,42.5,32.82,6.54,0.55,0.69,0.51,0.05,-0.19,-0.53,28.8,52.54,12.6,0.81,0.49,0.38,-0.08,-0.05,0.81
1900-01-01 16:46:24.265,42.75,33.35,6.62,0.56,0.69,0.5,-3.6,-2.65,-0.89,29.49,51.94,12.72,0.79,0.5,0.37,-2.57,-1.47,1.87
1900-01-01 16:46:24.313,43.28,33.66,6.64,0.56,0.7,0.48,-2.65,-4.85,-0.56,31.43,51.78,12.99,0.79,0.53,0.34,-2.01,-1.88,-0.98
1900-01-01 16:46:24.408,43.61,34.02,6.71,0.56,0.69,0.46,-0.93,-1.63,-0.31,32.28,50.38,12.83,0.77,0.53,0.35,-1.56,0.02,-0.89
1900-01-01 16:46:24.502,42.52,34.21,6.82,0.57,0.68,0.48,-1.08,-2.09,-0.56,30.64,51.8,12.69,0.79,0.51,0.35,-1.02,0.51,-2.47
1900-01-01 16:46:24.548,42.76,35.04,6.9,0.58,0.69,0.47,-1.66,-1.62,-0.13,33.08,49.86,12.3,0.77,0.55,0.35,-2.05,0.31,-0.49
1900-01-01 16:46:24.645,42.71,34.65,7.03,0.58,0.69,0.47,-1.13,0.15,-0.15,32.76,49.94,12.22,0.77,0.55,0.35,-0.87,-0.56,-0.41
1900-01-01 16:46:24.738,42.72,34.32,7.17,0.56,0.67,0.47,-0.72,3.79,-0.17,32.17,50.3,12.15,0.76,0.52,0.35,-1.15,-0.6,0.01
1900-01-01 16:46:24.785,42.8,33.52,7.3,0.55,0.67,0.48,-1.3,-0.63,-0.92,31.21,50.96,12.14,0.77,0.51,0.35,-1.05,-1.46,-0.39
1900-01-01 16:46:24.878,41.95,34.97,7.32,0.57,0.67,0.47,0.65,-2.27,-1.76,32.89,50.6,12.07,0.77,0.54,0.33,0.7,1.0,-2.91
1900-01-01 16:46:24.925,42.22,35.81,7.21,0.59,0.68,0.46,-0.11,-2.77,-0.22,33.34,50.78,11.62,0.78,0.55,0.31,-1.23,1.53,0.13
1900-01-01 16:46:25.020,42.73,34.5,7.34,0.57,0.69,0.47,-0.31,-0.98,-0.54,32.62,50.72,11.63,0.78,0.54,0.33,-0.73,-0.21,-1.17
1900-01-01 16:46:25.114,42.55,35.24,7.41,0.57,0.67,0.45,-0.08,-1.18,-1.27,33.69,49.76,11.45,0.76,0.55,0.33,-2.21,0.58,-0.33
1900-01-01 16:46:25.161,43.23,35.47,7.38,0.58,0.69,0.44,0.13,-2.43,-1.21,34.93,48.92,11.39,0.76,0.58,0.32,-0.14,0.71,-1.53
1900-01-01 16:46:25.256,42.82,35.91,7.35,0.59,0.68,0.44,1.27,-0.88,-0.66,34.59,49.51,11.15,0.75,0.56,0.31,0.2,3.69,-1.19
1900-01-01 16:46:25.348,42.34,35.07,7.41,0.58,0.68,0.47,-0.4,-0.2,-1.8,31.63,51.76,10.96,0.8,0.53,0.33,-0.94,1.07,-0.25
1900-01-01 16:46:25.395,43.04,34.8,7.29,0.59,0.71,0.47,-1.44,-2.25,-1.64,34.75,49.29,10.91,0.78,0.59,0.33,-1.76,0.45,-0.5
1900-01-01 16:46:25.489,42.89,34.77,7.2,0.57,0.68,0.46,-2.03,0.27,-1.04,33.12,50.52,10.82,0.77,0.54,0.32,-1.63,2.06,0.19
1900-01-01 16:46:25.536,42.64,35.99,7.2,0.59,0.68,0.44,-1.98,-0.66,-1.01,34.05,49.88,10.85,0.76,0.56,0.32,-0.84,1.31,-0.65
1900-01-01 16:46:25.630,42.01,35.98,7.21,0.59,0.67,0.45,-0.47,0.03,-0.69,34.38,49.56,10.74,0.75,0.56,0.32,-0.33,1.52,0.5
1900-01-01 16:46:25.725,42.43,34.35,7.26,0.57,0.68,0.48,2.1,0.29,0.35,32.73,50.54,10.8,0.78,0.54,0.34,-0.55,1.27,1.31
1900-01-01 16:46:25.770,42.76,35.31,7.47,0.58,0.69,0.46,0.28,-1.46,-0.85,33.31,50.46,10.99,0.78,0.55,0.32,-1.34,-0.15,0.38
1900-01-01 16:46:25.865,42.97,36.08,7.5,0.61,0.7,0.45,-1.01,-2.56,-0.89,34.69,49.47,11.04,0.77,0.58,0.32,-1.67,-0.45,-0.82
1900-01-01 16:46:25.958,42.81,35.54,7.52,0.59,0.68,0.45,-1.39,-0.89,-0.89,33.17,50.66,10.91,0.77,0.55,0.32,-1.98,1.0,-0.52
1900-01-01 16:46:26.003,42.99,35.26,7.55,0.59,0.69,0.46,-1.4,-1.72,-1.11,33.13,50.42,10.82,0.78,0.55,0.33,-2.59,-0.18,0.05
1900-01-01 16:46:26.098,43.01,36.3,7.54,0.6,0.69,0.44,-0.68,-1.11,-0.26,35.22,49.19,10.82,0.76,0.58,0.31,-2.12,-0.63,-0.6
1900-01-01 16:46:26.145,42.4,36.34,7.65,0.6,0.68,0.44,-0.72,-0.92,-0.32,34.8,49.65,10.72,0.77,0.57,0.31,-0.49,-1.21,-2.06
1900-01-01 16:46:26.239,42.23,36.22,7.76,0.59,0.68,0.45,-0.84,2.21,-0.41,34.24,50.35,10.4,0.77,0.56,0.3,-0.66,-0.61,-0.35
1900-01-01 16:46:26.332,41.85,35.77,7.86,0.59,0.68,0.47,-1.29,0.1,-0.2,32.99,51.28,10.33,0.79,0.55,0.31,-1.11,-0.47,0.2
1900-01-01 16:46:26.379,42.36,35.71,7.99,0.59,0.68,0.46,-1.2,1.95,0.14,34.07,50.54,10.36,0.77,0.56,0.3,-1.16,-0.61,-0.03
1900-01-01 16:46:26.473,42.44,35.8,8.17,0.59,0.68,0.45,-1.3,0.56,-0.24,34.46,50.3,10.34,0.77,0.56,0.29,-1.31,-0.08,-0.34
1900-01-01 16:46:26.567,42.02,35.78,8.29,0.58,0.67,0.46,-0.96,-0.2,-1.24,33.67,50.8,10.28,0.77,0.55,0.3,-1.48,0.37,-0.45
1900-01-01 16:46:26.613,41.65,36.35,8.26,0.59,0.67,0.46,-1.25,-1.21,-0.83,33.74,51.06,10.21,0.77,0.55,0.29,-1.44,1.25,-0.63
1900-01-01 16:46:26.706,42.35,36.44,8.29,0.6,0.68,0.44,0.05,-0.18,-1.36,35.72,49.68,10.1,0.76,0.59,0.28,-1.06,1.82,-0.79
1900-01-01 16:46:26.755,41.96,35.92,8.24,0.59,0.67,0.46,0.87,-2.42,-0.6,33.92,50.72,9.97,0.78,0.56,0.3,-1.04,2.54,-0.55
1900-01-01 16:46:26.850,41.69,36.29,8.31,0.6,0.67,0.46,0.47,-0.03,-1.15,34.49,50.29,9.88,0.78,0.57,0.3,-1.21,2.27,-0.32
1900-01-01 16:46:26.942,42.22,36.47,8.29,0.6,0.68,0.45,-0.1,0.24,-0.59,34.89,49.96,9.82,0.77,0.57,0.3,-1.37,1.76,-0.41
1900-01-01 16:46:26.990,42.1,36.1,8.36,0.59,0.67,0.45,0.5,0.88,-0.1,34.72,50.06,9.75,0.76,0.57,0.3,-1.0,2.18,0.6
1900-01-01 16:46:27.084,41.75,36.43,8.5,0.6,0.67,0.46,-0.46,0.12,-0.69,34.06,50.62,9.83,0.78,0.56,0.3,-1.18,1.22,0.17
1900-01-01 16:46:27.178,42.12,36.24,8.56,0.59,0.67,0.45,-0.27,-0.21,-0.5,34.9,49.93,9.85,0.76,0.57,0.29,-1.14,1.46,0.09
1900-01-01 16:46:27.225,42.36,36.09,8.64,0.59,0.68,0.45,-0.02,0.27,-0.72,35.01,49.62,9.86,0.77,0.58,0.3,-0.99,1.67,0.18
1900-01-01 16:46:27.320,42.09,36.32,8.69,0.6,0.67,0.45,0.22,0.31,-0.27,35.03,49.52,9.88,0.76,0.58,0.3,-0.81,1.76,-0.44
1900-01-01 16:46:27.367,42.67,36.15,8.81,0.59,0.68,0.44,1.31,1.4,0.03,36.35,48.45,9.8,0.75,0.59,0.3,-0.17,2.52,0.23
1900-01-01 16:46:27.460,41.9,35.75,8.97,0.59,0.67,0.47,0.3,2.11,-0.36,32.58,51.97,9.83,0.79,0.54,0.3,-0.53,2.28,1.19
1900-01-01 16:46:27.555,41.94,36.16,9.08,0.59,0.67,0.46,-0.31,-0.9,-1.05,35.17,49.42,10.0,0.76,0.58,0.3,-0.58,3.32,0.86
1900-01-01 16:46:27.604,42.34,36.47,9.07,0.6,0.68,0.44,0.17,0.74,-0.68,34.57,49.92,10.12,0.76,0.57,0.3,-1.07,3.16,1.16
1900-01-01 16:46:27.696,42.11,36.39,9.13,0.6,0.67,0.45,0.34,0.0,-1.03,33.9,50.44,10.29,0.77,0.56,0.31,-1.55,2.63,0.31
1900-01-01 16:46:27.744,42.1,36.28,9.13,0.6,0.68,0.45,0.52,0.19,-1.14,34.08,50.26,10.33,0.77,0.56,0.31,-0.89,2.45,0.27
1900-01-01 16:46:27.838,42.03,36.09,9.12,0.59,0.67,0.46,-0.14,-0.12,-1.53,34.04,50.02,10.36,0.77,0.56,0.31,-1.73,3.0,0.37
1900-01-01 16:46:27.931,42.56,35.78,9.04,0.59,0.69,0.45,-0.66,-0.17,-1.28,33.73,50.01,10.41,0.78,0.56,0.33,-2.12,0.27,-0.36
1900-01-01 16:46:27.978,42.42,36.21,9.01,0.6,0.69,0.45,-2.72,-0.53,-1.45,34.94,48.9,10.34,0.77,0.59,0.33,-3.8,-2.05,-0.54
1900-01-01 16:46:28.072,42.47,36.22,8.94,0.59,0.68,0.44,-2.37,0.56,0.27,34.13,50.15,10.25,0.76,0.56,0.31,-2.1,0.01,0.55
1900-01-01 16:46:28.167,42.11,35.98,9.14,0.58,0.66,0.45,-0.13,0.77,-0.7,33.37,50.06,10.33,0.75,0.54,0.32,-0.23,5.11,0.37
1900-01-01 16:46:28.213,42.16,36.05,9.19,0.59,0.68,0.45,0.4,0.11,-0.49,35.06,48.98,10.38,0.76,0.58,0.32,-0.94,5.66,1.24
1900-01-01 16:46:28.307,42.46,36.34,9.28,0.6,0.68,0.44,1.12,2.36,0.05,34.34,49.19,10.56,0.75,0.56,0.33,-0.6,6.01,1.59
1900-01-01 16:46:28.355,41.12,35.73,9.44,0.59,0.66,0.48,0.77,0.93,-0.07,30.91,51.89,10.79,0.78,0.51,0.34,-0.18,4.76,1.07
1900-01-01 16:46:28.449,42.61,35.56,9.59,0.58,0.68,0.45,-0.24,0.37,-1.64,33.87,48.65,10.94,0.75,0.56,0.35,-0.69,2.55,0.65
1900-01-01 16:46:28.544,42.85,35.05,9.5,0.59,0.69,0.46,-0.47,0.07,-2.05,33.04,49.32,11.03,0.77,0.55,0.36,-1.25,1.15,0.85
1900-01-01 16:46:28.591,42.18,34.98,9.35,0.58,0.68,0.47,-0.89,-1.43,-1.6,32.16,50.27,11.15,0.77,0.54,0.36,-2.01,1.02,0.02
1900-01-01 16:46:28.684,42.04,35.61,9.26,0.59,0.68,0.47,-2.14,-3.02,-2.63,32.02,50.52,11.15,0.78,0.53,0.35,-3.35,-0.22,-0.13
1900-01-01 16:46:28.732,42.93,35.45,9.02,0.59,0.69,0.45,-2.36,-2.89,-2.12,34.04,48.97,11.12,0.76,0.56,0.35,-3.55,0.98,-0.69
1900-01-01 16:46:28.826,42.54,35.8,8.85,0.59,0.68,0.45,-1.26,-2.09,-2.05,33.17,49.7,11.01,0.76,0.55,0.34,-2.13,0.71,-1.05
1900-01-01 16:46:28.921,42.45,36.22,8.7,0.59,0.68,0.44,-0.95,-2.52,-2.05,34.4,48.8,10.84,0.74,0.56,0.33,-2.2,1.0,-2.54
1900-01-01 16:46:28.968,42.5,36.18,8.54,0.59,0.67,0.44,-0.98,-3.02,-2.34,34.1,48.92,10.44,0.74,0.55,0.34,-1.84,2.95,-2.34
1900-01-01 16:46:29.062,43.02,35.41,8.34,0.59,0.69,0.45,-1.03,-3.36,-2.33,32.85,49.07,10.08,0.76,0.54,0.37,-2.18,1.83,-1.73
1900-01-01 16:46:29.109,43.72,35.11,8.15,0.58,0.7,0.44,-0.89,-2.95,-3.0,34.63,47.49,9.8,0.74,0.57,0.37,-2.91,1.05,-2.02
1900-01-01 16:46:29.204,43.45,35.33,7.85,0.58,0.7,0.44,-0.34,-2.31,-3.47,33.99,48.16,9.49,0.75,0.56,0.37,-2.5,1.46,-2.89
1900-01-01 16:46:29.299,44.39,35.54,7.48,0.6,0.72,0.43,0.37,-0.86,-1.89,36.12,46.24,9.04,0.73,0.6,0.37,-1.6,1.83,-1.68
1900-01-01 16:46:29.345,43.47,35.58,7.35,0.59,0.7,0.44,-0.3,-1.11,-1.47,34.26,47.81,8.77,0.74,0.56,0.37,-1.83,1.21,-1.53
1900-01-01 16:46:29.439,43.69,35.83,7.28,0.59,0.7,0.43,-0.76,-1.32,-1.34,35.3,47.31,8.53,0.74,0.58,0.35,-2.01,1.18,-1.47
1900-01-01 16:46:29.535,44.21,35.69,7.24,0.59,0.7,0.42,-0.22,-0.18,-1.09,35.56,46.97,8.3,0.73,0.58,0.36,-0.96,1.64,-1.16
1900-01-01 16:46:29.581,44.17,35.67,7.23,0.58,0.7,0.42,0.96,0.19,-0.74,36.19,46.35,8.11,0.72,0.59,0.36,-1.0,2.43,-1.49
1900-01-01 16:46:29.676,43.79,35.38,7.28,0.58,0.7,0.43,0.85,-0.69,-0.98,35.63,46.58,7.88,0.73,0.58,0.36,-0.46,2.08,-1.4
1900-01-01 16:46:29.723,43.69,35.5,7.28,0.59,0.7,0.43,-0.06,-0.16,-0.95,34.9,47.18,7.66,0.74,0.57,0.37,-0.83,1.77,-0.66
1900-01-01 16:46:29.821,44.26,35.37,7.3,0.58,0.7,0.43,-0.2,-0.01,-0.73,35.58,46.51,7.55,0.73,0.58,0.37,-0.88,1.7,-0.19
1900-01-01 16:46:29.913,44.43,35.3,7.34,0.58,0.7,0.42,-0.06,-0.01,-0.74,35.64,46.32,7.51,0.72,0.58,0.37,-1.06,1.37,-0.13
1900-01-01 16:46:29.960,44.3,35.48,7.39,0.59,0.71,0.42,0.18,-0.09,-0.69,35.82,46.34,7.48,0.73,0.59,0.37,-0.67,1.79,-0.11
1900-01-01 16:46:30.054,44.05,35.7,7.44,0.59,0.7,0.42,-0.1,-0.44,-0.69,36.42,46.03,7.46,0.72,0.59,0.36,-1.24,1.34,0.02
1900-01-01 16:46:30.103,44.22,35.56,7.5,0.59,0.7,0.42,-0.6,-0.4,-0.7,35.99,46.09,7.45,0.72,0.59,0.37,-1.41,1.19,0.22
1900-01-01 16:46:30.197,44.25,35.89,7.55,0.59,0.7,0.41,-1.08,-0.21,-0.79,36.37,45.88,7.48,0.71,0.59,0.36,-0.63,1.65,0.36
1900-01-01 16:46:30.290,44.46,35.31,7.59,0.58,0.71,0.42,-1.19,0.09,-0.88,36.19,45.97,7.52,0.73,0.6,0.37,0.01,0.6,0.63
1900-01-01 16:46:30.338,43.95,35.56,7.61,0.59,0.7,0.43,0.17,0.4,-0.44,35.75,46.74,7.61,0.73,0.59,0.36,0.19,0.96,0.4
1900-01-01 16:46:30.432,44.29,35.96,7.7,0.6,0.71,0.42,0.95,0.95,0.25,37.45,45.51,7.66,0.72,0.61,0.35,0.41,0.56,0.38
1900-01-01 16:46:30.480,44.49,36.31,7.9,0.59,0.7,0.4,1.5,3.02,1.23,38.25,45.17,7.71,0.7,0.61,0.33,1.28,1.22,1.34
1900-01-01 16:46:30.574,44.06,34.81,8.25,0.57,0.69,0.43,1.24,3.09,1.2,34.54,48.03,7.91,0.73,0.56,0.35,2.14,1.63,0.44
1900-01-01 16:46:30.667,43.94,35.16,8.58,0.58,0.69,0.43,1.01,2.86,0.06,36.17,46.89,7.96,0.73,0.59,0.35,0.16,2.32,1.47
1900-01-01 16:46:30.714,42.9,35.87,8.75,0.6,0.69,0.45,-0.46,1.73,0.79,34.8,48.33,8.18,0.76,0.58,0.35,0.32,0.27,1.04
1900-01-01 16:46:30.809,44.34,35.78,9.03,0.6,0.72,0.42,-1.16,2.83,1.77,37.33,46.42,8.32,0.73,0.61,0.33,-3.16,-0.18,1.62
1900-01-01 16:46:30.856,42.55,36.21,9.46,0.59,0.67,0.44,-1.42,1.53,2.53,33.43,49.29,8.56,0.73,0.53,0.34,-2.56,7.78,4.24
1900-01-01 16:46:30.952,42.62,36.32,10.0,0.58,0.67,0.43,-0.45,5.93,-0.47,35.68,46.95,9.19,0.7,0.56,0.34,-1.44,10.36,5.06
1900-01-01 16:46:31.045,42.84,35.54,10.08,0.58,0.68,0.44,-0.56,0.69,-2.18,33.42,48.01,9.96,0.74,0.55,0.38,1.24,11.27,7.41
1900-01-01 16:46:31.092,42.65,35.29,9.91,0.6,0.7,0.47,-1.84,-2.79,-0.58,33.56,47.81,11.08,0.78,0.58,0.4,0.71,9.23,8.44
1900-01-01 16:46:31.186,41.64,36.66,9.98,0.6,0.67,0.45,-2.53,6.77,-0.6,31.71,48.58,12.35,0.75,0.52,0.4,-1.52,8.06,7.46
1900-01-01 16:46:31.279,42.74,34.91,10.05,0.58,0.68,0.46,-2.81,2.25,0.53,29.72,48.44,13.48,0.74,0.49,0.43,-1.76,10.79,9.18
1900-01-01 16:46:31.326,42.22,35.5,10.29,0.58,0.67,0.46,-3.05,-1.5,-0.15,29.73,47.49,14.87,0.72,0.48,0.45,-1.53,12.08,9.33
1900-01-01 16:46:31.420,42.36,35.5,10.42,0.59,0.68,0.46,-1.41,0.88,-0.03,30.39,47.38,16.29,0.74,0.51,0.45,0.52,10.28,9.8
1900-01-01 16:46:31.469,40.89,36.13,10.58,0.6,0.67,0.48,-1.08,-1.24,0.17,27.74,48.45,17.77,0.76,0.47,0.48,0.83,8.89,7.87
1900-01-01 16:46:31.561,41.66,36.67,10.76,0.6,0.67,0.45,-1.23,5.2,0.44,28.32,47.02,18.96,0.72,0.47,0.48,0.31,6.27,5.56
1900-01-01 16:46:31.655,41.73,35.02,10.98,0.57,0.66,0.47,-0.08,4.53,0.85,26.6,47.88,19.8,0.73,0.44,0.49,0.2,5.09,3.49
1900-01-01 16:46:31.703,40.91,34.51,11.27,0.57,0.66,0.5,1.09,3.77,0.52,25.77,48.87,20.32,0.75,0.43,0.49,0.63,3.86,1.3
1900-01-01 16:46:31.795,41.58,34.39,11.51,0.57,0.67,0.49,0.75,0.96,-0.34,26.31,47.97,20.51,0.74,0.44,0.5,-0.85,2.69,0.63
1900-01-01 16:46:31.889,41.35,34.73,11.62,0.58,0.67,0.5,0.24,0.15,-0.4,26.78,47.81,20.59,0.74,0.45,0.5,-0.64,2.33,0.15
1900-01-01 16:46:31.937,41.28,34.68,11.71,0.57,0.66,0.49,-0.12,0.79,-0.36,26.12,48.12,20.61,0.74,0.44,0.5,-1.02,1.54,0.79
1900-01-01 16:46:32.033,41.25,34.5,11.82,0.57,0.66,0.5,0.08,-0.27,-0.63,26.57,47.97,20.72,0.74,0.45,0.5,-0.4,0.97,-0.15
1900-01-01 16:46:32.080,41.33,34.71,11.88,0.57,0.67,0.49,-0.08,0.05,-1.02,26.52,48.17,20.69,0.74,0.44,0.49,-0.73,0.93,-0.05
1900-01-01 16:46:32.175,41.33,34.82,11.88,0.58,0.67,0.49,-0.21,-0.49,-1.2,26.89,48.0,20.67,0.74,0.45,0.49,-0.68,0.82,0.04
1900-01-01 16:46:32.269,41.5,35.21,11.86,0.58,0.66,0.48,-0.09,-0.24,-0.95,27.13,48.07,20.67,0.73,0.45,0.48,-0.89,1.03,-0.39
1900-01-01 16:46:32.317,41.81,34.34,11.87,0.57,0.68,0.49,-0.28,-0.9,-0.78,27.13,47.74,20.6,0.74,0.46,0.49,-0.95,0.53,-0.27
1900-01-01 16:46:32.410,41.5,35.31,11.91,0.58,0.67,0.48,0.25,-0.23,-0.97,27.49,47.99,20.55,0.74,0.46,0.48,-0.64,0.21,-0.44
1900-01-01 16:46:32.458,41.39,34.82,11.92,0.58,0.67,0.49,0.31,-0.56,-0.81,26.95,48.34,20.48,0.75,0.46,0.49,-0.65,0.38,-0.51
1900-01-01 16:46:32.553,41.29,34.86,11.96,0.58,0.66,0.49,0.15,-0.44,-0.77,26.33,48.63,20.39,0.75,0.44,0.49,-1.1,1.42,-0.44
1900-01-01 16:46:32.647,41.71,34.89,12.0,0.58,0.67,0.48,-0.27,-0.41,-0.79,26.96,48.59,20.31,0.75,0.45,0.48,-0.86,1.15,-0.1
1900-01-01 16:46:32.694,41.61,34.73,12.03,0.57,0.67,0.49,-1.1,-1.18,-1.07,27.07,48.4,20.29,0.74,0.45,0.48,-1.08,0.74,0.24
1900-01-01 16:46:32.789,41.82,35.05,12.03,0.58,0.67,0.48,-1.04,-1.4,-1.57,27.41,48.39,20.32,0.74,0.46,0.47,-0.76,0.56,0.34
1900-01-01 16:46:32.884,42.06,35.5,11.95,0.58,0.67,0.46,-1.09,-0.47,-1.76,28.31,47.95,20.36,0.73,0.47,0.47,-0.73,-0.04,0.55
1900-01-01 16:46:32.929,41.34,34.76,11.84,0.57,0.65,0.48,-1.8,-0.7,-2.95,25.6,48.96,20.43,0.74,0.42,0.48,0.7,-2.63,-0.23
1900-01-01 16:46:33.024,41.94,34.48,11.54,0.57,0.67,0.48,-4.3,-3.08,-4.44,26.57,50.12,20.39,0.76,0.44,0.45,-1.88,-8.15,-1.95
1900-01-01 16:46:33.070,42.0,34.66,11.02,0.58,0.68,0.49,-2.44,-7.28,-3.13,28.04,49.11,20.08,0.77,0.48,0.46,-4.64,-6.03,-2.82
1900-01-01 16:46:33.164,41.34,34.15,10.7,0.57,0.68,0.51,-2.51,-5.85,-2.24,26.98,50.09,19.64,0.78,0.46,0.46,-3.96,-2.74,-3.74
1900-01-01 16:46:33.259,41.6,34.13,10.51,0.57,0.68,0.5,-3.92,-2.37,-2.52,26.57,51.11,19.06,0.79,0.46,0.45,-4.12,-1.53,-4.05
1900-01-01 16:46:33.304,42.38,35.72,10.29,0.58,0.67,0.45,-4.18,-4.69,-3.33,30.86,48.25,18.43,0.74,0.51,0.42,-3.73,-1.74,-2.44
1900-01-01 16:46:33.402,40.8,35.54,9.93,0.59,0.66,0.49,-1.37,-8.26,-1.89,27.91,49.26,18.05,0.76,0.47,0.46,-3.88,-1.16,-2.31
1900-01-01 16:46:33.446,41.78,36.84,9.8,0.61,0.67,0.45,-1.59,-2.6,-1.78,31.41,48.75,17.68,0.75,0.52,0.4,-3.05,-2.21,-0.96
1900-01-01 16:46:33.539,39.93,35.73,9.69,0.59,0.65,0.5,-0.05,-2.99,-1.07,26.19,51.2,17.53,0.78,0.44,0.44,-2.83,-1.51,-3.66
1900-01-01 16:46:33.635,42.67,35.33,9.68,0.57,0.67,0.45,-1.47,-3.63,-2.5,30.78,48.1,16.96,0.73,0.5,0.42,-2.82,-2.42,-4.16
1900-01-01 16:46:33.680,42.02,35.56,9.46,0.58,0.67,0.46,-0.5,-2.5,-3.03,30.87,48.46,16.31,0.75,0.51,0.42,-3.2,-1.88,-7.42
1900-01-01 16:46:33.774,41.73,35.84,9.15,0.6,0.68,0.47,-0.46,-2.5,-1.95,30.16,50.45,15.17,0.78,0.51,0.4,-5.94,-3.76,-9.25
1900-01-01 16:46:33.870,42.69,36.17,9.01,0.61,0.7,0.45,2.63,-1.95,-1.44,33.83,46.66,13.74,0.75,0.57,0.41,-6.5,-6.53,-11.7
1900-01-01 16:46:33.914,42.63,36.54,8.95,0.61,0.69,0.44,0.6,-1.95,-0.01,34.58,46.41,11.94,0.73,0.57,0.39,-3.07,-7.31,-7.48
1900-01-01 16:46:34.009,41.98,36.84,9.11,0.61,0.68,0.45,0.79,-1.22,0.77,33.3,48.61,10.79,0.75,0.55,0.37,-3.76,-8.62,-8.58
1900-01-01 16:46:34.102,43.39,35.34,9.39,0.59,0.7,0.45,-0.68,3.04,-0.28,35.05,46.86,9.47,0.73,0.57,0.37,-1.28,-9.35,-5.76
1900-01-01 16:46:34.150,41.51,35.99,9.5,0.58,0.66,0.46,-1.51,0.02,-1.02,34.31,48.69,8.59,0.74,0.56,0.34,-2.56,-7.21,-5.08
1900-01-01 16:46:34.244,42.04,35.82,9.5,0.59,0.68,0.46,-0.58,-1.64,-1.31,36.9,46.87,7.8,0.74,0.61,0.33,-3.04,-5.46,-5.31
1900-01-01 16:46:34.336,42.26,35.8,9.46,0.58,0.67,0.45,1.04,3.27,-1.15,38.0,45.99,6.98,0.73,0.62,0.32,-1.66,-2.73,-3.68
1900-01-01 16:46:34.383,41.23,35.64,9.45,0.58,0.66,0.48,-1.21,-0.08,-0.5,34.7,48.36,6.42,0.75,0.57,0.34,-2.76,-4.08,-4.34
1900-01-01 16:46:34.476,41.6,36.78,9.53,0.6,0.67,0.45,-1.14,0.57,-0.85,39.04,46.02,5.74,0.73,0.64,0.3,-2.75,-3.26,-3.33
1900-01-01 16:46:34.524,41.82,35.71,9.56,0.59,0.67,0.47,0.49,0.5,-0.39,38.29,46.35,5.23,0.73,0.62,0.31,-1.31,-0.14,-1.9
1900-01-01 16:46:34.622,42.91,35.17,9.66,0.58,0.69,0.45,-0.27,0.49,-0.38,38.24,45.75,4.93,0.71,0.62,0.32,-3.29,1.69,1.5
1900-01-01 16:46:34.667,42.33,35.54,9.76,0.59,0.69,0.46,-0.45,0.0,-0.3,37.57,46.47,5.15,0.73,0.61,0.32,-2.32,2.34,1.44
1900-01-01 16:46:34.762,41.01,36.39,9.87,0.6,0.66,0.47,-0.27,-0.16,-0.68,36.63,47.55,5.36,0.74,0.6,0.32,-1.19,2.05,0.27
1900-01-01 16:46:34.854,41.65,36.42,9.93,0.6,0.67,0.46,-0.62,0.22,-0.54,36.94,47.34,5.39,0.73,0.6,0.31,-1.03,2.0,-0.08
1900-01-01 16:46:34.902,42.06,36.12,10.0,0.59,0.67,0.45,0.21,0.05,-0.64,37.46,46.62,5.37,0.72,0.6,0.32,-0.79,1.98,-0.45
1900-01-01 16:46:34.997,41.93,35.82,10.06,0.59,0.68,0.47,0.15,-0.16,-0.73,37.47,46.37,5.29,0.73,0.61,0.33,-1.21,1.78,-0.06
1900-01-01 16:46:35.089,41.61,36.02,10.11,0.59,0.67,0.47,-0.58,0.01,-0.58,37.21,46.88,5.28,0.73,0.61,0.32,-1.6,1.69,0.66
1900-01-01 16:46:35.137,41.74,36.2,10.18,0.6,0.67,0.46,-0.23,-0.34,-0.73,37.5,46.65,5.37,0.73,0.61,0.32,-1.24,1.92,-0.11
1900-01-01 16:46:35.230,42.09,36.24,10.23,0.6,0.68,0.45,-0.65,-0.01,-0.45,37.73,46.31,5.34,0.72,0.61,0.32,-1.44,1.71,0.31
1900-01-01 16:46:35.278,41.74,36.24,10.32,0.59,0.67,0.46,-0.27,-0.21,-0.57,37.38,46.44,5.38,0.72,0.6,0.32,-0.89,2.08,-0.34
1900-01-01 16:46:35.371,41.55,36.33,10.39,0.6,0.67,0.46,-0.63,-0.55,-0.52,37.22,46.64,5.32,0.73,0.61,0.33,-1.18,1.8,0.47
1900-01-01 16:46:35.465,41.26,36.42,10.47,0.6,0.67,0.47,-0.73,-0.72,-0.24,36.96,46.96,5.39,0.73,0.6,0.32,-1.3,2.14,-0.44
1900-01-01 16:46:35.511,41.97,36.07,10.59,0.6,0.68,0.46,-1.09,-0.29,0.37,37.34,46.3,5.31,0.73,0.61,0.33,-2.23,2.4,0.24
1900-01-01 16:46:35.607,41.87,36.27,10.8,0.6,0.68,0.46,-1.23,-0.73,1.28,37.62,45.89,5.34,0.73,0.62,0.34,-3.6,4.79,-1.4
1900-01-01 16:46:35.700,40.5,37.15,11.16,0.61,0.65,0.47,-0.46,-0.31,1.49,37.07,46.17,5.12,0.72,0.6,0.34,-3.52,5.4,-1.1
1900-01-01 16:46:35.746,39.87,37.6,11.54,0.61,0.64,0.47,-1.17,-0.85,0.31,36.78,46.11,4.94,0.72,0.6,0.35,-3.36,5.64,-0.96
1900-01-01 16:46:35.840,40.3,37.29,11.75,0.62,0.66,0.47,-1.76,-0.98,0.5,36.59,45.49,4.79,0.71,0.6,0.37,-3.79,6.74,-1.28
1900-01-01 16:46:35.934,40.21,37.5,11.98,0.62,0.66,0.47,-3.26,-2.84,1.82,36.47,44.87,4.58,0.71,0.6,0.39,-4.69,5.67,-0.37
1900-01-01 16:46:35.981,39.98,38.22,12.42,0.62,0.65,0.46,-2.66,-1.51,0.72,37.94,43.18,4.52,0.68,0.61,0.39,-5.33,6.04,-0.96
1900-01-01 16:46:36.075,39.33,38.86,12.69,0.63,0.64,0.45,-4.52,-5.5,1.1,37.57,42.64,4.36,0.67,0.6,0.4,-4.59,5.92,-1.57
1900-01-01 16:46:36.122,38.82,38.62,13.01,0.63,0.63,0.47,-3.51,-3.27,-0.11,36.4,42.69,4.11,0.68,0.6,0.44,-5.54,9.66,-2.7
1900-01-01 16:46:36.215,38.67,39.04,13.16,0.63,0.63,0.46,-2.3,-1.83,0.52,36.86,41.32,3.69,0.65,0.59,0.45,-5.61,5.81,-1.3
1900-01-01 16:46:36.309,38.46,39.11,13.39,0.65,0.64,0.48,-2.33,-1.89,0.79,36.29,41.16,3.48,0.67,0.6,0.47,-7.21,8.27,-0.7
1900-01-01 16:46:36.356,38.21,39.85,13.67,0.66,0.63,0.47,-1.98,-0.92,1.24,36.73,40.09,3.37,0.65,0.6,0.48,-8.4,7.65,-0.53
1900-01-01 16:46:36.450,37.63,40.22,14.02,0.66,0.62,0.47,-1.8,-1.88,1.44,36.53,37.66,3.28,0.61,0.59,0.52,-9.85,12.09,-0.77
1900-01-01 16:46:36.544,35.28,42.53,14.4,0.67,0.57,0.45,-2.74,-2.81,2.65,35.55,35.41,3.15,0.58,0.58,0.57,-12.68,18.33,-4.73
1900-01-01 16:46:36.590,34.95,42.6,14.96,0.67,0.57,0.46,-3.47,-2.6,2.6,34.2,34.13,2.42,0.54,0.54,0.59,-11.53,13.56,-2.05
1900-01-01 16:46:36.684,34.62,42.87,15.52,0.67,0.56,0.46,-2.71,-1.13,0.61,32.89,33.61,2.1,0.53,0.52,0.6,-9.68,12.05,-2.08
1900-01-01 16:46:36.729,36.06,41.26,15.77,0.66,0.59,0.47,-1.12,-0.2,-1.4,32.12,31.11,1.77,0.5,0.51,0.65,-8.6,7.97,-1.67
1900-01-01 16:46:36.824,35.61,42.37,15.71,0.67,0.58,0.45,0.5,0.14,-2.72,32.87,28.67,1.51,0.46,0.52,0.67,-3.95,4.88,-1.08
1900-01-01 16:46:36.918,35.66,41.99,15.46,0.66,0.58,0.45,1.11,0.85,-4.06,32.02,29.4,1.33,0.47,0.51,0.66,-2.43,4.94,-1.24
1900-01-01 16:46:36.965,35.67,41.0,15.0,0.66,0.59,0.48,2.38,0.9,-4.7,31.18,29.28,1.14,0.49,0.52,0.7,1.02,1.88,-0.32
1900-01-01 16:46:37.058,35.82,41.61,14.45,0.69,0.61,0.48,1.94,0.34,-2.36,31.61,29.48,1.08,0.5,0.53,0.7,1.24,1.84,0.41
1900-01-01 16:46:37.105,37.14,40.7,14.25,0.66,0.61,0.46,0.89,1.02,-1.4,31.87,29.01,1.14,0.47,0.51,0.68,-0.27,1.18,0.93
1900-01-01 16:46:37.198,36.57,41.32,14.19,0.65,0.59,0.45,1.22,0.69,-3.85,32.8,29.96,1.27,0.47,0.51,0.64,2.18,-0.68,1.21
1900-01-01 16:46:37.292,36.84,40.25,13.77,0.64,0.6,0.47,0.66,3.04,-8.7,30.87,32.22,1.44,0.51,0.5,0.65,9.12,-8.5,6.17
1900-01-01 16:46:37.339,38.57,39.17,12.61,0.66,0.65,0.48,-1.9,4.09,-9.28,34.14,34.11,2.37,0.57,0.57,0.62,4.54,-6.85,4.43
1900-01-01 16:46:37.433,43.23,33.75,11.35,0.6,0.74,0.51,-1.95,1.38,-3.43,33.5,29.53,3.04,0.53,0.59,0.72,-2.65,3.5,-0.37
1900-01-01 16:46:37.527,40.17,36.98,10.99,0.59,0.64,0.46,-1.15,0.05,-0.96,34.11,33.67,2.97,0.52,0.53,0.58,-1.02,1.24,-0.38
1900-01-01 16:46:37.573,38.94,37.5,11.0,0.61,0.63,0.49,-0.65,2.38,-5.92,34.28,32.73,2.91,0.54,0.56,0.62,-2.0,3.08,-1.01
1900-01-01 16:46:37.667,40.14,36.59,10.26,0.62,0.67,0.5,-0.72,1.94,-2.01,34.96,31.29,2.74,0.53,0.59,0.65,-0.39,1.16,1.13
1900-01-01 16:46:37.714,37.12,39.11,10.11,0.62,0.6,0.48,-1.45,3.15,-2.66,32.44,34.98,2.91,0.55,0.51,0.59,-0.83,-1.25,1.6
1900-01-01 16:46:37.808,41.08,34.76,9.86,0.58,0.67,0.5,-1.6,0.99,-0.66,32.48,30.44,3.14,0.5,0.53,0.67,-4.34,3.11,-0.9
1900-01-01 16:46:38.244,42.67,31.44,9.92,0.51,0.66,0.5,-2.82,1.64,0.7,31.56,30.43,3.0,0.47,0.48,0.63,-4.54,2.32,-0.71
1900-01-01 16:46:38.244,40.07,34.55,10.18,0.56,0.64,0.51,-0.85,-0.78,-3.28,32.46,32.27,2.88,0.52,0.52,0.63,-0.63,2.02,-0.85
1900-01-01 16:46:38.244,40.62,34.89,9.84,0.59,0.67,0.51,-0.5,-0.32,-1.76,33.78,30.72,2.74,0.51,0.56,0.66,-1.29,1.37,-0.34
1900-01-01 16:46:38.244,39.36,36.25,9.73,0.6,0.64,0.5,-0.4,-1.0,-1.5,33.84,31.49,2.68,0.51,0.55,0.64,-0.67,1.45,-0.25
1900-01-01 16:46:38.244,40.32,35.21,9.66,0.58,0.65,0.5,-0.01,-0.39,-0.05,32.94,32.97,2.63,0.52,0.52,0.62,-1.25,0.86,0.23
1900-01-01 16:46:38.254,40.62,34.77,9.81,0.58,0.66,0.51,-0.83,-0.27,-1.22,33.58,31.13,2.66,0.51,0.55,0.65,-0.97,0.84,0.53
1900-01-01 16:46:38.343,40.25,35.24,9.79,0.59,0.66,0.51,-0.5,-0.24,-1.05,33.49,31.77,2.73,0.52,0.54,0.64,-0.51,0.95,0.4
1900-01-01 16:46:38.437,39.84,35.44,9.78,0.58,0.64,0.51,-0.04,-0.43,-0.65,33.11,32.29,2.79,0.52,0.53,0.63,-0.69,1.21,-0.02
1900-01-01 16:46:38.484,39.64,35.79,9.84,0.59,0.65,0.51,-0.21,-0.63,-1.4,33.7,32.44,2.78,0.53,0.55,0.63,-1.21,1.23,-0.29
1900-01-01 16:46:38.578,41.0,34.76,9.79,0.57,0.66,0.5,-0.17,-0.27,-0.44,33.66,30.82,2.72,0.5,0.54,0.64,-1.43,0.63,-0.24
1900-01-01 16:46:38.673,42.16,33.45,9.88,0.56,0.68,0.5,0.05,-1.13,0.47,33.99,29.83,2.68,0.49,0.55,0.66,-0.07,0.35,0.19
1900-01-01 16:46:38.722,41.23,34.12,10.11,0.57,0.67,0.51,0.1,-1.01,1.1,32.26,32.02,2.7,0.52,0.52,0.65,-2.77,1.04,-0.48
1900-01-01 16:46:38.814,41.94,33.71,10.44,0.56,0.68,0.5,1.55,-2.3,2.8,34.18,28.01,2.62,0.47,0.56,0.67,0.21,2.34,-1.13
1900-01-01 16:46:38.860,41.43,33.74,11.02,0.55,0.66,0.5,1.37,-3.82,4.05,31.08,31.47,2.44,0.5,0.5,0.66,-0.49,1.05,-1.68
1900-01-01 16:46:38.955,37.66,39.11,11.79,0.64,0.62,0.49,1.95,-4.94,2.56,34.74,33.01,2.17,0.54,0.56,0.61,1.96,1.93,-0.46
1900-01-01 16:46:39.050,35.4,42.17,12.34,0.69,0.59,0.47,0.34,-3.95,1.93,34.1,36.19,2.1,0.58,0.55,0.57,0.81,1.19,-0.34
1900-01-01 16:46:39.097,36.74,41.67,12.79,0.67,0.6,0.45,0.46,-1.63,0.15,36.02,33.7,2.03,0.54,0.57,0.57,0.05,1.61,0.15
1900-01-01 16:46:39.191,39.79,38.25,12.97,0.63,0.65,0.46,0.41,-0.23,-0.93,35.27,30.25,2.05,0.5,0.57,0.63,1.37,0.24,1.08
1900-01-01 16:46:39.255,39.44,38.92,12.99,0.63,0.64,0.45,0.04,-1.5,-0.45,35.08,31.36,2.2,0.51,0.57,0.62,0.6,1.04,-0.08
1900-01-01 16:46:39.333,38.03,39.72,13.08,0.65,0.62,0.47,0.06,-1.26,-0.34,34.21,33.42,2.18,0.54,0.55,0.6,0.91,-0.11,0.56
1900-01-01 16:46:39.428,39.38,39.08,13.19,0.64,0.65,0.46,-0.69,-0.73,-0.05,35.9,32.02,2.26,0.53,0.58,0.61,0.34,-0.78,1.81
1900-01-01 16:46:39.475,39.73,38.93,13.34,0.64,0.65,0.45,-0.17,-0.45,0.15,35.78,31.96,2.53,0.52,0.58,0.61,-0.12,0.1,1.31
1900-01-01 16:46:39.569,39.34,39.44,13.52,0.64,0.64,0.45,0.5,-0.69,0.63,35.61,31.56,2.72,0.52,0.57,0.61,0.55,0.64,1.44
1900-01-01 16:46:39.616,39.09,39.77,13.77,0.64,0.63,0.44,0.24,-1.5,0.66,35.39,32.18,2.93,0.52,0.56,0.6,-0.34,1.15,0.87
1900-01-01 16:46:39.710,38.42,40.66,14.03,0.65,0.62,0.44,0.14,-0.69,-0.19,35.91,33.69,3.05,0.54,0.57,0.57,0.24,0.44,0.85
1900-01-01 16:46:39.804,38.15,40.54,14.16,0.66,0.63,0.45,0.11,-1.04,-0.7,35.17,34.04,3.17,0.55,0.57,0.59,0.33,-0.2,0.11
1900-01-01 16:46:39.853,39.01,40.28,14.21,0.66,0.65,0.44,-0.24,-1.13,-0.89,36.75,32.48,3.18,0.53,0.6,0.59,-0.78,0.89,0.26
1900-01-01 16:46:39.944,38.42,40.46,14.24,0.66,0.63,0.45,-0.86,-0.42,-0.67,35.48,33.69,3.21,0.55,0.57,0.59,-0.85,1.31,0.1
1900-01-01 16:46:39.991,39.69,39.46,14.29,0.65,0.65,0.44,-0.49,-0.4,0.14,37.05,31.46,3.22,0.52,0.6,0.6,0.21,0.87,1.12
1900-01-01 16:46:40.086,36.13,42.33,14.47,0.67,0.59,0.44,-1.29,-1.03,-0.05,34.22,36.37,3.38,0.57,0.54,0.55,-2.44,2.05,-0.21
1900-01-01 16:46:40.180,38.32,40.97,14.62,0.66,0.62,0.43,-0.25,-0.14,-1.26,36.39,33.13,3.34,0.53,0.58,0.58,-1.16,1.15,0.05
1900-01-01 16:46:40.261,38.42,40.74,14.59,0.66,0.63,0.44,-0.18,-0.69,-0.79,36.0,32.9,3.34,0.54,0.58,0.6,-0.53,0.58,0.14
1900-01-01 16:46:40.323,38.29,40.91,14.63,0.66,0.62,0.43,-0.25,-0.46,-0.27,36.03,33.22,3.35,0.54,0.58,0.58,-1.44,1.29,0.09
1900-01-01 16:46:40.417,37.76,41.2,14.74,0.67,0.62,0.44,-0.79,-0.66,-1.15,35.48,34.66,3.36,0.56,0.57,0.57,-0.86,0.97,-0.38
1900-01-01 16:46:40.468,37.71,41.52,14.73,0.68,0.63,0.44,-0.54,-0.58,-0.61,36.01,34.21,3.29,0.56,0.59,0.58,-0.86,0.85,0.33
1900-01-01 16:46:40.559,37.47,41.6,14.79,0.68,0.63,0.45,-1.19,0.07,-0.18,35.56,33.93,3.33,0.56,0.58,0.59,-1.57,-0.14,0.9
1900-01-01 16:46:40.606,38.55,39.99,14.92,0.64,0.62,0.45,-2.23,-0.91,-0.94,36.04,33.19,3.46,0.53,0.57,0.58,-2.06,-0.35,0.01
1900-01-01 16:46:40.701,35.37,43.06,14.94,0.68,0.57,0.44,-1.53,-0.46,-2.31,34.76,37.5,3.45,0.58,0.55,0.53,-1.95,1.75,-0.9
1900-01-01 16:46:40.794,38.61,40.79,14.74,0.67,0.64,0.44,-1.53,0.16,-2.11,35.83,33.34,3.31,0.55,0.59,0.6,-1.98,0.69,-0.16
1900-01-01 16:46:40.842,37.65,40.99,14.58,0.65,0.61,0.44,-1.06,-1.04,-2.0,35.85,35.53,3.28,0.56,0.56,0.54,-0.34,0.94,-1.09
1900-01-01 16:46:40.936,38.06,40.28,14.43,0.65,0.62,0.45,-0.6,0.06,-2.12,34.11,35.15,3.1,0.57,0.55,0.58,-1.62,0.37,-0.37
1900-01-01 16:46:41.028,39.39,39.16,14.27,0.64,0.64,0.45,-0.86,-0.04,-3.07,36.88,31.68,3.04,0.52,0.6,0.6,-0.97,1.99,0.09
1900-01-01 16:46:41.075,37.53,40.97,13.96,0.66,0.62,0.45,-0.34,-0.24,-2.61,35.12,36.2,3.04,0.57,0.56,0.55,-2.08,2.36,-0.67
1900-01-01 16:46:41.175,39.63,39.15,13.72,0.65,0.65,0.45,-1.06,0.52,-2.46,35.55,33.55,2.93,0.55,0.58,0.6,-1.53,0.49,0.93
1900-01-01 16:46:41.219,39.85,38.51,13.5,0.63,0.65,0.45,-1.63,0.46,-1.93,34.83,33.14,3.06,0.54,0.56,0.6,-2.39,0.77,-0.15
1900-01-01 16:46:41.313,40.69,37.65,13.37,0.61,0.65,0.45,0.08,-0.63,-0.87,35.68,32.07,3.03,0.52,0.57,0.6,-0.37,1.35,-0.47
1900-01-01 16:46:41.406,39.4,39.16,13.39,0.64,0.64,0.45,-0.11,-0.78,-1.18,35.74,33.56,2.95,0.55,0.58,0.59,-0.85,0.75,0.13
1900-01-01 16:46:41.453,38.65,39.77,13.37,0.65,0.63,0.45,0.13,-0.42,-0.45,35.44,34.22,2.97,0.55,0.57,0.58,-0.59,1.44,0.11
1900-01-01 16:46:41.547,38.78,39.69,13.46,0.64,0.63,0.45,0.34,-0.6,-1.05,35.54,34.13,2.97,0.55,0.57,0.58,0.44,1.02,-0.15
1900-01-01 16:46:41.594,39.14,39.77,13.46,0.65,0.64,0.44,-0.53,-0.48,-1.71,36.01,34.26,2.94,0.55,0.58,0.57,-0.23,0.14,-0.4
1900-01-01 16:46:41.687,39.38,39.54,13.36,0.64,0.64,0.44,-0.01,-0.38,-1.5,36.88,33.38,2.87,0.54,0.59,0.57,-0.27,-0.15,-0.31
1900-01-01 16:46:41.782,39.42,39.26,13.28,0.64,0.64,0.45,-0.02,-0.23,-1.27,35.83,34.21,2.82,0.55,0.57,0.57,0.46,0.18,-0.3
1900-01-01 16:46:41.829,39.6,39.33,13.25,0.64,0.65,0.44,0.71,-0.41,-1.2,36.76,34.12,2.76,0.55,0.59,0.56,0.83,0.44,0.81
1900-01-01 16:46:41.922,39.53,39.22,13.23,0.64,0.64,0.45,1.21,0.15,-0.79,36.34,34.84,2.88,0.56,0.58,0.56,0.63,1.15,1.54
1900-01-01 16:46:42.017,39.57,39.38,13.27,0.64,0.64,0.44,-0.12,-0.03,-0.93,36.22,35.05,3.1,0.57,0.58,0.56,-0.26,1.27,2.8
1900-01-01 16:46:42.065,39.74,39.29,13.28,0.64,0.65,0.44,-0.75,-0.73,-0.95,35.81,35.48,3.52,0.57,0.57,0.55,0.24,1.3,4.42
1900-01-01 16:46:42.160,39.84,39.52,13.3,0.64,0.65,0.43,-0.92,-0.42,-1.77,36.08,35.98,4.18,0.58,0.58,0.55,0.44,1.33,5.53
1900-01-01 16:46:42.207,40.86,39.33,13.19,0.65,0.67,0.42,-3.92,-0.02,-2.56,36.58,35.22,5.02,0.57,0.59,0.55,-3.89,0.42,7.54
1900-01-01 16:46:42.301,40.24,38.84,12.95,0.64,0.66,0.45,-1.21,0.16,-1.18,34.77,37.27,6.16,0.6,0.57,0.55,-0.84,0.14,4.79
1900-01-01 16:46:42.395,39.72,38.85,12.93,0.64,0.65,0.45,-0.76,-0.39,-1.08,33.78,38.38,6.88,0.62,0.56,0.55,1.98,2.34,5.31
1900-01-01 16:46:42.442,38.69,39.05,12.93,0.64,0.63,0.47,-0.42,-0.78,-0.55,32.66,39.35,7.68,0.63,0.54,0.55,2.18,4.16,6.27
1900-01-01 16:46:42.535,38.58,39.31,13.0,0.64,0.63,0.46,-1.6,-1.48,-0.74,32.38,39.86,8.62,0.63,0.53,0.54,-0.66,7.21,9.52
1900-01-01 16:46:42.582,39.76,39.37,13.05,0.64,0.64,0.43,-0.96,-0.98,-1.32,32.57,37.91,10.07,0.61,0.53,0.57,2.31,4.88,3.73
1900-01-01 16:46:42.677,39.82,40.1,13.0,0.64,0.64,0.42,-2.03,0.27,-0.61,31.45,39.11,10.63,0.61,0.5,0.55,-2.25,1.15,0.89
1900-01-01 16:46:42.771,40.7,39.7,13.07,0.64,0.66,0.41,0.08,0.18,-0.44,35.08,36.46,10.75,0.58,0.56,0.55,0.24,-1.78,0.66
1900-01-01 16:46:42.818,39.07,39.26,13.16,0.63,0.63,0.45,-0.79,0.5,-1.07,31.47,39.98,10.85,0.63,0.51,0.55,2.08,-4.4,1.37
1900-01-01 16:46:42.913,38.72,39.89,13.16,0.64,0.62,0.44,-2.23,0.24,-2.16,32.29,40.11,11.05,0.63,0.52,0.53,2.31,-5.28,-0.58
1900-01-01 16:46:43.005,39.27,39.2,12.99,0.64,0.64,0.45,-2.56,-0.2,-1.95,32.47,40.7,10.95,0.65,0.53,0.53,1.22,-4.92,-1.08
1900-01-01 16:46:43.053,37.79,39.78,12.85,0.66,0.63,0.48,-2.86,-0.39,-0.95,30.95,43.87,10.78,0.7,0.52,0.51,2.59,-10.09,-2.73
1900-01-01 16:46:43.148,38.78,39.62,12.86,0.65,0.63,0.45,0.28,0.41,-1.82,35.78,43.54,10.35,0.68,0.58,0.42,-2.47,-7.89,-6.2
1900-01-01 16:46:43.195,40.14,38.5,12.74,0.63,0.65,0.45,0.16,1.63,-1.68,34.15,42.74,9.39,0.67,0.55,0.47,-3.06,-6.56,-5.35
1900-01-01 16:46:43.280,40.64,36.97,12.64,0.61,0.66,0.47,-2.21,-0.36,-1.98,34.39,41.14,8.57,0.66,0.57,0.5,-3.32,-5.14,-5.67
1900-01-01 16:46:43.384,39.63,38.17,12.5,0.63,0.65,0.47,-3.1,-1.61,-1.23,36.36,41.77,7.69,0.67,0.59,0.45,-3.22,-1.88,-5.46
1900-01-01 16:46:43.431,39.22,37.93,12.47,0.63,0.65,0.48,-3.72,-2.27,-1.56,36.08,42.31,6.85,0.67,0.59,0.45,-3.25,-0.91,-4.02
1900-01-01 16:46:43.525,40.81,37.87,12.39,0.62,0.66,0.45,-2.6,2.23,-1.46,36.03,41.46,6.22,0.65,0.58,0.45,-6.41,-1.69,-2.2
1900-01-01 16:46:43.619,38.57,38.5,12.32,0.62,0.63,0.47,-0.8,-2.04,-2.21,36.25,41.93,5.88,0.66,0.58,0.45,1.15,0.88,-2.4
1900-01-01 16:46:43.666,39.33,38.76,12.14,0.63,0.64,0.46,0.53,0.05,-1.97,37.43,41.42,5.51,0.67,0.61,0.44,-0.5,0.02,0.08
1900-01-01 16:46:43.760,39.69,38.41,12.0,0.63,0.65,0.46,1.86,0.28,-0.89,37.26,41.18,5.51,0.66,0.6,0.44,-0.88,1.53,1.32
1900-01-01 16:46:43.807,40.11,38.03,12.03,0.62,0.65,0.45,0.45,1.77,-0.54,36.56,41.44,5.7,0.66,0.59,0.45,-2.98,-0.4,4.36
1900-01-01 16:46:43.901,39.77,38.05,12.1,0.62,0.64,0.46,-0.31,0.71,-1.4,35.86,42.4,6.36,0.66,0.58,0.44,-3.96,0.81,2.89
1900-01-01 16:46:43.995,39.25,38.92,12.05,0.62,0.62,0.45,-0.27,1.46,-2.34,35.69,42.14,6.79,0.66,0.57,0.45,-1.68,2.19,2.02
1900-01-01 16:46:44.043,38.96,38.89,11.85,0.64,0.64,0.47,0.04,0.04,-0.82,34.47,43.55,7.09,0.69,0.57,0.46,-1.81,3.16,0.83
1900-01-01 16:46:44.137,39.59,37.9,11.89,0.63,0.66,0.48,-0.46,-1.58,0.1,34.28,43.03,7.2,0.69,0.57,0.47,-1.07,0.94,0.02
1900-01-01 16:46:44.188,39.84,37.86,12.06,0.62,0.65,0.46,-0.36,-1.25,0.09,34.64,43.29,7.2,0.68,0.56,0.45,-1.16,-0.63,0.49
1900-01-01 16:46:44.296,39.29,38.08,12.23,0.63,0.65,0.48,-0.79,-0.81,-0.01,34.31,43.42,7.26,0.69,0.57,0.46,-2.97,-1.4,0.24
1900-01-01 16:46:44.375,38.93,38.98,12.39,0.65,0.65,0.47,-1.82,0.02,0.4,34.61,43.68,7.29,0.7,0.58,0.45,-3.15,-0.74,1.93
1900-01-01 16:46:44.421,39.55,38.76,12.61,0.63,0.64,0.45,-2.31,0.24,1.21,34.88,43.03,7.58,0.68,0.57,0.45,-1.98,-0.76,1.62
1900-01-01 16:46:44.515,39.26,38.11,12.95,0.61,0.62,0.46,-1.09,-0.61,0.42,33.76,43.59,7.82,0.67,0.54,0.45,-0.47,-1.37,0.27
1900-01-01 16:46:44.563,39.21,38.5,13.17,0.61,0.62,0.45,-0.06,-1.12,-0.18,34.43,43.93,7.85,0.67,0.55,0.43,-0.28,0.52,-0.82
1900-01-01 16:46:44.657,38.63,38.87,13.3,0.64,0.64,0.47,0.23,-0.97,-0.36,34.75,43.8,7.72,0.7,0.57,0.44,-0.17,0.92,-0.17
1900-01-01 16:46:44.751,38.57,38.94,13.41,0.64,0.63,0.47,-0.49,-0.59,-0.75,33.77,44.67,7.68,0.7,0.55,0.44,-0.73,0.42,-0.11
1900-01-01 16:46:44.797,39.06,38.81,13.45,0.63,0.64,0.46,-0.1,-0.11,-0.85,34.62,44.02,7.66,0.69,0.57,0.44,-1.27,1.03,0.06
1900-01-01 16:46:44.892,37.75,40.3,13.48,0.67,0.63,0.47,0.39,0.4,0.05,34.91,44.32,7.66,0.71,0.58,0.44,-0.82,0.18,0.49
1900-01-01 16:46:44.985,36.93,41.36,13.65,0.69,0.63,0.47,0.18,0.34,2.13,35.02,44.85,7.72,0.73,0.6,0.43,0.36,-1.18,1.27
1900-01-01 16:46:45.033,39.2,38.72,14.13,0.61,0.62,0.45,7.41,11.38,2.02,34.03,44.17,7.91,0.67,0.53,0.43,-0.54,-0.69,0.7
1900-01-01 16:46:45.126,40.08,36.62,14.59,0.58,0.62,0.46,-0.59,1.47,0.29,34.42,43.34,8.01,0.65,0.54,0.44,-1.54,1.11,-0.56
1900-01-01 16:46:45.173,37.47,39.38,14.8,0.64,0.61,0.48,-5.75,-7.2,-1.76,33.71,45.59,7.91,0.71,0.55,0.42,-1.56,0.61,0.26
1900-01-01 16:46:45.292,37.17,40.33,14.69,0.68,0.64,0.49,-0.61,-2.66,-0.85,34.14,45.86,7.94,0.74,0.58,0.43,-1.88,0.45,0.47
1900-01-01 16:46:45.362,38.01,38.87,14.72,0.64,0.62,0.48,3.97,7.02,-0.85,33.71,45.42,8.01,0.72,0.56,0.43,-2.51,1.47,0.39
1900-01-01 16:46:45.410,37.45,39.84,14.75,0.64,0.61,0.47,0.6,0.28,1.11,34.21,45.42,8.06,0.69,0.55,0.41,-0.98,2.05,-0.11
1900-01-01 16:46:45.503,37.46,40.03,15.07,0.64,0.6,0.46,1.83,-0.71,-0.58,34.08,45.13,8.03,0.69,0.55,0.42,-1.24,1.27,1.4
1900-01-01 16:46:45.550,38.62,39.41,15.14,0.64,0.63,0.46,-0.47,0.04,-0.61,33.98,44.76,8.24,0.71,0.56,0.44,-1.4,1.55,-0.34
1900-01-01 16:46:45.644,38.65,39.73,15.21,0.64,0.63,0.45,0.5,-0.52,-0.38,35.63,44.25,8.17,0.69,0.58,0.41,0.51,1.15,0.74
1900-01-01 16:46:45.738,37.99,39.81,15.31,0.65,0.62,0.46,1.73,1.15,-0.09,34.64,45.05,8.28,0.7,0.57,0.42,1.25,3.66,1.12
1900-01-01 16:46:45.786,35.64,40.93,15.45,0.66,0.59,0.49,0.9,0.41,-1.08,32.13,48.0,8.44,0.74,0.53,0.4,0.45,2.11,0.24
1900-01-01 16:46:45.879,37.97,40.72,15.45,0.67,0.63,0.45,0.27,-0.02,-0.45,35.56,44.42,8.47,0.7,0.58,0.41,-0.62,3.08,0.37
1900-01-01 16:46:45.975,38.82,39.63,15.54,0.65,0.63,0.45,0.82,-0.48,-0.5,35.95,43.67,8.52,0.69,0.58,0.42,-0.02,3.56,0.89
1900-01-01 16:46:46.021,37.34,40.39,15.62,0.65,0.61,0.46,1.34,1.17,-0.94,33.71,45.36,8.64,0.7,0.55,0.42,-0.37,3.51,0.44
1900-01-01 16:46:46.117,37.25,40.17,15.64,0.65,0.61,0.47,-0.2,1.15,-2.09,32.9,45.37,8.7,0.71,0.54,0.44,-0.53,3.17,0.6
1900-01-01 16:46:46.164,38.59,39.79,15.48,0.65,0.63,0.46,0.11,-0.65,-0.79,35.72,43.93,8.78,0.69,0.58,0.42,-1.73,2.72,0.18
1900-01-01 16:46:46.288,37.7,39.74,15.52,0.64,0.62,0.47,-0.44,-0.02,-2.44,33.06,44.89,8.8,0.71,0.55,0.45,-1.07,1.28,0.47
1900-01-01 16:46:46.352,38.24,39.42,15.3,0.64,0.63,0.47,-1.27,-1.47,-2.74,34.59,44.27,8.87,0.7,0.57,0.44,-1.01,-0.44,-0.16
1900-01-01 16:46:46.398,38.52,40.85,15.04,0.64,0.61,0.42,-4.87,-0.98,-5.09,36.06,43.45,8.83,0.66,0.57,0.41,-1.91,-4.84,0.42
1900-01-01 16:46:46.492,39.0,37.91,14.42,0.64,0.65,0.49,-1.27,-0.69,-2.87,33.39,45.82,8.89,0.74,0.57,0.44,-1.59,-0.28,-1.02
1900-01-01 16:46:46.586,37.99,38.37,14.14,0.65,0.64,0.5,-2.5,-2.11,-1.68,32.66,46.85,8.72,0.75,0.56,0.43,-1.69,-0.26,-1.84
1900-01-01 16:46:46.633,37.95,39.24,14.04,0.64,0.62,0.48,-2.82,-1.04,-1.62,33.64,45.88,8.43,0.71,0.55,0.42,-2.81,-0.24,-0.17
1900-01-01 16:46:46.727,39.17,38.54,13.95,0.63,0.63,0.46,-2.64,-1.78,-1.79,34.81,44.41,8.4,0.69,0.57,0.43,-2.36,0.34,-0.05
1900-01-01 16:46:46.774,39.97,38.78,13.84,0.63,0.65,0.45,-1.02,-0.76,-1.25,36.64,43.57,8.38,0.68,0.59,0.41,-2.3,0.98,-0.1
1900-01-01 16:46:46.868,38.63,38.59,13.81,0.63,0.63,0.47,0.0,0.01,-0.92,33.74,45.62,8.36,0.71,0.55,0.42,-1.03,1.73,0.01
1900-01-01 16:46:46.961,38.32,39.54,13.82,0.64,0.63,0.46,-0.11,-0.85,-0.64,34.56,45.36,8.35,0.71,0.56,0.41,-0.94,0.79,-0.08
1900-01-01 16:46:47.009,38.53,39.08,13.88,0.64,0.63,0.47,-1.05,-0.35,-0.67,33.83,45.62,8.33,0.71,0.56,0.42,-1.34,0.68,0.11
1900-01-01 16:46:47.104,38.82,38.72,13.94,0.63,0.64,0.47,-0.85,-1.57,-0.84,35.14,44.54,8.34,0.7,0.57,0.42,-1.23,0.82,-0.72
1900-01-01 16:46:47.198,38.44,38.76,13.97,0.63,0.63,0.48,-0.44,-0.56,-0.64,34.4,45.51,8.22,0.71,0.56,0.41,-1.15,1.81,-0.07
1900-01-01 16:46:47.299,38.92,38.16,14.03,0.63,0.64,0.48,-0.37,0.08,-0.46,33.33,45.66,8.2,0.73,0.56,0.44,-2.57,2.44,-0.34
1900-01-01 16:46:47.339,37.78,40.12,14.12,0.65,0.62,0.46,1.25,0.51,2.08,35.11,44.72,8.14,0.7,0.57,0.41,-3.66,3.52,-0.12
1900-01-01 16:46:47.386,37.86,40.2,14.59,0.64,0.6,0.45,0.75,0.39,-0.13,35.04,44.34,8.12,0.68,0.56,0.42,-1.05,2.24,0.23
1900-01-01 16:46:47.481,38.64,39.37,14.73,0.64,0.63,0.46,-0.46,0.05,-0.56,33.75,44.93,8.14,0.71,0.56,0.44,-1.61,0.69,-0.48
1900-01-01 16:46:47.528,38.22,40.0,14.81,0.65,0.63,0.46,1.95,-0.57,-0.02,35.89,43.9,8.06,0.69,0.58,0.42,-0.02,1.89,-1.17
1900-01-01 16:46:47.621,37.01,40.13,14.96,0.64,0.6,0.47,-0.82,-0.42,-0.63,33.54,45.64,7.87,0.7,0.54,0.42,-0.38,1.73,-0.41
1900-01-01 16:46:47.716,38.6,40.08,15.02,0.65,0.63,0.44,-1.1,-0.63,-1.08,35.5,44.07,7.8,0.68,0.57,0.41,-0.79,0.24,-0.18
1900-01-01 16:46:47.763,38.15,39.51,15.02,0.64,0.62,0.46,-0.83,-0.77,-2.32,34.4,44.98,7.77,0.71,0.57,0.43,0.57,0.08,0.25
1900-01-01 16:46:47.857,38.43,39.99,14.82,0.66,0.64,0.46,0.59,-1.44,0.34,36.06,44.1,7.8,0.7,0.59,0.41,-0.95,2.6,-1.41
1900-01-01 16:46:47.953,39.52,39.12,15.03,0.63,0.64,0.44,-0.81,0.03,-0.37,36.61,42.74,7.57,0.67,0.59,0.42,-0.66,2.24,1.12
1900-01-01 16:46:47.999,39.95,38.34,15.13,0.62,0.65,0.45,0.73,2.05,0.46,36.07,43.43,7.74,0.68,0.58,0.42,-1.6,6.94,2.55
1900-01-01 16:46:48.093,37.97,40.31,15.36,0.64,0.61,0.45,2.15,3.27,-0.81,34.78,44.15,8.11,0.68,0.56,0.43,-0.75,4.63,3.15
1900-01-01 16:46:48.140,37.25,39.39,15.4,0.64,0.61,0.49,1.18,2.53,-2.58,33.18,45.73,8.58,0.72,0.55,0.43,-1.58,8.15,4.87
1900-01-01 16:46:48.235,37.82,39.22,15.16,0.64,0.63,0.48,-0.45,0.59,-2.44,33.51,44.62,9.31,0.7,0.55,0.45,-0.98,9.1,9.56
1900-01-01 16:46:48.306,37.93,38.25,14.95,0.63,0.62,0.49,-1.47,-0.42,-3.97,32.17,45.03,10.76,0.7,0.53,0.46,-3.37,15.66,15.63
1900-01-01 16:46:48.376,39.19,37.33,14.5,0.63,0.66,0.5,-3.13,-1.69,-3.11,30.51,45.12,13.15,0.72,0.52,0.5,-3.35,16.69,16.92
1900-01-01 16:46:48.470,39.82,38.25,14.18,0.63,0.65,0.46,-2.2,-0.47,-1.18,29.4,44.17,15.74,0.68,0.48,0.51,-1.65,14.23,13.66
1900-01-01 16:46:48.564,38.53,38.94,14.16,0.63,0.63,0.47,-1.37,1.44,-1.47,26.94,44.11,17.82,0.69,0.45,0.55,-0.99,9.52,7.98
1900-01-01 16:46:48.609,38.03,39.62,14.09,0.64,0.62,0.46,0.1,1.76,-0.05,26.71,44.39,19.03,0.69,0.44,0.55,-1.38,5.18,0.48
1900-01-01 16:46:48.704,38.82,39.19,14.24,0.63,0.62,0.45,3.41,2.43,0.7,28.26,43.1,19.1,0.66,0.46,0.54,-1.34,3.64,-4.2
1900-01-01 16:46:48.750,39.22,38.64,14.51,0.62,0.63,0.45,2.69,3.24,-0.08,27.51,41.68,18.45,0.64,0.44,0.56,-0.39,0.74,-3.34
1900-01-01 16:46:48.845,38.98,36.72,14.65,0.62,0.65,0.51,1.56,3.76,-0.6,25.84,45.5,17.93,0.73,0.44,0.56,0.88,1.65,-1.5
1900-01-01 16:46:48.938,40.29,36.04,14.72,0.61,0.67,0.5,1.21,2.52,-0.45,28.3,42.99,17.7,0.69,0.48,0.57,-1.2,2.66,0.68
1900-01-01 16:46:48.987,39.37,36.19,14.81,0.6,0.64,0.5,0.53,3.17,-0.69,25.92,42.28,17.79,0.67,0.43,0.59,-0.94,2.47,2.12
1900-01-01 16:46:49.078,39.74,35.94,14.86,0.6,0.65,0.51,-0.79,0.43,-1.74,26.3,42.0,18.11,0.67,0.44,0.6,-1.6,0.95,1.23
1900-01-01 16:46:49.173,40.24,36.64,14.76,0.59,0.64,0.47,-2.66,-1.41,-2.88,27.73,43.96,18.28,0.66,0.44,0.52,1.17,-8.6,0.67
1900-01-01 16:46:49.221,40.8,37.61,14.48,0.6,0.64,0.44,-4.73,1.23,-5.3,30.28,41.48,18.38,0.66,0.5,0.55,2.66,-11.93,-4.23
1900-01-01 16:46:49.304,39.14,34.51,13.82,0.62,0.69,0.58,-1.09,-2.89,-1.88,25.88,48.31,17.72,0.8,0.47,0.54,0.95,-4.79,-7.01
1900-01-01 16:46:49.359,38.54,35.27,13.69,0.6,0.64,0.55,-2.34,-3.21,-0.66,28.49,47.32,16.64,0.75,0.49,0.49,0.15,-1.85,-3.8
1900-01-01 16:46:49.455,38.81,35.94,13.75,0.59,0.63,0.52,-3.55,-2.44,-0.82,27.27,46.53,16.05,0.72,0.45,0.51,-3.06,-1.41,-0.7
1900-01-01 16:46:49.547,40.18,36.29,13.78,0.59,0.64,0.48,-3.42,-2.48,-1.32,30.33,44.49,15.93,0.69,0.5,0.5,-2.99,-0.92,-0.28
1900-01-01 16:46:49.594,38.59,36.55,13.74,0.59,0.62,0.5,-2.25,-2.85,-1.87,27.85,46.41,15.88,0.71,0.46,0.5,-2.95,-0.16,-2.34
1900-01-01 16:46:49.687,39.67,37.56,13.61,0.62,0.65,0.48,-1.74,-2.0,-1.41,31.36,44.8,15.51,0.7,0.52,0.48,-2.69,-0.06,-0.44
1900-01-01 16:46:49.782,39.3,37.48,13.55,0.62,0.64,0.48,-0.91,-1.89,-0.56,31.66,44.35,15.44,0.69,0.52,0.48,-1.16,-0.55,-0.37
1900-01-01 16:46:49.829,38.92,37.12,13.62,0.61,0.63,0.49,-0.53,-1.32,-1.3,30.68,45.27,15.37,0.71,0.51,0.48,-0.54,1.58,-1.26
1900-01-01 16:46:49.924,39.04,37.6,13.58,0.61,0.63,0.48,-0.43,0.37,-0.8,30.61,44.86,15.17,0.7,0.5,0.49,-1.15,1.24,-0.49
1900-01-01 16:46:49.972,39.56,37.08,13.62,0.61,0.64,0.48,-0.23,0.56,-0.91,31.28,44.72,15.09,0.7,0.52,0.48,-1.21,1.19,-0.09
1900-01-01 16:46:50.063,38.69,37.24,13.64,0.61,0.63,0.5,0.24,1.4,-0.34,29.5,45.26,15.07,0.71,0.49,0.5,-0.76,2.02,1.93
1900-01-01 16:46:50.158,38.44,37.1,13.75,0.61,0.63,0.5,-0.18,-1.19,-0.85,29.97,45.1,15.35,0.7,0.49,0.49,-0.03,1.49,-0.42
1900-01-01 16:46:50.204,39.62,36.98,13.77,0.61,0.64,0.48,-0.77,1.39,-0.58,30.38,45.16,15.28,0.71,0.5,0.49,-0.74,1.61,1.95
1900-01-01 16:46:50.319,38.15,36.84,13.84,0.61,0.63,0.52,-0.81,-0.68,-1.12,28.81,45.8,15.57,0.72,0.48,0.5,-0.53,1.81,-0.67
1900-01-01 16:46:50.391,39.02,37.08,13.83,0.61,0.63,0.49,-0.99,0.09,-1.31,29.93,45.5,15.46,0.7,0.49,0.49,-1.49,2.31,-0.33
1900-01-01 16:46:50.437,39.26,36.57,13.79,0.6,0.64,0.5,-1.18,0.07,-1.66,29.53,45.36,15.4,0.71,0.49,0.5,-1.82,2.28,-0.66
1900-01-01 16:46:50.531,39.54,36.45,13.69,0.6,0.64,0.5,-0.57,0.28,-1.93,31.06,44.48,15.29,0.7,0.51,0.49,-1.29,2.34,-1.23
1900-01-01 16:46:50.625,39.25,35.86,13.56,0.59,0.64,0.51,-0.81,-0.11,-2.18,30.18,44.73,15.09,0.71,0.51,0.5,-1.21,1.93,-1.01
1900-01-01 16:46:50.673,39.08,36.44,13.38,0.61,0.64,0.51,-0.34,-0.27,-1.77,30.2,45.23,14.93,0.72,0.51,0.5,-1.88,2.04,-0.41
1900-01-01 16:46:50.766,39.38,36.42,13.27,0.61,0.66,0.51,-0.62,0.12,-0.54,29.7,45.01,14.86,0.72,0.5,0.51,-1.53,0.76,0.38
1900-01-01 16:46:50.812,39.54,36.42,13.34,0.59,0.64,0.49,-0.7,0.05,-0.4,30.36,44.41,14.91,0.69,0.5,0.49,-1.49,0.88,0.73
1900-01-01 16:46:50.907,39.52,36.29,13.44,0.59,0.64,0.49,-0.49,0.41,-0.98,29.77,44.91,15.01,0.7,0.49,0.5,-1.7,1.11,0.44
1900-01-01 16:46:50.999,39.22,36.37,13.45,0.61,0.65,0.51,1.97,-0.63,-0.19,30.8,44.44,15.07,0.71,0.52,0.5,-1.67,2.63,-0.57
1900-01-01 16:46:51.047,40.0,36.12,13.58,0.6,0.66,0.5,6.34,-0.18,0.57,30.89,44.44,14.97,0.71,0.52,0.5,-1.75,2.16,-0.98
1900-01-01 16:46:51.141,39.91,37.31,13.83,0.6,0.64,0.47,-0.08,0.79,0.6,30.3,43.19,14.82,0.66,0.49,0.51,-3.55,4.16,1.04
1900-01-01 16:46:51.234,40.64,36.91,14.08,0.61,0.66,0.47,0.4,1.85,0.49,31.44,43.66,14.96,0.68,0.52,0.5,-1.02,4.55,2.71
1900-01-01 16:46:51.331,40.08,35.58,14.31,0.58,0.64,0.5,1.63,2.1,1.24,28.2,43.63,15.37,0.68,0.47,0.54,-1.18,6.15,2.88
1900-01-01 16:46:51.373,37.07,36.82,14.66,0.6,0.61,0.53,-0.53,-1.36,-1.14,25.4,45.57,15.8,0.71,0.43,0.55,-0.23,2.36,1.15
1900-01-01 16:46:51.420,39.14,37.2,14.64,0.61,0.63,0.49,-1.92,-2.99,-0.86,28.37,44.49,15.96,0.68,0.46,0.52,-1.38,-3.71,-1.66
1900-01-01 16:46:51.515,40.42,36.89,14.67,0.6,0.65,0.47,-5.81,-1.56,-2.72,32.25,44.18,15.7,0.7,0.54,0.48,2.18,-13.2,-1.35
1900-01-01 16:46:51.608,39.24,36.7,14.41,0.62,0.66,0.51,0.08,-4.76,-1.75,29.74,44.38,15.48,0.72,0.51,0.53,-0.58,-2.49,-2.39
1900-01-01 16:46:51.655,40.2,37.17,14.3,0.61,0.66,0.47,-0.9,-3.98,-0.25,32.73,45.54,15.11,0.7,0.53,0.44,-0.53,-4.31,-2.04
1900-01-01 16:46:51.750,39.26,36.71,14.42,0.6,0.63,0.49,-0.72,-0.18,0.05,28.89,45.6,14.79,0.71,0.48,0.5,-2.26,-1.53,-1.06
1900-01-01 16:46:51.843,39.36,36.93,14.59,0.61,0.64,0.49,-0.38,-3.25,-0.26,31.08,45.84,14.62,0.72,0.52,0.47,-1.23,-3.63,-1.47
1900-01-01 16:46:51.890,38.89,38.71,14.7,0.63,0.64,0.47,-0.92,-3.8,-0.18,31.46,46.64,14.38,0.73,0.52,0.45,-1.8,-2.2,-1.93
1900-01-01 16:46:51.984,38.84,38.84,14.83,0.63,0.63,0.46,-0.66,-3.02,0.47,32.27,45.76,14.08,0.71,0.53,0.44,-1.56,-2.01,-1.65
1900-01-01 16:46:52.077,38.88,38.63,15.07,0.62,0.63,0.46,-1.26,-2.32,-0.71,30.68,46.27,13.82,0.71,0.5,0.46,-1.34,-1.29,-2.15
1900-01-01 16:46:52.124,39.04,38.52,15.11,0.63,0.63,0.47,-0.73,-2.4,-0.91,31.22,46.99,13.48,0.73,0.52,0.44,-2.05,-1.98,-2.57
1900-01-01 16:46:52.218,39.01,39.48,15.13,0.64,0.63,0.45,0.11,-1.82,-1.34,34.65,45.41,13.07,0.7,0.56,0.41,-0.98,-0.36,-2.69
1900-01-01 16:46:52.266,38.49,38.97,15.09,0.63,0.62,0.47,-0.39,0.63,-1.37,31.54,46.62,12.65,0.72,0.52,0.44,-1.81,0.31,-1.56
1900-01-01 16:46:52.345,38.93,39.11,15.04,0.65,0.64,0.47,-0.44,-1.14,-1.01,32.7,45.85,12.4,0.73,0.55,0.44,-2.07,1.13,-1.61
1900-01-01 16:46:52.453,39.02,39.2,15.04,0.64,0.64,0.46,0.14,-0.85,-0.01,33.26,46.09,12.15,0.72,0.55,0.42,-1.28,1.05,-1.02
1900-01-01 16:46:52.499,38.92,39.04,15.2,0.63,0.63,0.46,0.82,-0.17,-0.79,33.04,45.71,11.98,0.71,0.54,0.43,-0.49,1.26,-0.8
1900-01-01 16:46:52.593,38.62,39.4,15.24,0.64,0.63,0.46,0.05,-0.24,-0.95,33.28,45.78,11.85,0.71,0.54,0.43,-0.56,1.95,-0.32
1900-01-01 16:46:52.688,38.9,39.29,15.25,0.64,0.63,0.46,-0.46,0.16,-0.86,32.99,45.88,11.8,0.71,0.54,0.43,-0.98,1.77,0.38
1900-01-01 16:46:52.735,39.34,39.33,15.28,0.64,0.64,0.45,-1.29,0.24,-1.26,33.48,45.59,11.85,0.71,0.54,0.43,-1.53,1.43,0.31
1900-01-01 16:46:52.829,38.88,39.36,15.24,0.64,0.63,0.45,-0.25,1.13,-1.47,32.6,46.23,11.88,0.72,0.53,0.43,-0.87,0.43,-0.02
1900-01-01 16:46:52.874,38.4,39.1,15.18,0.64,0.64,0.48,-0.34,-0.05,-1.56,31.92,47.04,11.87,0.74,0.54,0.44,-1.15,0.43,-0.38
1900-01-01 16:46:52.971,38.81,39.16,15.1,0.65,0.64,0.47,-0.71,-0.69,-0.63,33.28,45.77,11.81,0.72,0.55,0.43,-1.32,0.93,0.46
1900-01-01 16:46:53.064,39.19,38.74,15.16,0.63,0.64,0.46,-0.45,0.0,-0.58,33.31,45.66,11.87,0.71,0.55,0.43,-1.39,1.21,0.82
1900-01-01 16:46:53.112,39.03,38.92,15.23,0.63,0.63,0.46,-1.19,-0.18,-0.72,33.22,45.75,11.98,0.71,0.54,0.43,-1.7,1.62,0.3
1900-01-01 16:46:53.206,38.83,38.9,15.28,0.63,0.63,0.46,-0.42,-0.51,-0.95,32.73,45.9,12.02,0.72,0.54,0.44,-0.91,1.56,-0.27
1900-01-01 16:46:53.356,38.86,39.0,15.29,0.64,0.64,0.46,-0.92,-0.21,-0.67,31.83,46.58,11.97,0.72,0.53,0.44,-1.55,1.56,0.09
1900-01-01 16:46:53.365,38.98,39.0,15.35,0.64,0.64,0.46,-0.3,0.08,-0.74,32.48,46.19,11.98,0.72,0.54,0.44,-0.98,1.9,-0.18
1900-01-01 16:46:53.440,38.81,39.2,15.39,0.64,0.63,0.46,-0.4,-0.17,-1.05,33.82,45.03,11.94,0.7,0.55,0.43,-0.93,2.1,-0.93
1900-01-01 16:46:53.487,38.56,38.84,15.39,0.64,0.64,0.48,-0.21,-0.34,-1.03,33.72,44.97,11.79,0.71,0.56,0.44,-0.94,1.89,-0.78
1900-01-01 16:46:53.581,39.11,39.08,15.39,0.63,0.63,0.45,-1.02,1.17,-0.85,33.91,44.71,11.66,0.7,0.55,0.44,-1.22,1.82,0.61
1900-01-01 16:46:53.675,39.84,39.73,15.42,0.64,0.64,0.43,-2.5,4.33,-0.4,36.1,42.5,11.75,0.66,0.58,0.43,-2.27,2.56,5.22
1900-01-01 16:46:53.722,37.73,37.4,15.52,0.62,0.63,0.52,-2.56,4.27,0.25,29.08,48.24,12.53,0.75,0.49,0.46,-3.48,2.53,5.36
1900-01-01 16:46:53.814,36.88,38.26,15.71,0.63,0.61,0.52,0.19,0.79,-1.05,30.42,48.11,13.34,0.75,0.51,0.44,-1.46,1.18,0.91
1900-01-01 16:46:53.910,37.67,38.41,15.71,0.63,0.62,0.5,-0.27,-0.37,-1.23,30.39,47.34,13.47,0.74,0.51,0.45,0.36,1.15,-0.77
1900-01-01 16:46:53.957,38.5,38.3,15.68,0.62,0.62,0.48,-1.1,-1.5,-1.3,32.15,46.41,13.35,0.71,0.52,0.43,-2.89,-0.04,-1.24
1900-01-01 16:46:54.050,38.69,38.04,15.64,0.62,0.63,0.48,-0.27,-1.26,-1.71,31.44,46.61,13.15,0.71,0.51,0.44,-1.66,0.58,-1.59
1900-01-01 16:46:54.097,38.51,38.18,15.54,0.63,0.64,0.49,-1.08,-1.76,-3.08,32.61,46.2,12.9,0.73,0.54,0.44,-2.22,-0.26,-1.54
1900-01-01 16:46:54.192,38.59,38.41,15.22,0.63,0.64,0.48,-1.66,-1.54,-2.66,31.68,46.89,12.65,0.73,0.52,0.44,-2.29,0.01,-2.22
1900-01-01 16:46:54.287,38.79,38.18,14.98,0.62,0.63,0.48,-1.74,-0.89,-1.77,33.35,45.73,12.3,0.71,0.55,0.43,-2.81,0.11,-0.27
1900-01-01 16:46:54.359,39.53,37.08,14.86,0.63,0.66,0.5,-1.2,-0.5,-0.23,32.36,46.7,12.25,0.76,0.56,0.45,-5.32,1.35,-2.6
1900-01-01 16:46:54.429,38.2,38.52,14.99,0.63,0.62,0.48,-2.99,-2.68,1.61,31.05,47.14,11.84,0.69,0.49,0.42,-3.27,3.58,-1.69
1900-01-01 16:46:54.476,39.11,37.71,15.39,0.59,0.61,0.46,-2.08,0.08,-4.07,33.24,45.39,11.58,0.68,0.52,0.42,1.2,-1.44,2.67
1900-01-01 16:46:54.572,38.49,38.5,14.93,0.64,0.64,0.49,2.11,0.1,-1.09,31.86,46.81,11.98,0.75,0.54,0.45,0.69,2.41,-0.6
1900-01-01 16:46:54.667,38.06,38.74,14.92,0.64,0.63,0.49,2.15,-1.11,-0.37,32.88,45.85,11.88,0.73,0.55,0.44,0.72,1.26,-1.02
1900-01-01 16:46:54.714,38.46,37.77,15.02,0.62,0.63,0.49,0.5,-0.44,-0.46,31.8,46.72,11.71,0.72,0.52,0.43,-0.07,1.82,0.17
1900-01-01 16:46:54.806,38.94,38.32,15.11,0.63,0.64,0.48,-0.02,-0.44,-0.98,33.21,45.76,11.73,0.72,0.55,0.43,-0.24,1.61,0.6
1900-01-01 16:46:54.856,38.87,38.28,15.12,0.63,0.64,0.48,-0.06,-0.27,-0.66,32.45,45.95,11.81,0.72,0.54,0.44,-0.44,1.84,-0.18
1900-01-01 16:46:54.953,39.1,38.31,15.18,0.62,0.64,0.47,-0.44,-0.18,-0.7,32.75,46.12,11.78,0.72,0.54,0.43,-1.09,1.54,0.24
1900-01-01 16:46:55.043,39.13,38.46,15.23,0.63,0.64,0.47,-0.53,-0.57,-0.73,33.29,45.83,11.8,0.71,0.55,0.43,-1.25,1.03,-0.01
1900-01-01 16:46:55.092,38.77,38.41,15.28,0.63,0.63,0.48,0.18,-0.78,-0.82,32.82,46.2,11.8,0.72,0.54,0.43,-0.41,1.11,-0.58
1900-01-01 16:46:55.185,39.19,38.42,15.31,0.63,0.64,0.47,-0.14,0.05,-0.73,33.65,45.42,11.7,0.71,0.55,0.43,-1.15,1.27,-0.19
1900-01-01 16:46:55.279,40.36,38.18,15.36,0.63,0.66,0.45,0.34,2.27,-0.34,36.16,43.73,11.66,0.69,0.59,0.42,0.23,3.76,2.01
1900-01-01 16:46:55.362,38.44,37.83,15.46,0.62,0.62,0.49,0.13,4.14,0.05,30.55,47.48,11.96,0.74,0.51,0.44,-0.25,2.09,2.41
1900-01-01 16:46:55.420,37.94,38.64,15.63,0.63,0.62,0.49,-0.96,1.83,-0.86,32.39,47.23,12.31,0.73,0.53,0.41,-1.91,1.56,1.12
1900-01-01 16:46:55.467,38.66,38.42,15.66,0.63,0.63,0.48,0.63,2.24,0.06,33.03,45.64,12.48,0.71,0.54,0.44,-3.05,5.57,0.95
1900-01-01 16:46:55.564,38.81,37.59,15.82,0.62,0.63,0.49,0.26,-0.22,-0.17,31.41,45.74,12.61,0.71,0.51,0.46,-1.15,2.79,-0.08
1900-01-01 16:46:55.656,38.7,37.96,15.96,0.62,0.63,0.49,-0.3,-0.75,-0.43,31.49,46.18,12.59,0.71,0.52,0.45,-2.53,4.46,-0.31
1900-01-01 16:46:55.704,38.01,39.05,16.05,0.62,0.6,0.46,-3.84,-0.68,-2.85,33.03,45.65,12.54,0.68,0.52,0.42,-0.42,0.02,0.79
1900-01-01 16:46:55.799,38.88,37.15,15.77,0.62,0.65,0.51,0.37,-0.8,-1.95,31.36,46.44,12.65,0.75,0.54,0.47,0.6,2.29,-0.35
1900-01-01 16:46:55.846,38.34,38.64,15.63,0.63,0.63,0.48,-0.42,-1.65,-1.54,32.58,45.95,12.59,0.71,0.53,0.44,-1.19,0.83,-0.71
1900-01-01 16:46:55.940,38.98,37.44,15.56,0.61,0.63,0.49,-0.92,-0.58,-1.82,31.86,45.98,12.47,0.71,0.52,0.45,-1.19,0.97,-0.47
1900-01-01 16:46:56.033,39.46,37.66,15.44,0.62,0.65,0.48,-1.35,-0.45,-2.44,32.54,45.78,12.39,0.71,0.54,0.44,-2.19,1.5,-0.76
1900-01-01 16:46:56.080,39.75,37.49,15.22,0.62,0.65,0.48,-0.49,0.11,-1.27,33.04,45.13,12.27,0.71,0.54,0.45,-1.23,1.97,-0.27
1900-01-01 16:46:56.174,39.6,37.26,15.18,0.61,0.64,0.48,0.31,0.19,-0.99,32.95,45.13,12.21,0.71,0.54,0.45,-0.77,2.03,-0.43
1900-01-01 16:46:56.268,39.6,37.7,15.19,0.62,0.64,0.47,0.18,0.11,-0.66,33.15,44.99,12.14,0.7,0.54,0.45,-1.04,1.59,-0.21
1900-01-01 16:46:56.314,39.45,37.31,15.25,0.61,0.64,0.49,0.31,-0.44,-0.75,33.37,44.95,12.1,0.71,0.55,0.45,-0.84,1.55,-0.5
1900-01-01 16:46:56.407,39.35,37.46,15.29,0.61,0.64,0.48,-0.14,-0.19,-0.65,32.97,44.91,12.02,0.7,0.54,0.45,-1.4,1.56,-0.02
1900-01-01 16:46:56.502,39.79,37.45,15.35,0.61,0.65,0.47,-0.82,0.35,-0.76,32.92,45.18,12.0,0.71,0.54,0.45,-2.54,0.82,0.06
1900-01-01 16:46:56.548,39.69,37.33,15.39,0.62,0.65,0.48,0.07,-0.16,-0.53,33.71,44.67,12.01,0.71,0.56,0.45,-2.13,0.84,-0.27
1900-01-01 16:46:56.642,39.36,37.37,15.47,0.62,0.64,0.49,-0.02,0.0,-0.04,32.26,45.44,11.96,0.71,0.53,0.46,-2.02,0.9,-0.6
1900-01-01 16:46:56.689,39.03,37.71,15.63,0.61,0.63,0.48,-0.27,-0.07,0.37,31.7,45.7,11.86,0.7,0.52,0.45,-2.37,2.08,-0.6
1900-01-01 16:46:56.785,38.88,38.42,15.84,0.61,0.61,0.46,-1.4,-0.53,-1.5,33.0,44.92,11.76,0.68,0.52,0.44,-0.15,0.98,0.29
1900-01-01 16:46:56.879,39.44,37.48,15.77,0.61,0.64,0.48,0.73,-0.62,-1.59,32.98,45.03,11.79,0.71,0.55,0.45,0.84,0.92,0.42
1900-01-01 16:46:56.925,39.39,37.94,15.69,0.63,0.65,0.48,0.6,-1.1,-0.96,33.39,45.21,11.85,0.71,0.55,0.44,0.49,1.08,-0.36
1900-01-01 16:46:57.019,39.33,37.69,15.7,0.62,0.64,0.48,0.4,-0.95,-0.65,33.17,45.13,11.78,0.7,0.54,0.44,-0.08,1.07,-0.35
1900-01-01 16:46:57.113,39.6,37.68,15.76,0.62,0.65,0.48,-0.27,-0.6,-0.85,33.14,45.39,11.72,0.71,0.54,0.44,-0.72,1.01,-0.16
1900-01-01 16:46:57.160,39.65,37.62,15.79,0.62,0.65,0.48,-0.09,-0.38,-0.72,32.97,45.42,11.69,0.71,0.55,0.44,-0.9,1.07,-0.08
1900-01-01 16:46:57.254,40.02,37.61,15.83,0.62,0.65,0.47,-0.01,-0.48,-0.82,33.72,44.78,11.67,0.7,0.55,0.44,-1.21,1.24,-0.21
1900-01-01 16:46:57.301,39.65,37.98,15.87,0.62,0.64,0.47,-0.3,-0.36,-0.95,33.43,45.11,11.63,0.71,0.55,0.44,-1.25,1.24,-0.14
1900-01-01 16:46:57.395,39.57,38.0,15.88,0.62,0.64,0.47,-0.48,-0.56,-0.92,33.12,45.44,11.6,0.71,0.54,0.44,-1.23,1.15,-0.14
1900-01-01 16:46:57.488,39.99,37.95,15.9,0.62,0.65,0.46,-0.21,-0.06,-0.82,33.73,44.93,11.57,0.7,0.55,0.43,-1.09,1.03,-0.14
1900-01-01 16:46:57.536,40.16,38.23,15.93,0.63,0.65,0.45,0.63,0.72,-0.95,34.81,44.24,11.54,0.69,0.57,0.43,0.02,1.31,-0.17
1900-01-01 16:46:57.630,39.99,38.28,15.94,0.63,0.65,0.46,1.56,1.81,-0.24,34.39,44.94,11.51,0.7,0.56,0.43,-0.11,1.73,0.8
1900-01-01 16:46:57.724,39.73,37.67,16.07,0.61,0.64,0.47,1.08,1.7,-0.15,33.14,45.65,11.62,0.7,0.54,0.43,-0.15,0.4,0.34
1900-01-01 16:46:57.772,39.4,38.33,16.2,0.62,0.63,0.46,1.06,1.51,-0.04,34.12,45.67,11.66,0.7,0.55,0.41,1.31,-0.59,0.64
1900-01-01 16:46:57.866,40.35,38.69,16.35,0.62,0.65,0.44,1.86,2.47,0.24,35.87,44.46,11.75,0.69,0.57,0.4,1.44,-1.26,1.11
1900-01-01 16:46:57.912,40.22,37.32,16.55,0.62,0.66,0.48,1.53,2.33,-0.07,32.98,46.16,11.91,0.73,0.55,0.43,0.73,-1.63,0.82
1900-01-01 16:46:58.006,39.57,37.27,16.7,0.62,0.65,0.49,1.02,0.95,-0.31,33.91,45.95,12.03,0.72,0.56,0.41,0.65,1.87,-0.05
1900-01-01 16:46:58.101,39.89,36.69,16.81,0.6,0.65,0.49,-0.42,2.63,-0.02,32.17,47.36,12.01,0.73,0.53,0.42,-0.24,3.58,1.98
1900-01-01 16:46:58.149,40.07,36.88,16.96,0.61,0.65,0.48,-0.68,2.48,-0.97,33.95,46.12,12.31,0.72,0.56,0.41,-2.26,3.76,1.36
1900-01-01 16:46:58.243,40.29,37.47,16.98,0.62,0.66,0.47,-0.02,2.74,-0.71,34.92,45.08,12.5,0.71,0.57,0.41,-3.53,3.92,-0.05
1900-01-01 16:46:58.288,40.61,37.29,17.02,0.61,0.66,0.46,0.2,2.01,-0.7,33.94,45.74,12.49,0.71,0.56,0.42,-2.5,3.37,0.05
1900-01-01 16:46:58.366,40.97,36.21,17.08,0.6,0.66,0.47,0.82,1.68,-0.74,33.65,45.17,12.49,0.71,0.55,0.43,-1.17,3.79,0.21
1900-01-01 16:46:58.479,40.7,35.79,17.12,0.6,0.67,0.5,0.66,1.44,-0.67,33.42,44.83,12.51,0.71,0.56,0.45,-0.4,2.63,0.92
1900-01-01 16:46:58.526,40.11,36.08,17.18,0.6,0.66,0.5,-0.08,2.08,-0.01,32.46,45.63,12.64,0.72,0.54,0.45,-0.7,3.06,1.76
1900-01-01 16:46:58.620,40.4,35.89,17.34,0.59,0.66,0.49,-0.15,2.26,0.24,32.75,45.74,12.9,0.71,0.54,0.44,-1.24,3.04,2.66
1900-01-01 16:46:58.714,40.53,35.49,17.53,0.58,0.65,0.49,-0.65,0.93,-0.21,32.11,45.95,13.3,0.72,0.53,0.45,-0.67,1.95,1.34
1900-01-01 16:46:58.761,40.21,36.62,17.66,0.6,0.65,0.48,-0.24,-0.68,0.26,32.84,45.24,13.49,0.7,0.54,0.44,-0.39,1.53,1.07
1900-01-01 16:46:58.855,40.58,37.1,17.86,0.6,0.65,0.46,0.06,-1.59,0.34,34.61,44.69,13.65,0.69,0.56,0.42,-0.09,0.67,-0.19
1900-01-01 16:46:58.902,39.43,36.03,18.07,0.59,0.63,0.5,0.35,-2.97,-0.73,29.85,47.17,13.61,0.73,0.49,0.46,1.13,0.56,-0.65
1900-01-01 16:46:58.995,39.93,36.65,18.11,0.6,0.65,0.49,-1.33,-5.5,-2.03,32.48,45.72,13.5,0.72,0.54,0.45,-0.44,0.52,-1.93
1900-01-01 16:46:59.089,39.84,37.16,17.96,0.6,0.64,0.47,-0.56,-4.95,-2.53,33.24,45.18,13.2,0.69,0.53,0.43,-0.28,0.56,-3.46
1900-01-01 16:46:59.137,39.94,37.76,17.73,0.62,0.65,0.47,-1.11,-2.19,-3.29,33.44,45.33,12.66,0.72,0.56,0.44,-0.81,0.33,-2.24
1900-01-01 16:46:59.231,40.4,37.15,17.39,0.61,0.65,0.47,-3.01,-3.11,-3.56,33.22,45.5,12.31,0.71,0.54,0.43,-2.65,-0.93,-2.87
1900-01-01 16:46:59.325,40.78,37.89,17.0,0.62,0.66,0.45,-1.78,-2.21,-2.18,35.79,43.99,11.86,0.69,0.58,0.42,-2.05,-1.45,-1.66
1900-01-01 16:46:59.373,40.21,37.66,16.82,0.62,0.65,0.46,-1.73,-1.82,-1.61,34.09,45.18,11.6,0.71,0.56,0.43,-2.48,-0.62,-1.04
1900-01-01 16:46:59.466,40.01,38.43,16.73,0.62,0.65,0.45,-1.17,-2.36,-1.15,34.94,44.55,11.43,0.7,0.57,0.42,-1.5,-0.01,-1.78
1900-01-01 16:46:59.513,40.61,38.11,16.72,0.62,0.66,0.45,-1.11,-2.24,-0.64,35.18,44.68,11.15,0.69,0.57,0.41,-1.44,-1.66,-1.29
1900-01-01 16:46:59.607,40.5,37.69,16.78,0.62,0.66,0.46,-0.84,-2.21,-0.58,35.06,44.64,10.94,0.7,0.57,0.42,-1.16,-0.91,-1.82
1900-01-01 16:46:59.701,40.55,38.79,16.85,0.63,0.66,0.43,-0.22,-0.95,-0.46,36.74,43.91,10.65,0.69,0.59,0.4,-1.11,-0.28,-2.1
1900-01-01 16:46:59.748,40.39,38.17,16.93,0.62,0.65,0.45,0.12,-0.08,-0.59,35.43,44.91,10.32,0.7,0.58,0.4,-0.93,-0.34,-1.89
1900-01-01 16:46:59.843,40.67,37.71,17.0,0.62,0.66,0.45,0.08,-0.63,-0.7,35.21,44.72,10.02,0.71,0.58,0.42,-1.6,-0.62,-1.49
1900-01-01 16:46:59.936,40.65,38.62,17.05,0.63,0.66,0.44,0.36,-1.37,-0.26,37.24,43.66,9.79,0.69,0.6,0.4,-0.92,0.5,-1.25
1900-01-01 16:46:59.984,40.73,38.21,17.17,0.62,0.66,0.44,0.35,-0.82,-0.78,36.61,44.06,9.59,0.69,0.59,0.4,-0.88,-0.04,-2.24
1900-01-01 16:47:00.079,40.22,37.85,17.21,0.62,0.65,0.46,0.37,-0.41,-1.16,35.59,44.65,9.24,0.7,0.58,0.41,-0.78,1.37,-0.76
1900-01-01 16:47:00.125,40.53,37.97,17.19,0.63,0.66,0.46,-0.7,-1.19,-0.62,36.14,44.38,9.11,0.7,0.59,0.41,-1.69,0.95,-0.44
1900-01-01 16:47:00.219,40.51,38.17,17.26,0.62,0.65,0.45,-0.36,-0.69,-0.52,36.14,44.22,9.04,0.69,0.58,0.4,-1.48,1.79,-0.23
1900-01-01 16:47:00.313,40.59,38.51,17.34,0.62,0.65,0.43,-0.98,0.25,-0.46,36.59,43.94,8.99,0.69,0.59,0.4,-1.81,1.63,0.32
1900-01-01 16:47:00.378,40.79,38.7,17.43,0.63,0.66,0.43,-0.81,-0.72,-0.66,36.68,44.06,9.03,0.69,0.6,0.4,-1.3,0.64,-0.18
1900-01-01 16:47:00.452,40.81,38.75,17.48,0.63,0.66,0.43,-0.24,-1.35,-0.47,36.71,43.95,9.0,0.69,0.59,0.4,-1.37,0.31,-1.23
1900-01-01 16:47:00.546,40.58,38.08,17.57,0.62,0.66,0.45,0.21,-0.32,-1.15,35.74,44.27,8.8,0.69,0.58,0.41,-1.31,1.27,-1.21
1900-01-01 16:47:00.593,40.96,38.47,17.55,0.63,0.66,0.43,-0.05,-0.95,-1.92,37.29,43.36,8.61,0.69,0.6,0.4,-2.13,1.16,-1.21
1900-01-01 16:47:00.686,39.72,39.33,17.42,0.65,0.65,0.44,-0.45,-0.24,-1.99,36.65,44.08,8.41,0.7,0.6,0.4,-2.2,1.5,-0.34
1900-01-01 16:47:00.734,40.19,38.65,17.27,0.64,0.66,0.45,-0.6,0.27,-0.97,36.17,44.13,8.35,0.7,0.6,0.41,-1.96,2.15,-0.1
1900-01-01 16:47:00.826,40.41,38.87,17.28,0.63,0.65,0.43,-0.79,0.18,-0.66,36.36,44.16,8.33,0.69,0.59,0.4,-2.3,1.89,0.22
1900-01-01 16:47:00.919,40.25,38.84,17.34,0.63,0.65,0.44,-1.01,0.25,0.13,35.77,44.16,8.35,0.69,0.58,0.41,-1.56,2.05,0.64
1900-01-01 16:47:00.966,40.89,38.95,17.52,0.63,0.65,0.42,-0.37,-0.86,0.44,37.47,42.78,8.44,0.67,0.6,0.4,-0.82,0.99,0.07
1900-01-01 16:47:01.060,40.7,39.55,17.75,0.64,0.66,0.41,-0.88,-1.16,-0.63,37.97,42.79,8.45,0.67,0.61,0.4,-1.11,0.09,-0.34
1900-01-01 16:47:01.154,40.24,39.44,17.81,0.65,0.66,0.43,-0.82,-0.95,-0.66,36.81,43.66,8.38,0.7,0.61,0.41,-1.26,-0.36,-0.89
1900-01-01 16:47:01.202,41.46,37.92,17.87,0.63,0.68,0.44,-0.75,5.22,-0.98,37.39,42.84,8.24,0.68,0.6,0.41,-1.19,-0.06,-0.47
