Time,Roll2,Pitch2,Yaw2,AccX2,AccY2,AccZ2,RotX2,RotY2,RotZ2,Roll1,Pitch1,Yaw1,AccX1,AccY1,AccZ1,RotX1,RotY1,RotZ1
1900-01-01 17:16:54.990,20.37,19.2,22.22,0.33,0.35,0.88,-0.52,-0.27,-1.21,14.43,3.67,-8.72,0.06,0.24,0.92,-0.97,0.92,-0.18
1900-01-01 17:16:55.078,20.36,19.16,22.19,0.33,0.35,0.88,-0.64,0.09,-1.3,13.81,3.42,-8.76,0.06,0.23,0.93,-1.2,0.6,-0.4
1900-01-01 17:16:55.124,20.29,19.27,22.15,0.33,0.35,0.89,-1.11,0.39,-1.73,14.67,3.76,-8.83,0.06,0.24,0.92,-1.75,1.12,-1.27
1900-01-01 17:16:55.221,20.68,18.94,22.05,0.33,0.36,0.89,-1.73,1.18,-0.96,14.37,2.99,-9.03,0.05,0.24,0.93,-1.47,0.61,-1.02
1900-01-01 17:16:55.334,20.45,18.52,22.06,0.33,0.36,0.9,-0.77,-0.34,-0.8,14.67,3.53,-9.19,0.06,0.25,0.93,0.62,0.74,-0.39
1900-01-01 17:16:55.360,20.94,18.99,22.1,0.33,0.36,0.89,-0.59,-0.05,-0.96,14.85,3.31,-9.26,0.06,0.25,0.93,-1.5,0.3,0.04
1900-01-01 17:16:55.453,20.55,18.64,22.11,0.32,0.36,0.89,0.02,-0.82,-0.64,14.2,3.65,-9.26,0.06,0.23,0.92,-2.08,1.8,-0.43
1900-01-01 17:16:55.501,20.62,18.84,22.17,0.33,0.36,0.89,-0.49,-0.38,-0.86,14.01,3.99,-9.34,0.07,0.23,0.92,-1.33,1.55,-1.24
1900-01-01 17:16:55.604,20.85,18.54,22.2,0.32,0.36,0.88,0.13,-0.56,-1.09,14.12,3.13,-9.53,0.05,0.23,0.93,-0.12,1.18,0.39
1900-01-01 17:16:55.688,20.7,19.2,22.19,0.33,0.36,0.88,-0.2,-0.15,-0.8,14.79,3.56,-9.48,0.06,0.24,0.91,-0.63,2.15,0.41
1900-01-01 17:16:55.735,20.42,18.78,22.23,0.33,0.35,0.89,-1.14,0.35,-1.19,13.6,3.58,-9.43,0.06,0.23,0.94,-0.26,1.21,-0.49
1900-01-01 17:16:55.830,20.7,18.7,22.2,0.33,0.36,0.89,-0.21,-0.73,-1.01,14.59,3.6,-9.51,0.06,0.24,0.92,-1.46,1.32,-0.28
1900-01-01 17:16:55.955,20.7,18.85,22.21,0.33,0.36,0.89,-0.85,-0.43,-0.82,14.3,3.91,-9.56,0.06,0.24,0.92,-2.49,0.95,-0.04
1900-01-01 17:16:55.984,20.91,18.81,22.24,0.33,0.36,0.88,-0.58,-0.27,-1.31,14.8,3.59,-9.58,0.06,0.24,0.91,-1.75,1.38,-0.36
1900-01-01 17:16:56.084,20.82,18.68,22.2,0.32,0.36,0.88,0.11,0.24,-1.2,14.45,2.74,-9.64,0.05,0.24,0.94,-1.53,1.71,0.5
1900-01-01 17:16:56.116,21.0,18.62,22.17,0.32,0.36,0.89,-0.64,-0.02,-0.98,14.38,3.47,-9.57,0.06,0.24,0.93,-2.13,1.49,0.2
1900-01-01 17:16:56.208,21.19,18.52,22.18,0.32,0.36,0.88,-1.29,0.55,-0.85,14.38,2.76,-9.55,0.05,0.24,0.93,-2.31,1.02,0.3
1900-01-01 17:16:56.326,20.58,18.14,22.21,0.32,0.36,0.89,-0.52,0.03,-0.94,13.83,2.72,-9.51,0.05,0.23,0.94,-1.6,2.85,-0.41
1900-01-01 17:16:56.361,20.54,18.82,22.23,0.33,0.36,0.89,-1.47,-0.02,-1.26,14.28,3.16,-9.59,0.05,0.24,0.93,-1.73,1.11,-0.3
1900-01-01 17:16:56.443,21.25,18.56,22.19,0.33,0.37,0.9,-0.78,0.14,-0.97,15.9,2.75,-9.64,0.05,0.26,0.93,-1.36,1.79,0.11
1900-01-01 17:16:56.490,20.45,18.75,22.21,0.33,0.35,0.89,0.26,-0.85,-1.0,14.99,2.92,-9.63,0.05,0.25,0.93,-2.02,1.36,0.22
1900-01-01 17:16:56.609,20.57,18.48,22.21,0.32,0.35,0.89,-0.37,-0.9,-0.62,14.31,2.96,-9.61,0.05,0.24,0.93,-1.98,1.45,0.24
1900-01-01 17:16:56.646,20.42,18.86,22.28,0.32,0.35,0.88,-0.37,-0.28,-0.63,13.82,2.92,-9.58,0.05,0.23,0.92,-1.72,1.37,0.5
1900-01-01 17:16:56.728,20.63,18.53,22.34,0.32,0.36,0.89,-0.39,0.03,-0.74,13.92,2.98,-9.51,0.05,0.23,0.92,-2.47,2.31,-0.05
1900-01-01 17:16:56.823,20.43,18.6,22.39,0.32,0.35,0.89,-0.27,0.08,-1.05,13.2,2.87,-9.53,0.05,0.22,0.93,-1.76,2.19,-0.01
1900-01-01 17:16:56.917,20.28,18.44,22.38,0.32,0.35,0.89,-0.35,0.17,-1.49,13.49,2.68,-9.54,0.04,0.22,0.93,-1.98,2.71,-0.53
1900-01-01 17:16:56.964,20.71,18.49,22.32,0.32,0.36,0.89,-0.79,0.02,-1.38,13.42,2.3,-9.63,0.04,0.22,0.94,-1.56,1.71,-0.53
1900-01-01 17:16:57.059,20.8,18.23,22.26,0.32,0.36,0.89,-0.6,0.01,-1.17,13.18,2.12,-9.71,0.04,0.22,0.93,-2.47,2.38,-0.76
1900-01-01 17:16:57.111,20.71,18.15,22.24,0.31,0.36,0.89,-0.68,0.02,-1.15,13.1,2.06,-9.84,0.03,0.22,0.93,-1.52,1.43,-0.26
1900-01-01 17:16:57.205,20.93,18.23,22.23,0.32,0.36,0.89,0.25,-0.38,-1.08,13.29,1.84,-9.89,0.03,0.22,0.93,-1.05,2.18,-0.24
1900-01-01 17:16:57.296,20.49,18.23,22.22,0.32,0.35,0.89,-0.32,-0.14,-0.98,12.76,1.95,-9.93,0.03,0.21,0.93,-1.06,1.97,-0.03
1900-01-01 17:16:57.344,20.97,18.39,22.23,0.32,0.36,0.89,-0.58,0.26,-1.24,13.47,1.93,-9.94,0.03,0.22,0.93,-2.28,2.23,-0.34
1900-01-01 17:16:57.437,21.02,18.2,22.2,0.32,0.36,0.89,-0.4,-0.25,-0.97,13.04,1.62,-10.01,0.03,0.22,0.94,-1.27,1.68,-0.05
1900-01-01 17:16:57.484,21.06,18.17,22.21,0.32,0.36,0.89,-0.31,-0.36,-0.89,13.14,1.65,-10.02,0.03,0.22,0.93,-1.22,1.53,0.05
1900-01-01 17:16:57.579,20.83,18.07,22.23,0.31,0.36,0.89,-0.4,-0.27,-0.94,12.8,1.61,-10.02,0.03,0.21,0.93,-1.28,1.49,-0.13
1900-01-01 17:16:57.674,20.85,17.96,22.25,0.31,0.36,0.89,-0.27,-0.27,-0.98,12.75,1.51,-10.05,0.03,0.21,0.93,-1.07,1.6,-0.11
1900-01-01 17:16:57.720,20.95,18.08,22.25,0.31,0.36,0.89,0.19,-0.23,-1.35,13.1,1.13,-10.08,0.02,0.22,0.93,-1.43,2.4,-0.47
1900-01-01 17:16:57.800,20.93,17.88,22.2,0.31,0.36,0.89,-0.54,-0.11,-1.43,12.64,1.31,-10.16,0.02,0.21,0.94,-1.26,1.88,-0.46
1900-01-01 17:16:57.896,21.39,18.13,22.14,0.31,0.37,0.89,-0.4,-0.2,-1.47,13.24,1.03,-10.24,0.02,0.22,0.93,-1.48,1.56,-0.56
1900-01-01 17:16:57.942,21.45,17.87,22.08,0.31,0.37,0.88,-0.25,-0.15,-1.23,12.84,1.08,-10.33,0.02,0.21,0.93,-1.27,1.86,-0.32
1900-01-01 17:16:58.037,21.24,18.13,22.05,0.31,0.37,0.89,0.18,-0.15,-1.21,12.92,1.11,-10.39,0.02,0.21,0.93,-1.18,2.21,-0.35
1900-01-01 17:16:58.137,21.02,17.88,22.02,0.31,0.36,0.89,-0.37,-0.06,-1.08,12.49,0.93,-10.45,0.02,0.21,0.94,-1.53,2.09,-0.34
1900-01-01 17:16:58.178,20.57,17.97,22.02,0.31,0.35,0.89,-0.51,-0.39,-1.18,12.45,0.96,-10.51,0.02,0.21,0.94,-1.21,1.69,-0.4
1900-01-01 17:16:58.285,21.41,17.89,21.99,0.31,0.37,0.89,-0.99,-0.02,-1.01,12.73,0.65,-10.58,0.01,0.21,0.93,-1.73,1.5,-0.13
1900-01-01 17:16:58.366,21.29,17.94,22.0,0.31,0.37,0.89,-0.29,-0.24,-1.17,12.74,0.67,-10.61,0.01,0.21,0.93,-1.32,1.66,-0.22
1900-01-01 17:16:58.424,21.12,17.92,21.98,0.31,0.36,0.89,-0.41,-0.05,-1.25,12.56,0.63,-10.65,0.01,0.21,0.93,-1.47,1.66,-0.3
1900-01-01 17:16:58.507,21.49,17.84,21.94,0.31,0.37,0.89,-0.45,0.02,-1.42,12.93,0.44,-10.71,0.01,0.21,0.94,-1.57,1.73,-0.36
1900-01-01 17:16:58.554,21.66,17.88,21.89,0.31,0.37,0.89,-0.31,-0.21,-1.34,13.16,0.15,-10.77,0.0,0.22,0.93,-1.07,1.86,-0.2
1900-01-01 17:16:58.649,21.81,17.7,21.84,0.31,0.38,0.89,-0.69,-0.27,-0.89,12.87,0.12,-10.81,0.0,0.21,0.94,-1.19,1.14,0.05
1900-01-01 17:16:58.743,21.8,17.78,21.86,0.31,0.38,0.89,-0.53,-0.41,-0.55,12.81,0.26,-10.81,0.0,0.21,0.94,-1.54,1.04,0.11
1900-01-01 17:16:58.791,21.29,17.53,21.94,0.3,0.37,0.89,-0.28,-0.73,-0.44,12.43,0.34,-10.8,0.01,0.21,0.94,-0.76,0.68,0.36
1900-01-01 17:16:58.884,20.96,17.35,22.03,0.3,0.36,0.89,-0.48,-0.69,-0.83,12.27,0.25,-10.76,0.0,0.2,0.93,-0.8,0.96,0.05
1900-01-01 17:16:58.978,21.08,17.78,22.06,0.31,0.36,0.88,-1.1,-0.43,-1.29,12.49,0.74,-10.76,0.01,0.2,0.92,-1.53,1.01,-0.66
1900-01-01 17:16:59.025,21.66,17.92,22.02,0.31,0.37,0.88,-0.19,-0.17,-1.45,12.91,0.32,-10.87,0.01,0.21,0.93,-1.45,1.73,-0.55
1900-01-01 17:16:59.119,21.58,18.04,21.96,0.31,0.37,0.89,-0.74,0.31,-1.29,12.95,0.49,-10.96,0.01,0.22,0.94,-2.36,1.86,-0.34
1900-01-01 17:16:59.166,21.42,17.99,21.92,0.32,0.37,0.9,-0.82,0.02,-1.02,12.65,0.46,-11.02,0.01,0.21,0.95,-2.59,1.98,-0.44
1900-01-01 17:16:59.260,21.59,17.87,21.92,0.31,0.37,0.88,0.09,-0.6,-0.87,12.66,-0.25,-11.1,0.0,0.21,0.93,-0.76,1.18,0.21
1900-01-01 17:16:59.352,21.07,17.65,21.95,0.3,0.36,0.88,-0.56,-0.03,-0.92,11.89,0.21,-11.07,0.0,0.19,0.93,-1.56,1.61,-0.04
1900-01-01 17:16:59.399,21.45,17.47,21.96,0.3,0.37,0.88,-0.35,0.17,-1.54,12.14,-0.07,-11.09,0.0,0.2,0.92,-1.34,2.19,-0.24
1900-01-01 17:16:59.492,21.52,17.49,21.88,0.3,0.37,0.89,-0.74,0.67,-1.89,11.94,-0.22,-11.13,0.0,0.2,0.93,-2.13,2.24,-0.76
1900-01-01 17:16:59.587,21.51,17.51,21.76,0.31,0.37,0.9,-0.19,0.69,-2.65,12.05,-0.38,-11.26,-0.01,0.2,0.95,-1.98,2.72,-1.43
1900-01-01 17:16:59.633,22.21,17.57,21.51,0.31,0.39,0.89,-0.71,0.42,-2.24,12.86,-0.61,-11.48,-0.01,0.21,0.94,-2.01,2.42,-1.02
1900-01-01 17:16:59.727,22.53,17.3,21.33,0.3,0.39,0.89,-0.25,0.31,-1.53,12.99,-1.26,-11.65,-0.02,0.22,0.94,-1.82,1.66,-0.33
1900-01-01 17:16:59.775,21.9,16.79,21.25,0.29,0.37,0.89,-0.5,0.04,-0.79,11.89,-0.96,-11.71,-0.02,0.2,0.93,-0.98,1.1,0.38
1900-01-01 17:16:59.868,21.34,16.26,21.29,0.28,0.36,0.89,-0.48,0.67,-1.06,11.01,-1.14,-11.66,-0.02,0.18,0.94,-1.5,1.72,0.31
1900-01-01 17:16:59.961,20.59,15.95,21.28,0.28,0.35,0.9,-1.05,0.67,-1.88,10.1,-0.79,-11.62,-0.01,0.17,0.94,-1.9,1.88,-0.75
1900-01-01 17:17:00.008,20.95,15.51,21.16,0.27,0.37,0.92,-1.74,0.8,-2.93,9.39,-0.72,-11.74,-0.01,0.16,0.96,-1.73,0.71,-0.64
1900-01-01 17:17:00.101,21.13,15.33,20.87,0.27,0.37,0.92,-2.7,0.15,-4.39,9.72,-0.9,-11.85,-0.02,0.17,0.96,-1.18,-1.63,-1.31
1900-01-01 17:17:00.196,21.35,15.46,20.36,0.27,0.37,0.9,-3.44,-0.4,-4.8,11.46,-0.68,-12.06,-0.01,0.19,0.92,-0.82,-3.18,-0.89
1900-01-01 17:17:00.244,21.51,16.17,19.78,0.28,0.37,0.88,-3.55,0.23,-4.73,12.2,1.2,-12.2,0.02,0.2,0.91,-0.98,-2.1,-0.85
1900-01-01 17:17:00.338,21.14,16.83,19.21,0.29,0.36,0.89,-1.47,0.1,-4.33,12.49,1.45,-12.34,0.02,0.21,0.93,-2.8,2.39,-3.31
1900-01-01 17:17:00.432,20.75,16.23,18.71,0.29,0.36,0.91,-1.1,-0.7,-3.38,12.43,1.1,-12.85,0.02,0.21,0.95,-1.4,2.33,-2.27
1900-01-01 17:17:00.478,21.2,15.46,18.35,0.27,0.37,0.92,-1.39,-1.56,-3.01,11.83,0.11,-13.21,0.0,0.2,0.97,-0.73,1.08,-2.33
1900-01-01 17:17:00.573,22.07,16.38,18.04,0.29,0.38,0.89,-1.65,-1.41,-3.18,14.37,-1.04,-13.58,-0.02,0.24,0.93,-1.71,0.36,-2.11
1900-01-01 17:17:00.620,21.62,15.72,17.72,0.27,0.37,0.88,-2.45,0.05,-0.85,12.86,-0.98,-13.91,-0.02,0.21,0.92,-1.89,0.44,0.43
1900-01-01 17:17:00.714,20.26,15.31,17.74,0.26,0.34,0.9,-0.39,-1.07,-0.21,10.67,0.59,-13.85,0.01,0.18,0.94,0.1,0.73,0.53
1900-01-01 17:17:00.807,20.14,14.84,17.87,0.26,0.34,0.9,2.25,-3.11,-1.03,10.68,-0.54,-13.78,-0.01,0.18,0.95,3.41,0.7,-0.15
1900-01-01 17:17:00.854,20.57,15.72,17.87,0.27,0.35,0.89,3.94,-5.61,-0.66,12.0,0.94,-13.81,0.02,0.19,0.9,6.34,-1.2,0.07
1900-01-01 17:17:00.950,21.46,16.79,17.93,0.28,0.36,0.87,1.19,-1.45,-2.42,14.17,1.21,-13.81,0.02,0.22,0.89,2.34,-2.04,0.95
1900-01-01 17:17:00.996,21.9,15.13,17.72,0.26,0.37,0.89,-0.59,1.79,-2.32,13.37,-0.07,-13.67,0.0,0.22,0.93,-2.82,1.4,0.27
1900-01-01 17:17:01.090,21.83,15.67,17.52,0.27,0.38,0.9,-1.56,1.43,-1.05,13.3,1.14,-13.64,0.02,0.22,0.93,-2.06,0.11,1.74
1900-01-01 17:17:01.184,20.96,17.01,17.52,0.3,0.37,0.91,-1.08,2.11,-2.59,14.06,3.04,-13.38,0.05,0.23,0.93,-1.89,0.48,0.64
1900-01-01 17:17:01.232,21.62,16.14,17.29,0.28,0.37,0.9,-1.19,2.36,-3.06,13.78,2.16,-13.29,0.04,0.23,0.94,-2.6,1.75,-0.38
1900-01-01 17:17:01.325,21.94,16.51,16.98,0.29,0.38,0.89,-1.89,2.2,-2.96,14.06,3.16,-13.36,0.05,0.23,0.93,-2.37,0.89,-0.29
1900-01-01 17:17:01.420,23.31,12.37,16.68,0.22,0.41,0.93,0.28,0.63,-4.35,13.78,-1.53,-13.41,-0.03,0.24,0.99,0.49,-1.29,0.43
1900-01-01 17:17:01.466,21.25,18.78,16.18,0.31,0.35,0.85,-1.21,-0.49,-0.1,14.39,7.65,-13.35,0.12,0.22,0.86,5.71,-7.94,4.5
1900-01-01 17:17:01.562,22.92,14.1,16.32,0.24,0.38,0.87,5.45,0.69,-2.82,17.71,1.87,-12.68,0.03,0.28,0.88,2.31,0.6,0.86
1900-01-01 17:17:01.609,25.0,13.66,16.05,0.24,0.43,0.88,-4.72,6.91,-0.34,16.79,2.48,-12.55,0.04,0.26,0.87,-8.67,9.81,0.53
1900-01-01 17:17:01.703,25.45,10.11,16.16,0.17,0.42,0.86,4.6,4.1,1.44,13.49,-2.53,-12.48,-0.04,0.23,0.95,-2.64,7.37,3.5
1900-01-01 17:17:01.787,21.75,11.3,16.53,0.2,0.37,0.91,0.92,3.3,0.66,11.34,0.79,-11.96,0.01,0.19,0.94,-1.69,7.89,1.25
1900-01-01 17:17:01.876,24.11,13.33,16.79,0.23,0.41,0.89,4.31,3.52,0.4,14.9,-0.28,-11.78,0.0,0.25,0.93,-2.15,6.65,2.48
1900-01-01 17:17:01.923,22.75,10.58,17.01,0.18,0.39,0.9,3.19,2.4,0.55,12.78,-1.77,-11.41,-0.03,0.22,0.96,0.24,6.52,1.89
1900-01-01 17:17:02.019,25.12,12.59,17.25,0.23,0.44,0.91,1.36,0.32,2.47,13.55,-0.04,-11.13,0.0,0.23,0.94,0.96,2.94,3.3
1900-01-01 17:17:02.066,25.34,10.23,17.79,0.18,0.44,0.92,4.52,-1.02,0.44,13.49,-3.09,-10.64,-0.05,0.23,0.96,0.56,2.98,0.69
1900-01-01 17:17:02.163,26.07,11.02,18.01,0.19,0.45,0.89,-0.58,0.02,0.94,14.32,-3.19,-10.54,-0.05,0.24,0.93,-1.69,1.38,1.56
1900-01-01 17:17:02.257,24.96,12.31,18.31,0.22,0.43,0.89,-0.64,1.67,0.27,14.17,-1.04,-10.31,-0.02,0.23,0.91,-3.95,4.79,0.63
1900-01-01 17:17:02.304,23.59,12.86,18.51,0.22,0.4,0.89,-2.21,1.9,-1.04,12.77,0.61,-10.23,0.01,0.21,0.92,-2.53,2.5,-0.2
1900-01-01 17:17:02.398,24.72,13.05,18.51,0.23,0.42,0.89,-1.41,2.85,-3.08,13.49,-1.01,-10.27,-0.02,0.22,0.93,-5.39,4.7,-1.95
1900-01-01 17:17:02.445,26.04,10.78,18.2,0.19,0.44,0.89,-0.36,1.47,-3.92,13.78,-4.69,-10.57,-0.08,0.23,0.94,-3.92,3.62,-2.61
1900-01-01 17:17:02.539,23.52,12.43,17.76,0.21,0.39,0.87,-1.79,4.06,-1.76,12.99,-0.48,-10.98,-0.01,0.2,0.88,-5.31,3.81,0.59
1900-01-01 17:17:02.633,23.94,8.92,17.65,0.16,0.41,0.9,-2.47,3.21,-3.84,9.31,-4.07,-10.9,-0.07,0.16,0.94,-4.19,6.52,-3.95
1900-01-01 17:17:02.681,26.48,12.54,17.22,0.22,0.45,0.87,0.29,4.76,-2.09,15.06,-3.59,-11.51,-0.06,0.24,0.89,-6.28,5.37,0.61
1900-01-01 17:17:02.776,25.52,5.25,17.06,0.1,0.45,0.93,-5.24,4.79,-0.77,8.38,-7.55,-11.43,-0.14,0.15,1.03,-10.63,-1.11,1.15
1900-01-01 17:17:02.823,25.89,9.54,17.1,0.17,0.45,0.91,-6.98,1.91,1.66,8.67,-4.28,-11.26,-0.07,0.14,0.92,-12.57,1.77,-0.22
1900-01-01 17:17:02.917,21.72,6.95,17.52,0.12,0.36,0.89,-7.25,3.17,0.24,7.07,-6.72,-11.3,-0.11,0.11,0.91,-15.88,1.02,-1.05
1900-01-01 17:17:03.011,22.22,6.17,17.71,0.11,0.38,0.91,-15.47,5.34,1.9,1.79,-5.36,-11.47,-0.09,0.03,0.94,-18.63,-4.2,2.91
1900-01-01 17:17:03.058,19.96,7.47,18.16,0.13,0.35,0.95,-6.04,0.27,3.81,1.91,-2.84,-11.04,-0.05,0.03,0.97,-13.5,-3.91,0.52
1900-01-01 17:17:03.153,18.65,5.98,18.9,0.11,0.34,0.99,-6.87,0.07,0.66,-2.4,-3.47,-10.96,-0.06,-0.04,1.0,-10.92,0.1,-1.71
1900-01-01 17:17:03.250,18.25,6.15,19.16,0.11,0.32,0.98,0.08,-2.87,-2.11,-1.24,-4.12,-11.23,-0.07,-0.02,0.95,-1.29,6.72,-0.31
1900-01-01 17:17:03.294,16.52,8.83,18.99,0.14,0.26,0.87,-2.15,-1.94,-0.06,2.6,-4.43,-11.29,-0.07,0.04,0.9,-6.82,1.79,1.53
1900-01-01 17:17:03.389,16.66,7.38,19.14,0.14,0.3,1.0,-15.95,7.42,-1.59,-4.96,-2.6,-11.07,-0.05,-0.09,1.0,-17.73,-8.05,1.45
1900-01-01 17:17:03.436,14.71,6.05,19.06,0.11,0.26,0.97,8.09,-5.66,-1.02,-2.16,-2.57,-10.85,-0.04,-0.04,0.94,8.86,10.04,0.2
1900-01-01 17:17:03.530,14.84,5.16,19.06,0.09,0.26,0.97,-6.48,2.53,-4.47,-6.86,-4.68,-10.83,-0.08,-0.12,0.97,-6.0,-0.12,-0.37
1900-01-01 17:17:03.624,18.4,10.66,18.53,0.19,0.32,0.93,2.43,-1.02,-0.17,1.5,-1.94,-10.9,-0.03,0.02,0.93,-0.85,1.69,1.44
1900-01-01 17:17:03.671,16.89,4.12,18.66,0.07,0.3,0.99,-1.43,0.81,-3.02,-3.91,-5.78,-10.68,-0.1,-0.07,1.0,-2.89,3.68,-0.11
1900-01-01 17:17:03.767,18.29,8.26,18.36,0.14,0.3,0.91,-2.84,-0.55,-0.67,-1.26,-5.03,-10.71,-0.08,-0.02,0.9,-6.5,0.27,-1.25
1900-01-01 17:17:03.860,17.03,4.79,18.42,0.08,0.3,0.96,1.59,-0.69,-0.41,-2.49,-6.78,-10.91,-0.11,-0.04,0.95,-2.5,1.73,-0.18
1900-01-01 17:17:03.906,14.27,5.7,18.51,0.1,0.25,0.96,-6.13,2.97,1.21,-8.19,-3.9,-10.95,-0.07,-0.14,0.95,-9.53,0.8,1.28
1900-01-01 17:17:04.001,14.19,5.99,18.85,0.1,0.25,0.97,3.28,-1.44,-2.26,-8.52,-2.62,-10.76,-0.04,-0.14,0.95,4.72,3.08,-0.42
1900-01-01 17:17:04.047,16.59,7.7,18.67,0.13,0.28,0.95,7.16,-1.85,-7.76,-2.11,-3.95,-10.83,-0.06,-0.03,0.94,9.95,-0.42,-2.88
1900-01-01 17:17:04.141,18.82,6.49,17.64,0.12,0.34,0.98,2.44,0.44,-6.15,-0.77,-5.35,-11.28,-0.09,-0.01,0.98,3.3,3.32,-1.06
1900-01-01 17:17:04.235,20.27,7.12,16.86,0.12,0.34,0.92,-0.75,0.8,-2.41,1.12,-5.88,-11.45,-0.1,0.02,0.93,-3.05,3.05,-0.37
1900-01-01 17:17:04.281,17.22,6.53,16.65,0.11,0.29,0.93,-0.63,0.18,-1.04,-2.33,-4.37,-11.51,-0.07,-0.04,0.94,-2.92,0.68,-0.15
1900-01-01 17:17:04.375,17.17,5.64,16.65,0.1,0.3,0.95,-3.66,0.64,-0.98,-3.58,-4.75,-11.55,-0.08,-0.06,0.95,-7.06,-1.04,0.15
1900-01-01 17:17:04.475,16.94,5.12,16.66,0.09,0.3,0.98,-3.92,1.11,-0.02,-4.5,-4.25,-11.53,-0.07,-0.08,0.98,-7.82,-0.98,0.35
1900-01-01 17:17:04.521,15.69,5.28,16.82,0.09,0.27,0.97,-1.24,-0.67,-0.14,-5.88,-3.79,-11.49,-0.06,-0.1,0.95,-1.76,3.52,0.25
1900-01-01 17:17:04.612,17.81,5.42,16.96,0.09,0.31,0.95,-1.27,0.1,-1.27,-4.04,-5.25,-11.46,-0.09,-0.07,0.94,-2.28,1.1,0.02
1900-01-01 17:17:04.658,17.3,5.68,16.92,0.1,0.3,0.95,-0.89,-0.38,-0.62,-3.78,-5.05,-11.46,-0.08,-0.06,0.95,-2.1,1.18,0.18
1900-01-01 17:17:04.753,16.66,5.65,16.99,0.1,0.29,0.95,-2.16,0.27,-0.53,-5.04,-4.27,-11.44,-0.07,-0.08,0.95,-3.52,0.15,-0.16
1900-01-01 17:17:04.846,16.04,5.21,17.06,0.09,0.28,0.97,-1.85,0.05,-0.86,-5.94,-4.3,-11.48,-0.07,-0.1,0.95,-2.15,1.66,-0.26
1900-01-01 17:17:04.894,16.07,5.6,17.09,0.1,0.28,0.96,-0.72,0.08,-0.94,-5.78,-4.08,-11.52,-0.07,-0.1,0.95,-1.4,0.92,0.12
1900-01-01 17:17:04.986,16.21,5.55,17.11,0.1,0.28,0.96,-0.04,-0.82,-1.22,-5.22,-4.4,-11.51,-0.07,-0.09,0.95,0.22,1.45,-0.36
1900-01-01 17:17:05.034,17.07,5.88,17.08,0.1,0.3,0.96,-0.76,-0.52,-0.74,-4.7,-4.49,-11.58,-0.07,-0.08,0.95,-0.99,0.94,0.34
1900-01-01 17:17:05.129,16.7,6.0,17.12,0.11,0.29,0.96,-0.14,-0.57,-0.44,-5.14,-3.83,-11.53,-0.06,-0.09,0.96,-1.46,0.47,0.2
1900-01-01 17:17:05.223,16.38,6.08,17.21,0.11,0.28,0.96,-0.55,-0.73,-1.08,-4.85,-4.11,-11.51,-0.07,-0.08,0.95,-0.5,1.24,-0.24
1900-01-01 17:17:05.273,17.0,5.98,17.21,0.1,0.29,0.96,-0.37,-0.47,-1.06,-4.27,-4.62,-11.56,-0.08,-0.07,0.95,-1.31,1.22,-0.13
1900-01-01 17:17:05.369,17.15,5.92,17.2,0.1,0.3,0.95,-0.98,0.12,-1.08,-4.25,-4.62,-11.59,-0.08,-0.07,0.94,-2.02,1.02,-0.14
1900-01-01 17:17:05.460,16.63,5.65,17.2,0.1,0.29,0.95,-0.33,-0.13,-0.83,-5.48,-4.3,-11.61,-0.07,-0.09,0.95,-1.35,1.49,-0.1
1900-01-01 17:17:05.507,16.84,5.5,17.23,0.1,0.29,0.96,-1.14,0.63,-0.92,-5.11,-4.52,-11.64,-0.08,-0.09,0.96,-2.7,1.15,0.21
1900-01-01 17:17:05.600,16.42,5.65,17.25,0.1,0.28,0.96,-0.28,-0.4,-1.47,-5.4,-3.95,-11.61,-0.07,-0.09,0.95,-1.04,1.72,-0.53
1900-01-01 17:17:05.648,16.72,5.65,17.18,0.1,0.29,0.96,0.03,-0.22,-1.25,-4.79,-4.66,-11.7,-0.08,-0.08,0.95,-0.97,2.56,-0.16
1900-01-01 17:17:05.739,16.49,5.25,17.15,0.09,0.28,0.95,-0.89,0.02,-0.95,-5.49,-4.93,-11.74,-0.08,-0.09,0.95,-1.96,1.21,-0.05
1900-01-01 17:17:05.836,16.05,5.4,17.16,0.09,0.28,0.96,-1.57,0.26,-0.77,-5.87,-4.21,-11.75,-0.07,-0.1,0.96,-2.62,0.69,0.14
1900-01-01 17:17:05.882,16.35,5.48,17.2,0.1,0.28,0.96,-0.29,-0.61,-1.05,-5.49,-4.48,-11.74,-0.07,-0.09,0.95,-0.61,1.95,-0.06
1900-01-01 17:17:05.975,16.84,5.61,17.2,0.1,0.29,0.95,0.02,-0.76,-1.08,-4.77,-5.27,-11.76,-0.09,-0.08,0.94,-0.79,1.31,-0.21
1900-01-01 17:17:06.068,16.37,5.45,17.19,0.1,0.28,0.96,-0.83,-0.37,-0.51,-5.57,-4.59,-11.8,-0.08,-0.09,0.95,-1.61,0.91,0.41
1900-01-01 17:17:06.120,16.33,5.87,17.27,0.1,0.28,0.95,-0.32,-0.44,-0.76,-5.3,-4.47,-11.74,-0.07,-0.09,0.95,-0.93,0.7,0.23
1900-01-01 17:17:06.211,16.64,5.94,17.32,0.1,0.29,0.96,-0.21,-0.92,-0.64,-4.8,-4.61,-11.72,-0.08,-0.08,0.95,-0.25,1.14,0.12
1900-01-01 17:17:06.258,17.17,5.74,17.38,0.1,0.3,0.96,-0.08,-0.8,-0.55,-4.68,-5.02,-11.71,-0.08,-0.08,0.95,-0.85,1.21,0.31
1900-01-01 17:17:06.351,16.07,5.63,17.45,0.1,0.28,0.96,-0.4,-0.76,-0.47,-6.23,-4.18,-11.67,-0.07,-0.1,0.95,-0.89,1.43,0.09
1900-01-01 17:17:06.437,16.74,6.08,17.54,0.11,0.29,0.96,0.11,-1.08,-1.01,-5.11,-4.6,-11.66,-0.08,-0.09,0.95,-0.23,1.94,-0.04
1900-01-01 17:17:06.522,17.08,6.39,17.54,0.11,0.3,0.96,-0.34,-0.6,-0.96,-4.47,-4.69,-11.68,-0.08,-0.07,0.95,-1.11,2.02,-0.11
1900-01-01 17:17:06.569,16.85,6.29,17.55,0.11,0.29,0.96,-0.15,-0.46,-0.62,-4.51,-4.97,-11.7,-0.08,-0.08,0.95,-1.59,1.29,0.17
1900-01-01 17:17:06.663,16.73,6.2,17.62,0.11,0.29,0.96,-0.89,-0.25,-0.62,-4.92,-4.86,-11.69,-0.08,-0.08,0.95,-2.62,0.99,0.08
1900-01-01 17:17:06.757,16.54,6.19,17.68,0.11,0.28,0.95,-0.84,-0.15,-0.5,-5.49,-4.76,-11.68,-0.08,-0.09,0.95,-2.14,1.1,0.17
1900-01-01 17:17:06.804,16.13,6.14,17.76,0.11,0.28,0.96,-0.19,-0.7,-0.82,-5.5,-4.64,-11.66,-0.08,-0.09,0.96,-0.82,1.49,-0.05
1900-01-01 17:17:06.897,16.61,6.18,17.8,0.11,0.29,0.95,-0.66,-0.31,-1.04,-5.47,-4.64,-11.68,-0.08,-0.09,0.95,-1.09,1.05,-0.22
1900-01-01 17:17:06.944,16.91,6.37,17.8,0.11,0.29,0.95,-0.73,-0.69,-0.92,-5.11,-4.92,-11.72,-0.08,-0.08,0.94,-0.86,1.08,0.06
1900-01-01 17:17:07.040,16.88,6.21,17.81,0.11,0.29,0.97,-0.64,-0.63,-0.88,-4.99,-4.83,-11.72,-0.08,-0.08,0.96,-1.31,1.23,0.08
1900-01-01 17:17:07.134,16.8,6.41,17.84,0.11,0.29,0.95,-0.59,-0.61,-0.8,-5.25,-4.7,-11.72,-0.08,-0.09,0.95,-1.77,0.66,-0.15
1900-01-01 17:17:07.181,16.92,6.35,17.87,0.11,0.29,0.95,-0.68,-0.69,-0.53,-5.2,-4.92,-11.75,-0.08,-0.09,0.95,-1.36,1.18,0.27
1900-01-01 17:17:07.276,16.55,6.42,17.95,0.11,0.29,0.96,0.17,-0.79,-0.98,-5.39,-4.61,-11.71,-0.08,-0.09,0.95,-0.49,1.4,-0.02
1900-01-01 17:17:07.370,16.86,6.65,17.96,0.12,0.29,0.96,-0.45,-0.18,-0.86,-5.14,-4.69,-11.73,-0.08,-0.09,0.95,-1.14,1.37,0.15
1900-01-01 17:17:07.417,16.52,6.64,17.99,0.12,0.29,0.96,-0.99,-0.22,-1.02,-5.31,-4.26,-11.71,-0.07,-0.09,0.96,-1.34,1.18,-0.08
1900-01-01 17:17:07.513,16.91,6.67,17.99,0.12,0.29,0.95,-0.88,-0.15,-1.02,-5.05,-4.86,-11.73,-0.08,-0.08,0.95,-1.44,1.28,-0.02
1900-01-01 17:17:07.560,16.68,6.54,17.99,0.11,0.29,0.96,-1.15,0.07,-0.78,-5.69,-4.57,-11.74,-0.08,-0.1,0.95,-2.21,0.82,0.03
1900-01-01 17:17:07.654,16.84,6.52,18.03,0.11,0.29,0.95,-0.79,-0.27,-0.98,-5.27,-4.81,-11.75,-0.08,-0.09,0.95,-1.95,0.79,-0.1
1900-01-01 17:17:07.749,16.61,6.53,18.04,0.11,0.29,0.95,-0.4,-0.39,-0.82,-5.75,-4.61,-11.77,-0.08,-0.09,0.94,-1.2,1.38,0.07
1900-01-01 17:17:07.798,16.2,6.34,18.07,0.11,0.28,0.96,-0.38,-0.31,-1.12,-5.74,-4.61,-11.77,-0.08,-0.1,0.95,-0.69,1.72,-0.15
1900-01-01 17:17:07.892,16.42,6.52,18.06,0.11,0.28,0.95,-1.34,0.33,-1.37,-5.51,-4.62,-11.8,-0.08,-0.09,0.96,-1.94,1.05,-0.3
1900-01-01 17:17:07.940,17.17,6.94,18.01,0.12,0.3,0.95,-0.98,-0.02,-1.2,-4.89,-4.44,-11.86,-0.07,-0.08,0.95,-2.25,0.66,-0.31
1900-01-01 17:17:08.034,16.82,6.48,17.98,0.11,0.29,0.97,-0.79,-0.13,-0.45,-5.11,-4.55,-11.91,-0.08,-0.09,0.96,-1.46,1.18,0.4
1900-01-01 17:17:08.128,16.41,6.46,18.07,0.11,0.28,0.96,-1.0,-0.19,-0.82,-6.04,-4.24,-11.86,-0.07,-0.1,0.95,-1.58,1.27,-0.06
1900-01-01 17:17:08.174,16.94,6.17,18.1,0.11,0.29,0.95,-0.41,-0.27,-0.74,-5.65,-4.68,-11.88,-0.08,-0.09,0.94,-1.71,0.53,0.26
1900-01-01 17:17:08.268,16.28,6.15,18.15,0.11,0.28,0.95,-1.09,0.11,-0.92,-6.23,-4.36,-11.84,-0.07,-0.1,0.95,-1.92,0.71,0.11
1900-01-01 17:17:08.363,16.38,6.35,18.17,0.11,0.28,0.96,-0.37,-0.5,-0.8,-5.87,-4.29,-11.84,-0.07,-0.1,0.95,-0.98,1.47,0.12
1900-01-01 17:17:08.411,16.1,6.29,18.2,0.11,0.28,0.96,-0.7,0.02,-0.98,-6.32,-4.34,-11.83,-0.07,-0.11,0.95,-1.7,1.18,-0.07
1900-01-01 17:17:08.506,17.02,6.08,18.21,0.11,0.29,0.95,-0.95,0.27,-1.17,-5.45,-5.33,-11.85,-0.09,-0.09,0.94,-1.96,0.86,-0.11
1900-01-01 17:17:08.554,17.18,6.18,18.19,0.11,0.3,0.96,-3.11,1.98,-1.05,-5.63,-4.67,-11.87,-0.08,-0.09,0.96,-5.02,0.74,0.15
1900-01-01 17:17:08.647,13.06,5.0,18.19,0.09,0.22,0.96,2.1,-3.73,-0.57,-10.02,-3.33,-11.86,-0.06,-0.17,0.96,4.33,2.15,-0.7
1900-01-01 17:17:08.741,17.67,6.43,18.26,0.11,0.3,0.94,2.33,-3.06,-1.17,-3.74,-6.05,-11.97,-0.1,-0.06,0.92,0.37,-1.38,-0.28
1900-01-01 17:17:08.787,16.22,7.8,18.24,0.15,0.3,1.02,-5.52,4.87,-1.65,-6.33,-1.75,-12.02,-0.03,-0.11,1.02,-4.76,3.1,0.73
1900-01-01 17:17:08.882,14.32,4.6,18.15,0.07,0.23,0.88,8.43,-8.93,-1.36,-7.93,-5.98,-11.92,-0.09,-0.12,0.89,11.69,4.31,-1.1
1900-01-01 17:17:08.929,20.58,6.95,18.1,0.12,0.36,0.94,-3.62,-0.95,0.37,-0.67,-7.75,-12.1,-0.13,-0.01,0.93,-7.09,-7.16,0.74
1900-01-01 17:17:09.023,15.25,9.45,18.31,0.18,0.29,1.06,-9.31,7.63,1.05,-7.52,1.27,-11.99,0.02,-0.14,1.06,-10.15,2.88,2.08
1900-01-01 17:17:09.118,12.68,5.63,18.63,0.09,0.2,0.9,8.7,-8.82,-3.01,-9.6,-3.9,-11.68,-0.06,-0.15,0.91,13.61,5.71,-2.02
1900-01-01 17:17:09.166,20.95,7.49,18.33,0.13,0.36,0.93,-0.02,-1.86,-2.75,2.32,-8.02,-12.0,-0.13,0.04,0.9,-1.59,-4.42,-1.36
1900-01-01 17:17:09.263,15.07,8.73,18.07,0.16,0.28,1.01,-13.56,8.83,1.63,-6.64,-0.51,-12.22,-0.01,-0.12,1.02,-17.03,2.08,2.36
1900-01-01 17:17:09.505,13.56,5.4,18.48,0.09,0.22,0.9,5.26,-6.37,-0.61,-9.12,-4.67,-11.87,-0.07,-0.14,0.89,5.9,2.4,-2.02
1900-01-01 17:17:09.505,18.5,8.19,18.54,0.15,0.33,0.97,-9.31,3.66,-0.06,-2.78,-4.82,-12.18,-0.08,-0.05,0.94,-15.44,-6.46,0.13
1900-01-01 17:17:09.505,10.94,6.05,18.69,0.11,0.19,0.99,-5.66,2.09,1.2,-12.53,-0.47,-12.17,-0.01,-0.22,0.98,-4.43,2.4,2.0
1900-01-01 17:17:09.578,15.17,5.86,19.03,0.1,0.26,0.94,3.35,-4.32,-1.47,-7.8,-4.9,-11.87,-0.08,-0.12,0.9,1.82,-1.85,-0.92
1900-01-01 17:17:10.678,15.54,8.04,18.97,0.15,0.29,1.02,-8.99,6.31,0.49,-7.14,-0.99,-12.02,-0.02,-0.12,0.98,-12.24,-0.17,2.47
1900-01-01 17:17:10.678,10.92,4.89,19.2,0.08,0.18,0.95,1.43,-3.14,-0.72,-13.01,-1.78,-11.65,-0.03,-0.22,0.94,3.76,3.73,0.04
1900-01-01 17:17:10.678,15.91,6.19,19.25,0.11,0.27,0.94,3.28,-3.96,-1.07,-5.5,-5.23,-11.66,-0.08,-0.09,0.9,1.05,-3.12,-0.3
1900-01-01 17:17:10.678,13.11,8.49,19.25,0.16,0.24,1.04,-12.66,9.43,1.15,-10.25,1.67,-11.71,0.03,-0.18,1.01,-16.32,-0.25,2.63
1900-01-01 17:17:10.678,10.05,4.74,19.58,0.08,0.16,0.92,6.0,-6.87,-1.84,-13.66,-1.5,-11.31,-0.02,-0.22,0.91,8.73,3.27,-2.52
1900-01-01 17:17:10.678,16.26,6.97,19.46,0.12,0.28,0.96,0.82,-2.3,-1.14,-4.18,-4.3,-11.71,-0.07,-0.07,0.9,-2.6,-2.92,-0.56
1900-01-01 17:17:10.678,10.83,7.94,19.44,0.15,0.2,1.04,-12.37,8.95,1.46,-13.08,2.19,-11.8,0.04,-0.24,1.03,-13.79,1.97,2.28
1900-01-01 17:17:10.678,10.3,4.84,19.82,0.08,0.17,0.92,8.92,-8.77,-2.44,-13.17,-2.72,-11.46,-0.04,-0.21,0.89,11.75,3.51,-2.4
1900-01-01 17:17:10.678,16.01,7.34,19.61,0.13,0.28,0.97,-1.38,-0.48,-1.27,-4.89,-3.19,-11.84,-0.05,-0.08,0.93,-2.62,-2.5,-0.02
1900-01-01 17:17:10.678,10.21,8.02,19.57,0.14,0.18,1.0,-5.51,3.8,0.82,-13.15,2.1,-11.85,0.04,-0.23,1.0,-4.48,3.4,1.4
1900-01-01 17:17:10.678,14.0,6.64,19.86,0.11,0.23,0.93,3.6,-5.11,-2.36,-8.01,-3.5,-11.64,-0.06,-0.13,0.9,4.7,0.37,-1.86
1900-01-01 17:17:10.678,15.49,8.42,19.65,0.15,0.27,0.97,-6.66,3.77,1.18,-7.69,-1.19,-11.94,-0.02,-0.13,0.95,-11.59,-3.57,1.68
1900-01-01 17:17:10.678,8.73,5.5,19.99,0.1,0.15,1.0,-1.29,-0.76,0.18,-15.48,1.28,-11.69,0.02,-0.27,0.97,1.94,1.76,-0.01
1900-01-01 17:17:10.678,13.95,6.31,20.18,0.11,0.24,0.95,3.37,-3.26,-1.79,-7.91,-3.05,-11.7,-0.05,-0.12,0.9,0.86,-1.08,-0.82
1900-01-01 17:17:10.701,13.4,8.9,20.06,0.17,0.25,1.05,-12.85,10.03,0.07,-9.96,2.6,-11.83,0.05,-0.18,1.03,-15.73,0.14,2.33
1900-01-01 17:17:10.939,8.29,3.98,20.23,0.06,0.13,0.91,8.48,-8.49,-2.03,-16.25,-0.24,-11.48,0.0,-0.26,0.89,12.63,5.6,-2.71
1900-01-01 17:17:10.939,14.91,6.13,20.08,0.1,0.25,0.94,2.36,-3.17,-1.51,-5.92,-4.61,-11.9,-0.07,-0.09,0.88,-0.5,-5.11,-0.9
1900-01-01 17:17:10.939,10.97,8.63,20.01,0.17,0.21,1.09,-14.64,12.49,0.08,-12.94,5.26,-12.05,0.1,-0.25,1.07,-14.66,0.43,2.57
1900-01-01 17:17:11.018,8.16,4.36,20.18,0.07,0.13,0.89,11.46,-11.45,-4.24,-15.59,-0.4,-11.66,-0.01,-0.24,0.88,19.32,3.31,-5.34
1900-01-01 17:17:11.113,17.57,6.25,19.68,0.11,0.3,0.94,4.21,-4.55,-2.12,-0.69,-5.03,-12.49,-0.08,-0.01,0.88,2.19,-6.45,-0.49
1900-01-01 17:17:11.159,11.93,9.86,19.52,0.19,0.23,1.06,-17.22,14.02,2.6,-10.26,5.81,-12.58,0.11,-0.19,1.04,-21.6,-0.21,4.88
1900-01-01 17:17:11.254,7.46,5.51,20.08,0.09,0.13,0.96,4.62,-5.63,-2.79,-15.57,3.71,-11.83,0.06,-0.27,0.96,10.83,4.03,-3.16
1900-01-01 17:17:11.300,15.92,5.68,19.81,0.1,0.27,0.93,7.22,-7.71,-2.97,-3.87,-3.9,-12.33,-0.06,-0.06,0.88,4.16,-1.89,-2.31
1900-01-01 17:17:11.395,13.67,8.94,19.51,0.16,0.25,1.02,-13.54,10.27,2.89,-9.15,3.88,-12.69,0.07,-0.16,0.98,-20.4,-3.86,4.39
1900-01-01 17:17:11.489,7.83,5.62,20.11,0.1,0.14,1.0,1.43,-2.67,-1.16,-16.66,4.97,-12.02,0.09,-0.29,0.97,5.42,6.14,-1.34
1900-01-01 17:17:11.536,14.87,5.52,20.09,0.09,0.25,0.93,6.53,-6.24,-3.5,-6.33,-2.87,-12.23,-0.04,-0.1,0.88,5.03,0.89,-2.37
1900-01-01 17:17:11.686,13.66,8.73,19.72,0.16,0.25,1.0,-8.31,6.95,2.25,-8.97,3.09,-12.6,0.05,-0.15,0.97,-13.3,-0.31,4.17
1900-01-01 17:17:11.702,8.8,7.92,20.22,0.14,0.16,1.01,-0.61,-0.53,-1.99,-13.77,5.78,-11.98,0.1,-0.25,1.0,3.92,2.71,-1.56
1900-01-01 17:17:11.771,14.28,7.39,20.08,0.13,0.24,0.94,4.29,-5.81,-3.1,-6.11,-0.71,-12.22,-0.01,-0.1,0.91,4.26,0.64,-2.85
1900-01-01 17:17:11.866,13.64,6.57,19.76,0.11,0.24,0.97,-5.22,3.01,2.14,-9.8,0.84,-12.67,0.01,-0.16,0.93,-11.16,-1.04,2.11
1900-01-01 17:17:11.915,9.74,6.08,20.25,0.11,0.17,1.0,-2.05,0.91,0.15,-14.24,3.81,-12.35,0.07,-0.24,0.96,-2.4,1.31,0.24
1900-01-01 17:17:12.007,11.81,6.0,20.43,0.1,0.2,0.97,1.2,-0.78,-1.92,-11.35,1.29,-12.32,0.02,-0.19,0.93,0.89,2.29,-0.42
1900-01-01 17:17:12.103,11.38,6.65,20.29,0.12,0.2,0.98,-2.58,1.82,-0.85,-12.04,2.81,-12.4,0.05,-0.2,0.95,-2.3,1.28,0.88
1900-01-01 17:17:12.150,12.39,7.75,20.32,0.14,0.22,0.98,0.69,-0.67,-1.64,-9.26,2.36,-12.27,0.04,-0.15,0.95,-0.02,1.17,-0.15
1900-01-01 17:17:12.243,11.47,6.96,20.23,0.12,0.2,0.98,0.0,-0.8,-0.55,-11.0,2.78,-12.3,0.05,-0.19,0.95,-0.22,1.41,0.0
1900-01-01 17:17:12.337,12.22,6.91,20.3,0.12,0.21,0.98,-1.07,-0.46,-0.6,-10.62,1.93,-12.31,0.03,-0.18,0.94,-1.43,1.18,0.21
1900-01-01 17:17:12.384,12.04,6.17,20.37,0.11,0.21,0.97,-1.5,0.3,-0.92,-11.85,1.85,-12.29,0.03,-0.2,0.94,-2.54,1.15,-0.02
1900-01-01 17:17:12.477,10.72,5.47,20.39,0.09,0.18,0.97,3.81,-3.03,-2.9,-12.73,1.4,-12.3,0.02,-0.21,0.94,5.95,3.66,-1.77
1900-01-01 17:17:12.525,14.38,8.63,20.1,0.15,0.25,0.96,-1.21,-2.28,-0.63,-7.74,1.49,-12.58,0.02,-0.13,0.94,0.62,-3.39,-0.21
1900-01-01 17:17:12.619,11.45,5.62,20.16,0.1,0.2,1.0,8.92,-4.61,-3.13,-9.81,2.57,-12.62,0.04,-0.17,0.96,12.13,8.48,-1.41
1900-01-01 17:17:12.696,13.32,9.57,19.84,0.17,0.23,0.98,-2.56,-1.42,-2.59,-7.71,2.08,-12.84,0.04,-0.13,0.98,2.2,-3.12,-0.33
1900-01-01 17:17:12.760,14.19,12.63,19.61,0.22,0.25,0.96,10.17,-5.03,0.67,0.53,3.88,-12.9,0.06,0.01,0.95,4.96,4.34,1.17
1900-01-01 17:17:12.855,11.53,8.11,19.87,0.15,0.21,1.04,-5.56,2.98,1.66,-10.37,2.9,-12.73,0.05,-0.19,1.03,-5.18,-0.76,2.06
1900-01-01 17:17:12.904,15.35,8.43,20.28,0.14,0.26,0.93,5.67,-3.94,-1.47,-4.37,0.35,-12.42,0.01,-0.07,0.91,3.61,3.81,-0.54
1900-01-01 17:17:12.998,16.84,5.94,20.21,0.1,0.28,0.94,1.47,-0.82,-2.33,-5.65,-1.93,-12.52,-0.03,-0.09,0.92,1.37,3.85,0.18
1900-01-01 17:17:13.089,16.45,8.38,20.02,0.14,0.27,0.91,0.44,0.91,-1.6,-5.54,-0.74,-12.5,-0.01,-0.09,0.92,-3.31,3.4,-0.15
1900-01-01 17:17:13.136,14.34,9.13,19.93,0.16,0.25,0.97,-3.16,2.06,-0.5,-6.11,1.68,-12.53,0.03,-0.1,0.97,-5.37,0.98,0.6
1900-01-01 17:17:13.231,15.07,9.94,20.01,0.18,0.27,0.98,-2.18,1.44,-0.32,-4.78,1.74,-12.45,0.03,-0.08,0.97,-5.46,-0.45,0.82
1900-01-01 17:17:13.324,14.57,8.87,20.12,0.16,0.25,0.97,-5.53,4.89,0.93,-6.76,1.42,-12.33,0.02,-0.11,0.97,-9.39,0.58,2.47
1900-01-01 17:17:13.371,12.64,6.5,20.42,0.11,0.22,0.98,-0.5,-0.27,-1.1,-10.27,1.28,-11.96,0.02,-0.17,0.96,-1.05,2.47,-0.84
1900-01-01 17:17:13.465,14.63,7.06,20.41,0.12,0.25,0.94,-0.37,-0.44,-1.54,-8.04,-0.36,-12.1,-0.01,-0.13,0.92,-2.27,0.89,-0.67
1900-01-01 17:17:13.511,13.62,8.15,20.33,0.15,0.24,0.99,-0.56,2.46,-1.47,-7.95,1.18,-12.21,0.02,-0.13,0.96,-4.3,2.26,0.08
1900-01-01 17:17:15.254,13.16,6.06,20.27,0.11,0.23,0.98,0.55,2.15,-3.58,-10.01,0.62,-12.21,0.01,-0.17,0.95,-0.07,5.07,-1.37
1900-01-01 17:17:15.254,14.65,7.64,19.88,0.13,0.25,0.96,-0.4,1.25,-3.56,-6.86,0.18,-12.42,0.0,-0.11,0.95,-1.44,4.83,-1.69
1900-01-01 17:17:15.254,14.38,8.6,19.49,0.15,0.25,0.98,-1.27,-0.21,0.25,-6.16,0.77,-12.69,0.01,-0.1,0.96,-5.11,1.09,-0.36
1900-01-01 17:17:15.254,13.46,5.58,19.69,0.1,0.23,0.97,-2.08,-0.18,1.25,-11.82,-0.49,-12.75,-0.01,-0.2,0.95,-5.85,2.73,-0.48
1900-01-01 17:17:15.254,14.48,6.01,20.04,0.1,0.24,0.94,0.7,-2.78,1.92,-10.22,-1.67,-12.84,-0.03,-0.16,0.91,-2.83,-1.18,-0.06
1900-01-01 17:17:15.254,13.16,4.54,20.49,0.08,0.23,0.98,-4.6,0.61,0.79,-13.38,-0.96,-12.85,-0.02,-0.22,0.94,-2.4,-0.58,1.39
1900-01-01 17:17:15.254,13.69,7.35,20.77,0.13,0.24,0.97,0.42,-0.43,-1.81,-8.64,0.16,-12.65,0.0,-0.14,0.94,0.84,1.88,0.47
1900-01-01 17:17:15.254,13.5,7.79,20.66,0.14,0.24,0.98,-2.16,1.52,0.08,-9.29,0.57,-12.59,0.01,-0.16,0.97,-1.98,2.13,1.31
1900-01-01 17:17:15.254,15.57,7.17,20.83,0.13,0.27,0.96,-2.37,1.92,-0.21,-9.93,-1.23,-12.4,-0.02,-0.16,0.93,-3.72,1.19,0.33
1900-01-01 17:17:15.254,12.9,5.25,20.95,0.09,0.22,0.96,3.91,-1.0,-1.63,-12.42,-0.25,-12.35,0.0,-0.21,0.94,2.78,3.48,-0.08
1900-01-01 17:17:15.254,13.97,7.75,20.86,0.14,0.25,1.0,0.9,0.23,-1.99,-8.45,0.31,-12.37,0.01,-0.15,0.98,0.46,-0.28,-0.61
1900-01-01 17:17:15.254,13.84,6.9,20.72,0.12,0.24,0.96,0.46,-1.06,-0.83,-9.99,-0.54,-12.48,-0.01,-0.16,0.93,0.49,3.4,0.43
1900-01-01 17:17:15.254,14.48,6.1,20.75,0.1,0.24,0.94,-2.2,0.02,-2.08,-9.24,-1.53,-12.42,-0.03,-0.15,0.93,-2.6,0.92,-0.76
1900-01-01 17:17:15.254,14.26,7.17,20.59,0.13,0.26,1.0,-2.89,-0.4,-2.57,-8.93,-0.4,-12.54,-0.01,-0.16,0.99,-2.26,-0.47,-1.79
1900-01-01 17:17:15.254,14.61,6.46,20.35,0.11,0.25,0.96,-0.31,-0.53,-2.13,-9.38,-1.77,-12.83,-0.03,-0.15,0.93,-1.9,2.31,-1.02
1900-01-01 17:17:15.254,12.24,5.21,20.19,0.09,0.21,0.96,-1.15,0.95,-2.03,-12.33,-0.95,-12.99,-0.02,-0.21,0.94,-2.05,2.98,-0.17
1900-01-01 17:17:15.254,13.62,6.69,20.03,0.12,0.24,0.96,-1.53,-0.16,-1.92,-8.84,-0.86,-13.03,-0.01,-0.15,0.94,-2.84,0.69,-0.97
1900-01-01 17:17:15.254,12.8,5.41,19.9,0.1,0.23,1.0,1.0,0.8,-1.79,-9.69,-1.07,-13.18,-0.02,-0.17,0.97,1.1,6.75,0.88
1900-01-01 17:17:15.254,14.1,7.73,19.79,0.13,0.24,0.94,-2.74,-1.36,-0.69,-8.57,-0.84,-13.06,-0.01,-0.14,0.92,-0.08,-3.23,0.09
1900-01-01 17:17:15.254,13.42,6.17,19.84,0.11,0.23,0.97,2.44,-2.23,-0.18,-8.13,-1.31,-13.05,-0.02,-0.13,0.94,1.79,3.3,1.02
1900-01-01 17:17:15.254,14.87,6.79,19.97,0.12,0.26,0.98,-8.79,1.62,1.46,-10.21,-1.05,-12.91,-0.02,-0.17,0.95,-12.64,-5.44,0.3
1900-01-01 17:17:15.274,13.57,6.94,20.35,0.12,0.24,0.97,1.81,-3.12,2.75,-9.38,-0.34,-12.87,-0.01,-0.16,0.94,-2.83,-1.37,1.23
1900-01-01 17:17:15.281,10.8,6.62,20.93,0.12,0.19,1.0,-2.02,-1.11,3.0,-14.2,1.82,-12.69,0.03,-0.24,0.96,-3.57,-2.17,1.18
1900-01-01 17:17:15.365,12.11,7.46,21.55,0.13,0.21,0.97,-0.02,-3.88,1.86,-12.93,1.56,-12.52,0.03,-0.22,0.94,0.75,0.27,0.57
1900-01-01 17:17:15.460,14.26,7.6,21.99,0.14,0.25,0.98,4.23,-4.6,-2.64,-8.92,-0.72,-12.44,-0.01,-0.15,0.95,6.33,0.95,-1.62
1900-01-01 17:17:15.507,14.66,7.68,21.75,0.13,0.26,0.97,4.25,-0.33,-3.07,-9.27,-0.64,-12.69,-0.01,-0.15,0.93,3.52,6.44,-0.6
1900-01-01 17:17:15.602,14.98,10.23,21.44,0.17,0.24,0.88,-0.44,0.1,0.18,-5.26,-0.4,-12.79,-0.01,-0.08,0.91,-4.07,-2.51,1.16
1900-01-01 17:17:15.651,13.86,8.59,21.62,0.16,0.26,1.04,-3.76,1.26,1.44,-8.86,2.77,-12.62,0.05,-0.16,1.01,-7.1,-3.95,0.91
1900-01-01 17:17:15.743,12.59,7.38,22.0,0.13,0.23,1.0,2.01,-0.34,-1.34,-12.93,2.04,-12.49,0.03,-0.22,0.95,0.27,5.47,-0.56
1900-01-01 17:17:15.837,12.91,7.42,21.95,0.12,0.21,0.9,4.51,-2.3,-1.79,-7.81,-0.76,-12.59,-0.01,-0.12,0.9,2.06,3.15,-0.13
1900-01-01 17:17:15.885,13.76,8.71,21.84,0.16,0.24,0.99,-6.7,1.79,1.18,-9.22,1.42,-12.62,0.02,-0.16,0.99,-8.41,-5.63,0.65
1900-01-01 17:17:15.980,12.48,7.65,22.18,0.14,0.22,1.01,3.19,-1.95,-0.82,-12.49,2.19,-12.53,0.04,-0.21,0.95,1.37,5.89,-0.46
1900-01-01 17:17:16.072,13.1,5.77,22.21,0.1,0.22,0.96,3.44,-0.71,-5.17,-10.05,-1.16,-12.6,-0.02,-0.16,0.93,4.99,6.85,-2.0
1900-01-01 17:17:16.120,16.64,11.12,21.58,0.19,0.28,0.9,-5.75,1.28,0.96,-4.57,-0.34,-12.92,-0.01,-0.07,0.92,-10.19,-6.76,0.63
1900-01-01 17:17:16.243,11.55,7.58,21.88,0.14,0.22,1.05,-1.47,-0.01,1.15,-13.15,3.58,-12.83,0.06,-0.24,1.01,-1.64,1.97,0.76
1900-01-01 17:17:16.262,11.6,6.49,22.22,0.11,0.2,0.95,1.17,-1.86,-2.34,-12.02,0.63,-12.72,0.01,-0.2,0.92,1.63,2.83,-1.11
1900-01-01 17:17:16.356,13.95,8.54,22.02,0.15,0.24,0.97,-2.89,-0.24,-1.12,-8.49,0.44,-12.9,0.01,-0.14,0.95,-3.86,-1.63,-0.3
1900-01-01 17:17:16.449,12.38,8.56,22.01,0.15,0.22,0.99,0.89,-0.84,-1.14,-10.32,2.1,-12.96,0.04,-0.18,0.96,1.5,3.91,0.03
1900-01-01 17:17:16.496,14.2,8.47,21.99,0.14,0.24,0.93,0.14,-1.02,-0.52,-8.87,0.03,-12.96,0.0,-0.14,0.91,-1.15,-0.27,0.14
1900-01-01 17:17:16.590,13.54,7.33,22.07,0.13,0.24,0.99,-2.45,0.76,0.26,-10.97,1.03,-12.95,0.02,-0.19,0.96,-4.0,-0.44,0.69
1900-01-01 17:17:19.142,13.05,7.7,22.27,0.14,0.23,0.98,-0.03,-0.02,-1.74,-10.75,1.28,-12.85,0.02,-0.18,0.94,-1.12,2.07,-0.53
1900-01-01 17:17:19.142,13.82,8.8,22.16,0.15,0.24,0.95,-1.09,-0.27,-1.0,-8.87,1.28,-12.94,0.02,-0.15,0.94,-2.49,-0.55,-0.27
1900-01-01 17:17:19.142,12.81,8.69,22.16,0.16,0.23,0.99,-1.29,-0.18,-0.35,-10.7,2.66,-12.99,0.05,-0.18,0.97,-2.53,0.05,0.1
1900-01-01 17:17:19.142,11.96,7.64,22.27,0.13,0.21,0.98,0.81,-0.98,-0.98,-11.51,1.82,-12.98,0.03,-0.19,0.94,0.39,2.55,-0.15
1900-01-01 17:17:19.142,13.6,7.59,22.28,0.13,0.23,0.96,-1.37,0.34,-1.08,-9.99,0.71,-13.01,0.01,-0.17,0.94,-1.5,1.02,0.23
1900-01-01 17:17:19.142,13.82,8.04,22.27,0.14,0.24,0.96,-1.53,0.82,-1.01,-10.11,1.52,-12.99,0.03,-0.17,0.94,-2.66,0.44,0.21
1900-01-01 17:17:19.142,12.87,7.87,22.27,0.14,0.23,0.98,0.31,-0.27,-1.57,-10.79,1.58,-12.96,0.03,-0.18,0.94,-0.48,2.48,-0.46
1900-01-01 17:17:19.142,12.7,8.61,22.19,0.15,0.22,0.95,-0.89,-0.41,-0.73,-9.27,1.8,-13.04,0.03,-0.15,0.94,-2.31,-0.58,0.2
1900-01-01 17:17:19.142,11.76,8.6,22.24,0.15,0.21,0.99,-3.89,0.8,0.76,-11.26,3.59,-13.02,0.06,-0.19,0.96,-4.85,-2.65,0.5
1900-01-01 17:17:19.142,11.95,6.48,22.51,0.12,0.22,1.01,2.67,-1.08,-3.15,-13.37,1.89,-12.95,0.03,-0.23,0.95,4.19,6.41,-1.23
1900-01-01 17:17:19.142,13.18,8.83,22.19,0.14,0.21,0.87,2.57,-2.28,-1.64,-7.06,0.03,-13.15,0.0,-0.11,0.88,0.98,-0.81,-0.02
1900-01-01 17:17:19.142,12.97,8.3,22.1,0.15,0.24,1.03,-6.36,3.58,0.35,-9.85,2.83,-13.16,0.05,-0.17,1.0,-7.74,-5.09,1.15
1900-01-01 17:17:19.142,10.09,6.96,22.31,0.12,0.18,0.98,3.12,-2.33,-0.87,-13.25,3.38,-12.99,0.06,-0.22,0.93,2.33,5.11,0.23
1900-01-01 17:17:19.142,13.28,7.39,22.34,0.13,0.23,0.97,-3.8,0.64,-2.33,-10.26,1.19,-12.97,0.02,-0.17,0.95,-1.92,-2.27,-0.88
1900-01-01 17:17:19.142,12.67,8.96,22.14,0.15,0.22,0.95,1.43,-0.81,-0.76,-8.73,2.77,-13.11,0.05,-0.14,0.93,-1.44,0.79,0.22
1900-01-01 17:17:19.142,11.89,7.33,22.18,0.13,0.21,0.99,-1.06,0.16,-0.37,-11.28,3.0,-13.09,0.05,-0.19,0.96,-1.52,1.2,0.37
1900-01-01 17:17:19.142,12.18,7.8,22.28,0.14,0.21,0.97,-1.12,-0.04,-1.06,-11.18,2.93,-13.04,0.05,-0.19,0.94,-2.04,1.08,-0.24
1900-01-01 17:17:19.142,12.68,7.82,22.28,0.14,0.22,0.97,0.27,-0.46,-1.35,-10.31,2.53,-13.08,0.04,-0.17,0.94,-0.47,1.82,-0.26
1900-01-01 17:17:19.142,12.57,7.78,22.23,0.14,0.22,0.97,-0.64,-0.04,-1.16,-10.52,2.59,-13.13,0.04,-0.18,0.95,-1.37,1.92,-0.05
1900-01-01 17:17:19.142,12.75,7.9,22.21,0.14,0.22,0.98,-1.3,0.31,-0.83,-10.65,2.71,-13.15,0.05,-0.18,0.95,-2.48,0.98,0.13
1900-01-01 17:17:19.142,12.22,7.71,22.24,0.13,0.21,0.97,-0.73,-0.26,-0.69,-11.34,2.79,-13.14,0.05,-0.19,0.94,-1.34,1.27,0.05
1900-01-01 17:17:19.142,12.36,7.55,22.29,0.13,0.22,0.98,-0.24,-0.33,-0.82,-10.95,2.55,-13.14,0.04,-0.18,0.95,-0.81,1.42,0.31
1900-01-01 17:17:19.142,12.3,7.62,22.33,0.13,0.21,0.97,-0.26,-0.18,-0.89,-11.05,2.57,-13.1,0.04,-0.18,0.94,-0.76,1.46,0.31
1900-01-01 17:17:19.142,12.51,7.81,22.35,0.14,0.22,0.97,-0.77,-0.14,-0.79,-10.76,2.65,-13.06,0.04,-0.18,0.95,-1.5,0.85,0.06
1900-01-01 17:17:19.142,12.8,7.79,22.39,0.14,0.22,0.97,-0.79,-0.05,-0.89,-10.48,2.56,-13.06,0.04,-0.18,0.95,-1.57,1.27,0.21
1900-01-01 17:17:19.142,12.58,7.69,22.41,0.14,0.22,0.98,-0.88,0.04,-0.88,-10.81,2.61,-13.04,0.04,-0.18,0.95,-1.53,1.55,0.21
1900-01-01 17:17:19.142,12.58,7.58,22.43,0.13,0.22,0.97,-0.5,-0.09,-1.24,-10.83,2.4,-13.02,0.04,-0.18,0.95,-1.4,1.25,-0.09
1900-01-01 17:17:19.142,12.6,7.74,22.4,0.14,0.22,0.97,-0.83,-0.24,-1.24,-10.69,2.5,-13.04,0.04,-0.18,0.94,-1.56,1.38,-0.25
1900-01-01 17:17:19.142,12.4,7.51,22.37,0.13,0.22,0.98,-1.34,0.31,-0.86,-11.35,2.61,-13.09,0.04,-0.19,0.95,-2.43,1.46,0.14
1900-01-01 17:17:19.142,12.16,7.46,22.39,0.13,0.21,0.97,0.27,-0.91,-1.17,-11.58,2.53,-13.07,0.04,-0.19,0.94,-0.52,1.7,-0.31
1900-01-01 17:17:19.142,12.88,7.66,22.37,0.13,0.22,0.97,0.04,-0.89,-0.97,-10.61,2.0,-13.13,0.03,-0.18,0.94,-0.59,1.03,-0.08
1900-01-01 17:17:19.142,12.59,7.71,22.38,0.13,0.22,0.97,-0.4,-0.49,-1.04,-10.99,2.32,-13.15,0.04,-0.18,0.94,-1.16,1.08,-0.18
1900-01-01 17:17:19.142,12.52,7.93,22.38,0.14,0.22,0.97,-1.23,-0.35,-0.33,-10.72,2.86,-13.19,0.05,-0.18,0.95,-2.42,-0.44,0.27
1900-01-01 17:17:19.247,12.41,7.64,22.49,0.14,0.22,0.99,0.8,-1.24,-1.39,-11.31,2.83,-13.15,0.05,-0.19,0.95,0.95,2.44,-0.49
1900-01-01 17:17:19.247,12.76,8.09,22.44,0.14,0.22,0.94,-0.09,-0.4,-1.18,-9.82,2.14,-13.23,0.04,-0.16,0.92,-1.12,0.88,-0.02
1900-01-01 17:17:19.350,13.1,7.83,22.41,0.14,0.23,1.0,-1.79,0.67,-0.41,-10.58,2.72,-13.25,0.05,-0.18,0.97,-3.44,0.87,0.46
1900-01-01 17:17:19.444,11.27,8.5,22.51,0.14,0.19,0.94,-0.58,-0.89,-0.27,-11.08,3.15,-13.18,0.05,-0.18,0.93,-2.33,-0.99,0.08
1900-01-01 17:17:19.491,12.09,6.22,22.63,0.11,0.22,1.02,0.5,-1.13,-1.25,-12.82,2.11,-13.18,0.04,-0.22,0.97,1.54,2.65,-0.43
1900-01-01 17:17:19.585,12.72,9.59,22.59,0.16,0.21,0.91,-1.64,-0.32,-0.08,-8.69,2.46,-13.25,0.04,-0.14,0.92,-4.45,-2.66,0.69
1900-01-01 17:17:19.632,11.6,6.7,22.74,0.12,0.21,1.03,0.44,-1.32,-0.45,-13.43,3.6,-13.16,0.06,-0.23,0.98,1.63,2.55,-0.01
1900-01-01 17:17:19.726,11.84,8.49,22.83,0.14,0.2,0.94,-0.83,-0.08,-1.64,-10.04,2.87,-13.17,0.05,-0.16,0.92,-2.47,0.78,-0.14
1900-01-01 17:17:19.819,12.5,7.81,22.74,0.14,0.22,1.0,-1.89,0.46,-1.04,-11.42,3.31,-13.2,0.06,-0.2,0.96,-1.6,1.12,-0.12
1900-01-01 17:17:19.867,12.5,7.74,22.74,0.13,0.22,0.97,2.13,-0.79,-2.66,-10.39,2.56,-13.22,0.04,-0.17,0.94,1.73,4.26,-0.95
1900-01-01 17:17:19.961,14.2,9.29,22.49,0.16,0.25,0.97,-5.08,1.31,-0.05,-8.76,2.79,-13.38,0.05,-0.15,0.95,-6.6,-2.84,0.44
1900-01-01 17:17:20.008,11.09,8.07,22.64,0.15,0.2,1.01,1.71,-1.13,-0.96,-12.88,4.71,-13.32,0.08,-0.22,0.96,1.82,4.04,-0.05
1900-01-01 17:17:20.102,12.55,7.08,22.65,0.12,0.21,0.95,2.81,-3.57,-2.08,-10.77,1.52,-13.33,0.02,-0.18,0.92,5.25,2.6,-1.23
1900-01-01 17:17:20.256,15.27,8.75,22.49,0.15,0.26,0.93,-0.82,-0.07,-0.29,-6.88,0.83,-13.53,0.01,-0.11,0.91,-3.53,-0.92,0.94
1900-01-01 17:17:20.272,13.26,10.51,22.61,0.19,0.24,1.01,-8.19,5.84,0.37,-9.54,5.32,-13.4,0.09,-0.17,0.99,-12.4,-1.02,1.53
1900-01-01 17:17:20.336,9.78,6.87,22.82,0.12,0.17,0.96,3.98,-4.48,-2.89,-14.61,3.75,-13.17,0.06,-0.25,0.94,6.18,3.24,-3.31
1900-01-01 17:17:20.430,14.71,6.21,22.54,0.11,0.25,0.95,4.79,-5.51,-2.26,-8.41,-0.49,-13.68,-0.01,-0.13,0.9,5.03,-0.07,-1.77
1900-01-01 17:17:20.477,13.08,9.83,22.35,0.18,0.23,0.99,-4.9,4.99,0.87,-9.28,5.15,-13.96,0.09,-0.16,0.97,-6.63,-0.93,2.5
1900-01-01 17:17:20.570,11.49,9.55,22.64,0.17,0.21,1.01,0.02,0.37,-2.28,-11.41,5.9,-13.59,0.11,-0.21,1.01,2.95,4.39,-1.0
1900-01-01 17:17:20.664,14.87,7.22,22.45,0.12,0.24,0.9,8.4,-7.27,-3.7,-7.42,-0.5,-13.75,-0.01,-0.11,0.88,8.16,2.07,-3.53
1900-01-01 17:17:20.711,15.54,7.91,22.05,0.14,0.27,0.95,-2.65,1.82,0.35,-6.63,1.03,-14.3,0.02,-0.11,0.92,-6.72,-0.96,1.66
1900-01-01 17:17:20.805,11.78,9.67,22.26,0.18,0.21,1.01,-7.7,6.26,0.4,-12.01,6.99,-14.05,0.13,-0.22,1.01,-7.23,-2.02,1.23
1900-01-01 17:17:20.852,12.51,8.05,22.48,0.14,0.22,0.96,4.41,-3.6,-2.89,-9.5,3.35,-13.87,0.06,-0.16,0.94,5.96,1.79,-2.41
1900-01-01 17:17:20.947,14.98,7.9,22.2,0.14,0.26,0.95,-1.6,0.14,-0.27,-7.85,1.97,-14.25,0.03,-0.13,0.93,-3.88,0.56,1.02
1900-01-01 17:17:21.040,12.88,8.09,22.31,0.14,0.23,0.98,-4.74,2.24,0.31,-11.35,4.82,-14.1,0.08,-0.2,0.97,-3.93,-0.4,0.92
1900-01-01 17:17:21.087,13.26,7.99,22.52,0.14,0.23,0.98,0.08,-0.76,-1.35,-9.77,3.58,-13.97,0.06,-0.16,0.95,-1.07,2.45,-0.14
1900-01-01 17:17:21.183,13.18,7.36,22.47,0.13,0.23,0.97,-0.76,0.05,-0.99,-10.56,3.32,-14.0,0.06,-0.18,0.95,-1.44,1.39,0.21
1900-01-01 17:17:21.262,13.32,8.4,22.48,0.15,0.23,0.98,-0.74,-0.66,-1.24,-9.4,3.79,-13.97,0.06,-0.16,0.95,-0.4,1.54,-0.2
1900-01-01 17:17:21.322,13.16,7.97,22.45,0.14,0.23,0.99,-1.74,-0.22,-0.6,-10.14,4.17,-14.01,0.07,-0.17,0.96,-2.59,0.82,0.75
1900-01-01 17:17:21.416,12.82,7.95,22.51,0.14,0.22,0.97,0.27,-0.87,-1.49,-10.15,3.52,-13.91,0.06,-0.17,0.95,1.66,3.85,0.21
1900-01-01 17:17:21.463,13.99,8.35,22.45,0.15,0.24,0.97,-1.17,-0.64,-1.24,-8.59,2.49,-13.88,0.04,-0.14,0.95,-0.72,2.15,0.54
1900-01-01 17:17:21.558,13.46,8.38,22.41,0.15,0.23,0.96,-1.1,-0.25,-0.82,-8.77,2.79,-13.81,0.05,-0.15,0.95,-1.47,0.79,0.44
1900-01-01 17:17:21.652,12.74,8.07,22.45,0.14,0.22,0.96,-0.37,-0.56,-0.65,-9.79,2.87,-13.75,0.05,-0.16,0.94,-0.53,1.78,0.4
1900-01-01 17:17:21.699,13.12,8.06,22.51,0.14,0.23,0.97,-1.25,0.27,-0.95,-9.34,2.65,-13.7,0.04,-0.16,0.95,-2.32,1.29,0.25
1900-01-01 17:17:21.792,12.84,8.3,22.52,0.15,0.22,0.97,-0.96,0.32,-0.76,-9.55,3.09,-13.67,0.05,-0.16,0.95,-2.61,0.36,0.13
1900-01-01 17:17:21.839,12.97,8.35,22.56,0.15,0.23,0.97,-0.69,0.11,-0.85,-9.35,2.93,-13.66,0.05,-0.16,0.95,-2.05,1.33,0.19
1900-01-01 17:17:21.933,12.81,8.09,22.59,0.14,0.22,0.97,-0.66,0.44,-0.51,-9.88,2.94,-13.64,0.05,-0.17,0.95,-3.37,0.68,-0.11
1900-01-01 17:17:22.029,12.29,7.96,22.67,0.14,0.21,0.98,-1.32,0.27,-0.53,-10.56,3.3,-13.66,0.06,-0.18,0.95,-2.6,0.94,0.24
1900-01-01 17:17:22.076,12.37,7.84,22.75,0.14,0.22,0.98,-1.91,0.14,-0.84,-10.48,3.22,-13.63,0.05,-0.18,0.95,-1.98,1.43,0.29
1900-01-01 17:17:22.170,12.56,7.65,22.78,0.13,0.22,0.97,-0.81,0.02,-0.82,-10.64,3.12,-13.6,0.05,-0.18,0.94,-2.02,1.11,0.09
1900-01-01 17:17:22.260,12.55,7.85,22.81,0.14,0.22,0.97,-0.83,-0.3,-0.85,-10.43,3.24,-13.59,0.05,-0.17,0.94,-1.05,1.21,0.22
1900-01-01 17:17:22.312,12.45,7.7,22.84,0.13,0.22,0.97,-0.31,-0.31,-1.13,-10.68,3.09,-13.57,0.05,-0.18,0.94,-0.85,1.23,-0.34
1900-01-01 17:17:22.407,12.92,7.66,22.82,0.13,0.22,0.97,-0.2,-0.47,-1.21,-10.17,2.52,-13.63,0.04,-0.17,0.94,-0.89,1.73,-0.03
1900-01-01 17:17:22.454,12.11,7.76,22.8,0.14,0.21,0.98,0.19,-0.6,-1.0,-10.74,3.3,-13.64,0.06,-0.18,0.95,-0.66,1.34,-0.13
1900-01-01 17:17:22.549,12.32,8.02,22.8,0.14,0.22,0.98,0.44,-0.82,-1.04,-10.57,3.19,-13.67,0.05,-0.18,0.95,-0.82,1.23,-0.27
1900-01-01 17:17:22.642,12.42,7.89,22.8,0.14,0.22,0.98,-0.31,-0.91,-1.08,-10.5,3.15,-13.72,0.05,-0.18,0.95,-0.18,1.45,-0.17
1900-01-01 17:17:22.689,13.02,8.18,22.79,0.14,0.23,0.97,0.12,-0.65,-0.85,-9.84,3.07,-13.75,0.05,-0.16,0.94,-0.91,1.61,0.08
1900-01-01 17:17:22.784,12.74,7.94,22.82,0.14,0.22,0.97,-0.21,-0.72,-0.98,-10.37,2.92,-13.75,0.05,-0.17,0.94,-0.7,1.18,-0.15
1900-01-01 17:17:22.877,12.78,8.24,22.83,0.14,0.22,0.97,-0.4,-0.32,-0.94,-9.91,3.08,-13.78,0.05,-0.17,0.95,-0.83,1.2,0.09
1900-01-01 17:17:22.925,12.67,8.23,22.85,0.14,0.22,0.97,-1.05,0.19,-0.82,-10.37,3.34,-13.78,0.06,-0.17,0.95,-1.68,1.35,0.22
1900-01-01 17:17:23.017,12.82,8.14,22.88,0.14,0.22,0.97,-0.5,-0.38,-1.08,-10.2,2.97,-13.75,0.05,-0.17,0.95,-1.16,1.31,-0.32
1900-01-01 17:17:23.065,13.14,8.24,22.87,0.14,0.23,0.97,-1.08,0.08,-0.78,-10.12,2.95,-13.81,0.05,-0.17,0.94,-1.92,1.1,0.17
1900-01-01 17:17:23.157,12.94,7.78,22.91,0.14,0.23,0.97,-0.45,-0.48,-1.05,-10.62,2.96,-13.79,0.05,-0.18,0.95,-0.84,1.31,-0.19
1900-01-01 17:17:23.258,12.88,8.04,22.91,0.14,0.23,0.98,-0.1,-0.07,-1.26,-10.14,3.13,-13.83,0.05,-0.17,0.95,-0.62,1.98,-0.1
1900-01-01 17:17:23.299,13.42,9.24,22.87,0.16,0.23,0.96,-2.25,-0.77,0.56,-8.68,3.55,-13.85,0.06,-0.14,0.94,-3.12,-1.85,0.58
1900-01-01 17:17:23.393,12.05,7.3,23.12,0.13,0.22,1.02,-0.66,-0.63,-1.06,-12.55,3.79,-13.77,0.07,-0.22,0.96,-1.23,2.8,-0.36
1900-01-01 17:17:23.487,12.61,7.4,23.11,0.12,0.21,0.93,3.11,-1.69,-2.79,-9.21,1.78,-13.84,0.03,-0.15,0.91,3.07,3.6,-0.66
1900-01-01 17:17:23.533,14.21,8.38,22.85,0.15,0.25,0.99,-5.74,1.95,0.17,-9.53,3.2,-13.94,0.06,-0.17,0.99,-3.89,-2.18,0.76
1900-01-01 17:17:23.629,10.97,9.2,23.03,0.16,0.19,0.97,0.63,-0.78,-0.87,-11.16,4.43,-13.84,0.07,-0.19,0.94,-1.31,2.92,0.17
1900-01-01 17:17:23.723,12.74,6.67,23.06,0.12,0.22,0.97,1.71,-1.66,-2.12,-10.43,1.57,-13.82,0.03,-0.17,0.94,2.82,2.78,-0.73
1900-01-01 17:17:23.770,13.2,8.78,22.89,0.15,0.23,0.95,-1.18,0.21,-0.82,-8.98,2.92,-13.94,0.05,-0.15,0.94,-2.14,0.76,0.34
1900-01-01 17:17:23.864,12.28,8.94,22.92,0.16,0.22,1.0,0.12,-0.61,-1.16,-9.14,3.75,-13.9,0.06,-0.16,0.97,-0.12,2.54,0.37
1900-01-01 17:17:23.910,12.56,8.57,22.91,0.15,0.22,0.97,-1.38,-0.63,-0.63,-10.24,3.05,-13.85,0.05,-0.17,0.95,-2.45,1.98,1.11
1900-01-01 17:17:24.004,13.17,8.36,22.97,0.15,0.23,0.96,-0.43,-0.73,-1.04,-9.34,2.05,-13.69,0.03,-0.16,0.94,-1.08,1.13,0.24
1900-01-01 17:17:24.098,12.98,7.97,22.97,0.14,0.23,0.98,-0.22,-0.59,-2.14,-10.1,1.86,-13.66,0.03,-0.17,0.95,0.0,5.0,0.53
1900-01-01 17:17:24.146,11.9,8.12,22.8,0.14,0.2,0.95,-0.17,-0.47,-2.12,-8.27,1.35,-13.59,0.02,-0.14,0.95,-0.85,4.72,1.06
1900-01-01 17:17:24.255,13.53,10.08,22.63,0.18,0.23,0.96,-5.97,1.01,1.84,-7.86,2.53,-13.43,0.04,-0.13,0.96,-6.02,-6.64,1.08
1900-01-01 17:17:24.335,11.05,8.8,23.07,0.16,0.2,1.02,-1.11,-1.09,0.92,-12.15,4.24,-13.28,0.07,-0.21,0.97,-2.79,0.23,0.83
1900-01-01 17:17:24.382,12.84,5.94,23.37,0.1,0.22,0.97,1.93,-0.78,-3.82,-11.87,0.25,-13.16,0.0,-0.19,0.92,3.12,5.74,-1.39
1900-01-01 17:17:24.477,13.02,7.53,22.95,0.13,0.22,0.93,1.11,0.31,-2.95,-8.31,0.37,-13.38,0.01,-0.14,0.93,1.63,5.81,-0.35
1900-01-01 17:17:24.524,12.33,11.76,22.66,0.21,0.22,0.97,-6.93,2.06,0.6,-6.88,4.72,-13.44,0.08,-0.12,0.99,-3.91,-7.75,-0.56
1900-01-01 17:17:24.617,10.45,8.59,22.91,0.16,0.2,1.05,-0.19,-0.75,0.37,-11.91,4.43,-13.53,0.08,-0.21,0.98,-4.04,0.94,0.62
1900-01-01 17:17:24.712,13.33,4.26,23.12,0.07,0.23,0.95,0.85,-0.31,-3.94,-12.95,-1.24,-13.45,-0.02,-0.21,0.9,0.44,4.69,-1.44
1900-01-01 17:17:24.759,12.99,8.95,22.68,0.14,0.21,0.88,0.65,-1.44,-1.24,-7.04,1.67,-13.68,0.03,-0.11,0.9,2.07,1.18,-0.28
1900-01-01 17:17:24.853,11.94,10.86,22.65,0.21,0.24,1.09,-3.85,2.47,-0.26,-7.52,6.27,-13.73,0.12,-0.14,1.05,-4.27,-2.9,0.27
1900-01-01 17:17:24.901,10.76,6.11,22.77,0.1,0.18,0.96,2.05,-0.73,-1.79,-12.62,1.88,-13.69,0.03,-0.2,0.91,-2.97,5.35,-0.27
1900-01-01 17:17:24.993,15.05,8.23,22.65,0.14,0.25,0.92,-5.77,0.52,-0.38,-8.03,1.32,-13.75,0.02,-0.13,0.93,-2.64,-5.36,-0.02
1900-01-01 17:17:25.089,10.09,8.49,22.75,0.16,0.18,1.03,0.85,-0.81,-1.42,-11.1,5.44,-13.76,0.09,-0.19,0.97,0.99,4.82,0.36
1900-01-01 17:17:25.136,12.68,8.26,22.69,0.14,0.22,0.96,-2.29,-0.19,-1.17,-8.9,2.12,-13.71,0.04,-0.15,0.94,-0.9,-0.5,1.0
1900-01-01 17:17:25.268,11.25,7.96,22.67,0.14,0.19,0.97,0.86,-1.26,-1.23,-10.17,3.24,-13.57,0.05,-0.17,0.94,-0.48,1.44,0.21
1900-01-01 17:17:25.326,11.84,7.93,22.64,0.14,0.21,0.99,-1.34,0.17,-1.02,-10.07,3.43,-13.54,0.06,-0.17,0.96,-0.42,1.58,0.45
1900-01-01 17:17:25.371,12.51,8.36,22.64,0.15,0.22,0.97,-0.31,-0.37,-0.78,-9.28,2.92,-13.48,0.05,-0.15,0.94,-1.11,1.05,0.33
1900-01-01 17:17:25.465,11.42,8.33,22.68,0.15,0.2,0.98,0.76,-1.41,-0.6,-9.56,3.58,-13.44,0.06,-0.16,0.96,0.08,0.95,0.54
1900-01-01 17:17:25.512,11.99,8.91,22.75,0.16,0.21,0.97,0.08,-1.18,-0.11,-9.17,3.41,-13.37,0.06,-0.15,0.95,-1.27,0.94,0.45
1900-01-01 17:17:25.607,11.48,8.39,22.89,0.15,0.2,0.98,-1.53,-0.38,-0.05,-10.57,3.81,-13.31,0.06,-0.18,0.95,-1.15,1.31,0.63
1900-01-01 17:17:25.701,12.1,8.54,23.04,0.15,0.21,0.96,0.04,-0.7,-0.89,-8.96,2.97,-13.22,0.05,-0.15,0.94,0.31,0.37,0.26
1900-01-01 17:17:25.748,12.56,9.07,23.07,0.16,0.22,0.98,-0.85,-0.3,-0.38,-8.63,3.5,-13.19,0.06,-0.14,0.95,-1.36,0.54,0.25
1900-01-01 17:17:25.843,12.03,8.74,23.17,0.15,0.21,0.98,-0.99,-0.44,-0.66,-9.14,3.44,-13.16,0.06,-0.15,0.95,-0.96,1.09,-0.06
1900-01-01 17:17:25.890,12.17,8.75,23.23,0.15,0.21,0.98,-0.26,-0.05,-0.78,-9.26,3.58,-13.18,0.06,-0.16,0.95,-1.69,0.93,-0.07
1900-01-01 17:17:25.984,12.14,8.7,23.26,0.15,0.21,0.97,-0.05,-0.31,-1.36,-9.15,3.61,-13.19,0.06,-0.15,0.95,-0.45,1.12,-0.47
1900-01-01 17:17:26.078,12.58,8.8,23.21,0.15,0.22,0.97,-0.36,-0.44,-1.03,-8.71,3.63,-13.27,0.06,-0.15,0.95,-0.7,1.64,0.14
1900-01-01 17:17:26.125,12.54,8.82,23.22,0.15,0.22,0.97,-0.5,-0.23,-1.08,-8.63,3.32,-13.26,0.06,-0.14,0.94,-1.11,1.54,0.14
1900-01-01 17:17:26.269,12.3,8.77,23.21,0.15,0.22,0.97,-0.66,-0.05,-0.98,-8.39,3.32,-13.25,0.06,-0.14,0.95,-1.37,1.35,0.19
1900-01-01 17:17:26.312,12.28,8.82,23.22,0.15,0.21,0.97,-0.89,0.34,-0.58,-8.96,3.47,-13.23,0.06,-0.15,0.95,-2.08,1.31,0.25
1900-01-01 17:17:26.359,12.0,8.41,23.29,0.15,0.21,0.97,-1.34,0.24,-0.93,-9.45,3.6,-13.2,0.06,-0.16,0.95,-1.7,1.27,0.2
1900-01-01 17:17:26.455,12.19,8.8,23.3,0.15,0.21,0.96,-0.87,0.37,-1.22,-9.39,3.87,-13.18,0.06,-0.16,0.94,-2.02,0.73,-0.32
1900-01-01 17:17:26.501,11.42,8.74,23.27,0.15,0.2,0.98,-0.09,-0.08,-1.74,-9.58,4.07,-13.23,0.07,-0.16,0.95,-1.63,1.96,-0.88
1900-01-01 17:17:26.596,12.55,8.21,23.17,0.14,0.22,0.98,-0.49,-0.02,-1.62,-8.21,2.36,-13.38,0.04,-0.14,0.96,-1.47,1.79,-0.16
1900-01-01 17:17:26.689,12.36,8.23,23.08,0.14,0.21,0.96,-1.0,0.24,-0.34,-9.71,3.39,-13.41,0.06,-0.16,0.94,-2.12,1.2,0.52
1900-01-01 17:17:26.737,11.5,8.28,23.18,0.15,0.2,0.98,-0.66,-0.38,-1.29,-9.84,3.47,-13.34,0.06,-0.17,0.95,-0.75,1.82,-0.39
1900-01-01 17:17:26.831,12.27,8.55,23.14,0.15,0.21,0.98,-0.42,-0.13,-1.06,-8.88,3.16,-13.41,0.05,-0.15,0.96,-1.29,1.44,0.2
1900-01-01 17:17:26.927,12.28,8.39,23.14,0.15,0.21,0.96,-0.78,-0.21,-0.53,-9.37,3.02,-13.39,0.05,-0.16,0.94,-1.39,0.84,0.18
1900-01-01 17:17:26.973,12.17,8.16,23.22,0.14,0.21,0.98,0.29,-0.7,-1.02,-9.41,3.16,-13.37,0.05,-0.16,0.95,-0.9,1.4,-0.21
1900-01-01 17:17:27.066,12.28,8.23,23.22,0.14,0.22,0.98,-0.34,-0.11,-1.21,-9.49,3.18,-13.41,0.05,-0.16,0.95,-0.73,1.37,-0.11
1900-01-01 17:17:27.162,12.52,8.89,23.19,0.16,0.22,0.97,-0.06,-0.4,-0.92,-8.72,3.26,-13.43,0.05,-0.15,0.95,-1.15,1.48,0.11
1900-01-01 17:17:27.209,12.31,8.44,23.21,0.15,0.21,0.97,-0.66,-0.22,-0.79,-9.39,3.22,-13.42,0.05,-0.16,0.95,-1.73,1.18,-0.11
1900-01-01 17:17:27.288,12.44,8.39,23.25,0.15,0.22,0.98,-0.56,-0.32,-0.73,-9.52,3.42,-13.45,0.06,-0.16,0.95,-1.42,1.35,-0.03
1900-01-01 17:17:27.351,12.54,8.64,23.29,0.15,0.22,0.96,-0.05,-0.57,-1.03,-9.07,3.18,-13.46,0.05,-0.15,0.94,-1.1,1.22,-0.14
1900-01-01 17:17:27.446,12.16,8.5,23.29,0.15,0.21,0.97,-0.21,-0.5,-1.08,-9.51,3.46,-13.49,0.06,-0.16,0.95,-1.21,1.19,-0.27
1900-01-01 17:17:27.542,12.58,8.6,23.29,0.15,0.22,0.98,-0.42,-0.53,-0.89,-8.83,3.14,-13.54,0.05,-0.15,0.95,-1.15,1.56,0.17
1900-01-01 17:17:27.589,12.68,8.31,23.31,0.15,0.22,0.97,0.03,-0.19,-1.38,-9.2,2.96,-13.52,0.05,-0.15,0.95,-0.88,1.76,-0.18
1900-01-01 17:17:27.684,12.83,8.68,23.26,0.15,0.22,0.97,-1.28,0.73,-1.54,-8.36,2.95,-13.56,0.05,-0.14,0.96,-2.4,1.66,-0.03
1900-01-01 17:17:27.731,12.17,8.74,23.18,0.15,0.21,0.96,-1.02,-1.34,0.8,-8.65,2.97,-13.57,0.05,-0.14,0.95,-1.82,-1.63,0.54
1900-01-01 17:17:27.825,11.18,8.04,23.46,0.14,0.2,1.0,0.43,-1.25,-0.15,-11.49,3.98,-13.5,0.07,-0.19,0.95,-0.31,2.08,0.37
1900-01-01 17:17:27.919,12.94,7.78,23.6,0.13,0.22,0.96,1.47,0.27,-3.46,-8.74,1.81,-13.45,0.03,-0.15,0.95,2.69,4.67,-0.79
1900-01-01 17:17:27.966,14.5,11.15,23.23,0.19,0.24,0.92,-4.25,-0.22,0.89,-5.14,2.55,-13.58,0.04,-0.08,0.94,-4.35,-5.48,-0.01
1900-01-01 17:17:28.060,9.91,8.57,23.52,0.16,0.19,1.05,0.23,-0.85,0.03,-13.32,7.12,-13.59,0.12,-0.23,0.96,-2.98,4.97,0.04
1900-01-01 17:17:28.107,13.96,8.94,23.69,0.15,0.23,0.92,-0.42,-0.99,-1.13,-8.09,1.81,-13.59,0.03,-0.13,0.89,0.34,0.17,-0.21
1900-01-01 17:17:28.201,13.36,8.52,23.67,0.15,0.23,0.97,1.98,-1.15,-1.93,-8.07,3.19,-13.63,0.05,-0.13,0.95,1.15,3.27,-0.8
1900-01-01 17:17:28.292,13.68,10.39,23.54,0.19,0.24,0.99,-5.21,1.14,1.13,-7.42,4.31,-13.76,0.07,-0.13,0.97,-4.25,-1.27,0.99
1900-01-01 17:17:28.346,10.78,8.31,23.87,0.14,0.19,0.96,2.02,-1.8,-1.3,-11.14,4.11,-13.62,0.07,-0.18,0.92,-0.54,4.18,-0.47
1900-01-01 17:17:28.438,13.02,8.95,23.83,0.16,0.23,0.98,-2.28,0.6,-1.14,-8.5,3.15,-13.7,0.05,-0.14,0.96,-0.97,0.29,-0.09
1900-01-01 17:17:28.533,12.35,9.36,23.81,0.16,0.21,0.96,1.31,-0.45,-1.49,-8.15,3.63,-13.72,0.06,-0.13,0.94,-0.59,2.79,-0.15
1900-01-01 17:17:28.579,12.99,8.82,23.74,0.16,0.23,0.99,-1.37,-0.11,-0.73,-7.89,3.2,-13.75,0.05,-0.13,0.96,-1.59,1.18,0.11
1900-01-01 17:17:28.673,12.33,8.33,23.79,0.15,0.22,0.98,-0.9,0.26,-1.48,-9.6,3.0,-13.74,0.05,-0.16,0.95,-1.42,1.85,-0.49
1900-01-01 17:17:28.720,13.02,8.44,23.72,0.15,0.23,0.98,-0.53,0.17,-2.91,-8.5,2.58,-13.83,0.04,-0.14,0.96,0.33,2.58,-1.36
1900-01-01 17:17:28.814,14.05,9.68,23.44,0.17,0.24,0.95,-1.24,0.32,0.03,-6.98,2.98,-14.04,0.05,-0.12,0.94,-2.98,0.47,0.88
1900-01-01 17:17:28.911,11.33,8.9,23.6,0.16,0.2,0.99,-1.34,-0.05,-0.22,-10.45,4.53,-13.92,0.08,-0.18,0.96,-2.82,0.69,-0.11
1900-01-01 17:17:28.956,13.45,8.25,23.72,0.14,0.23,0.96,0.4,-0.65,-1.07,-8.52,1.84,-13.94,0.03,-0.14,0.93,-1.22,1.95,0.09
1900-01-01 17:17:29.050,12.4,8.83,23.72,0.15,0.21,0.95,-0.83,0.32,-1.03,-8.64,3.33,-13.94,0.06,-0.14,0.94,-1.21,0.09,-0.2
1900-01-01 17:17:29.097,12.63,9.22,23.72,0.17,0.23,1.0,-1.24,-0.22,0.12,-8.5,3.91,-13.98,0.07,-0.14,0.96,-2.74,0.66,0.35
1900-01-01 17:17:29.191,11.84,7.6,23.9,0.13,0.21,0.98,-0.74,-0.12,-1.29,-10.45,3.0,-13.93,0.05,-0.17,0.94,-0.73,2.23,-0.18
1900-01-01 17:17:29.337,13.83,8.86,23.86,0.15,0.24,0.96,0.07,0.05,-1.85,-7.16,2.53,-13.97,0.04,-0.12,0.94,-0.37,1.57,-0.33
1900-01-01 17:17:29.337,11.72,9.24,23.74,0.16,0.21,0.98,-0.81,0.02,-0.75,-9.06,4.16,-14.03,0.07,-0.15,0.96,-2.22,1.24,-0.29
1900-01-01 17:17:29.428,12.06,8.01,23.78,0.14,0.21,0.98,-1.08,0.02,-0.84,-9.93,3.03,-14.08,0.05,-0.17,0.95,-1.84,1.54,0.12
1900-01-01 17:17:29.522,12.88,8.4,23.81,0.15,0.22,0.96,-0.36,-0.17,-1.49,-8.77,2.87,-14.07,0.05,-0.15,0.94,-0.03,1.35,-0.13
1900-01-01 17:17:29.569,13.31,9.12,23.74,0.16,0.23,0.97,-0.95,-0.17,-1.21,-7.99,3.22,-14.1,0.05,-0.13,0.95,-1.95,1.5,-0.18
1900-01-01 17:17:29.663,12.09,8.31,23.71,0.15,0.21,0.97,-0.24,-0.3,-0.92,-9.39,3.08,-14.13,0.05,-0.16,0.94,-1.53,1.27,-0.21
1900-01-01 17:17:29.757,12.17,8.46,23.73,0.15,0.21,0.97,-0.34,-0.18,-1.01,-9.0,3.16,-14.18,0.05,-0.15,0.95,-1.07,1.12,0.07
1900-01-01 17:17:29.804,12.69,8.51,23.74,0.15,0.22,0.97,-0.34,-0.19,-1.05,-8.79,2.94,-14.17,0.05,-0.15,0.94,-1.12,1.14,-0.14
1900-01-01 17:17:29.898,12.38,8.55,23.73,0.15,0.22,0.98,-1.53,0.15,-0.73,-9.0,3.53,-14.2,0.06,-0.15,0.96,-1.91,1.27,0.17
1900-01-01 17:17:29.945,12.57,8.5,23.78,0.15,0.22,0.97,-0.92,0.04,-0.9,-9.06,3.08,-14.19,0.05,-0.15,0.95,-1.75,1.13,0.06
1900-01-01 17:17:30.038,12.64,8.31,23.8,0.15,0.22,0.97,-0.39,-0.18,-0.87,-8.89,2.89,-14.18,0.05,-0.15,0.95,-1.56,1.27,0.04
1900-01-01 17:17:30.132,12.69,8.43,23.83,0.15,0.22,0.97,-1.27,0.18,-0.91,-9.03,3.17,-14.19,0.05,-0.15,0.95,-1.85,1.21,0.04
1900-01-01 17:17:30.179,12.37,8.13,23.85,0.14,0.22,0.98,-0.92,0.13,-0.94,-9.34,3.03,-14.19,0.05,-0.16,0.95,-1.76,1.63,0.14
1900-01-01 17:17:30.314,12.44,8.12,23.86,0.14,0.22,0.97,-0.77,0.17,-1.11,-9.26,2.84,-14.18,0.05,-0.15,0.94,-1.46,1.25,-0.02
1900-01-01 17:17:30.356,12.19,8.36,23.85,0.15,0.21,0.98,-0.74,-0.2,-0.78,-9.17,3.16,-14.19,0.05,-0.15,0.95,-1.51,0.86,0.14
1900-01-01 17:17:30.403,11.73,8.22,23.89,0.14,0.21,0.98,-1.08,-0.07,-0.63,-9.97,3.6,-14.18,0.06,-0.17,0.95,-2.1,1.38,0.12
1900-01-01 17:17:30.496,12.21,7.93,23.95,0.14,0.21,0.97,-0.37,-0.04,-1.27,-9.88,3.13,-14.17,0.05,-0.16,0.94,-1.15,1.34,-0.29
1900-01-01 17:17:30.592,12.8,8.38,23.92,0.15,0.22,0.96,-0.56,-0.03,-1.02,-8.93,2.81,-14.22,0.05,-0.15,0.94,-1.69,1.15,0.01
1900-01-01 17:17:30.639,11.53,8.29,23.92,0.15,0.2,0.98,-0.71,-0.55,-0.49,-10.13,3.76,-14.23,0.06,-0.17,0.96,-1.18,0.96,0.15
1900-01-01 17:17:30.734,12.26,8.05,24.0,0.14,0.21,0.97,0.08,-0.92,-0.66,-9.76,3.08,-14.21,0.05,-0.16,0.94,-1.01,0.97,0.05
1900-01-01 17:17:30.781,12.29,7.99,24.06,0.14,0.22,0.98,-0.18,-0.81,-1.79,-9.59,3.01,-14.21,0.05,-0.16,0.95,0.24,2.08,-0.55
1900-01-01 17:17:30.875,13.08,8.96,23.95,0.16,0.23,0.96,-1.4,0.11,-0.64,-8.55,3.21,-14.31,0.05,-0.14,0.95,-2.19,0.84,0.36
1900-01-01 17:17:30.968,11.86,8.4,24.01,0.15,0.21,0.99,-0.48,-0.98,-0.08,-9.84,3.74,-14.26,0.06,-0.17,0.95,-1.42,0.37,0.24
1900-01-01 17:17:31.015,11.35,7.73,24.15,0.14,0.2,0.98,-0.15,-0.79,-1.09,-10.68,3.22,-14.23,0.05,-0.18,0.94,0.46,1.97,0.27
1900-01-01 17:17:31.109,14.21,8.96,24.14,0.16,0.25,0.96,-0.56,-0.21,-0.96,-6.76,2.35,-14.2,0.04,-0.11,0.94,-0.62,0.88,0.51
1900-01-01 17:17:31.203,11.59,8.95,24.15,0.16,0.2,0.98,-0.54,-0.68,-0.12,-9.3,3.91,-14.13,0.07,-0.16,0.95,-1.6,0.69,0.17
1900-01-01 17:17:31.314,11.78,7.77,24.29,0.14,0.21,0.99,-0.05,-1.06,-0.89,-10.1,2.96,-14.11,0.05,-0.17,0.95,-0.04,1.79,0.15
1900-01-01 17:17:31.319,12.89,8.45,24.32,0.15,0.22,0.96,1.24,-0.95,-2.15,-8.12,2.74,-14.1,0.05,-0.13,0.94,2.36,1.67,-0.47
1900-01-01 17:17:31.394,12.87,9.89,24.15,0.17,0.23,0.97,-0.4,-0.58,-1.09,-7.17,3.76,-14.18,0.06,-0.12,0.96,-0.82,1.15,0.05
1900-01-01 17:17:31.487,12.04,8.82,24.14,0.16,0.21,0.98,-0.53,-0.67,-0.27,-9.11,3.46,-14.18,0.06,-0.15,0.95,-1.94,1.31,0.32
1900-01-01 17:17:31.581,13.11,8.53,24.25,0.15,0.23,0.97,-0.48,-0.38,-0.98,-8.26,2.77,-14.14,0.05,-0.14,0.95,-0.56,0.78,0.1
1900-01-01 17:17:31.629,13.73,9.5,24.26,0.17,0.24,0.96,-0.86,-0.39,-1.27,-6.85,3.0,-14.13,0.05,-0.11,0.95,-1.51,0.95,-0.27
1900-01-01 17:17:31.723,12.2,8.93,24.23,0.16,0.21,0.97,-0.79,-0.27,-0.67,-8.92,3.41,-14.18,0.06,-0.15,0.95,-2.18,0.92,-0.08
1900-01-01 17:17:31.817,12.36,8.71,24.28,0.15,0.22,0.98,-1.31,0.03,-0.4,-8.97,3.6,-14.2,0.06,-0.15,0.95,-2.13,0.77,0.25
1900-01-01 17:17:31.864,12.83,8.88,24.38,0.15,0.22,0.96,-0.42,-0.81,-0.76,-8.32,3.33,-14.17,0.06,-0.14,0.94,-0.56,0.14,0.02
1900-01-01 17:17:31.958,12.53,9.04,24.42,0.16,0.22,0.97,-0.79,-0.73,-0.64,-8.38,3.58,-14.18,0.06,-0.14,0.95,-1.55,0.86,0.11
1900-01-01 17:17:32.008,12.38,8.94,24.48,0.16,0.22,0.98,-0.34,-0.38,-0.79,-8.26,3.64,-14.17,0.06,-0.14,0.95,-0.97,0.58,-0.1
1900-01-01 17:17:32.101,12.44,9.29,24.52,0.16,0.22,0.98,-1.19,-0.31,-0.88,-8.36,3.84,-14.19,0.06,-0.14,0.95,-1.38,1.07,0.02
1900-01-01 17:17:32.194,12.51,9.03,24.54,0.16,0.22,0.97,-0.44,0.02,-0.94,-8.53,3.48,-14.2,0.06,-0.14,0.94,-1.56,1.16,-0.16
1900-01-01 17:17:32.242,12.49,9.07,24.56,0.16,0.22,0.98,-0.78,0.16,-1.4,-8.29,3.8,-14.23,0.06,-0.14,0.95,-1.42,1.63,-0.27
1900-01-01 17:17:32.318,12.23,9.21,24.5,0.16,0.21,0.97,-1.0,0.15,-1.24,-8.33,3.88,-14.28,0.07,-0.14,0.95,-1.77,1.39,-0.21
1900-01-01 17:17:32.383,12.23,8.81,24.47,0.15,0.21,0.97,-0.63,0.34,-0.95,-8.88,3.69,-14.32,0.06,-0.15,0.95,-2.15,1.49,-0.09
1900-01-01 17:17:32.477,12.27,8.61,24.49,0.15,0.21,0.97,-0.81,0.1,-1.21,-9.03,3.54,-14.34,0.06,-0.15,0.95,-1.27,1.58,-0.1
1900-01-01 17:17:32.571,12.64,8.88,24.46,0.16,0.22,0.97,-0.76,-0.1,-1.21,-8.61,3.65,-14.37,0.06,-0.14,0.95,-1.4,1.01,-0.32
1900-01-01 17:17:32.621,12.41,8.75,24.43,0.15,0.22,0.98,-0.04,-0.52,-1.13,-8.78,3.58,-14.42,0.06,-0.15,0.95,-1.33,1.05,-0.34
1900-01-01 17:17:32.712,12.1,8.34,24.42,0.15,0.21,0.98,-1.44,0.26,-0.89,-9.37,3.91,-14.48,0.07,-0.16,0.95,-1.11,1.46,0.18
1900-01-01 17:17:32.806,12.68,9.02,24.44,0.16,0.22,0.96,0.54,-0.61,-1.32,-7.9,3.4,-14.46,0.06,-0.13,0.94,-0.02,1.39,-0.08
1900-01-01 17:17:32.854,12.36,9.06,24.4,0.16,0.22,0.98,-1.34,-0.19,-0.62,-8.5,4.08,-14.49,0.07,-0.14,0.96,-1.69,0.95,0.14
1900-01-01 17:17:32.948,12.52,8.7,24.46,0.15,0.22,0.97,-0.76,-0.14,-0.54,-8.43,3.51,-14.47,0.06,-0.14,0.94,-1.66,0.92,0.15
1900-01-01 17:17:32.995,12.38,8.67,24.54,0.15,0.22,0.97,-1.09,-0.39,-0.82,-8.59,3.64,-14.46,0.06,-0.14,0.95,-1.47,0.42,-0.2
1900-01-01 17:17:33.089,12.47,8.93,24.57,0.16,0.22,0.98,-0.41,-0.2,-1.31,-8.2,4.17,-14.5,0.07,-0.14,0.96,-0.77,1.4,-0.36
1900-01-01 17:17:33.183,12.4,8.94,24.53,0.16,0.22,0.97,-1.47,0.44,-0.96,-8.54,3.82,-14.56,0.06,-0.14,0.95,-2.43,1.56,0.08
1900-01-01 17:17:33.230,11.79,8.56,24.54,0.15,0.21,0.97,-1.57,0.34,-0.91,-9.13,3.79,-14.56,0.06,-0.15,0.94,-2.24,1.72,0.21
1900-01-01 17:17:33.331,12.0,8.47,24.56,0.15,0.21,0.97,-1.02,0.34,-1.08,-9.23,3.77,-14.53,0.06,-0.16,0.95,-1.7,1.56,-0.07
1900-01-01 17:17:33.421,12.27,8.34,24.55,0.15,0.21,0.97,-0.87,-0.05,-1.04,-8.99,3.41,-14.55,0.06,-0.15,0.95,-1.34,1.09,0.02
1900-01-01 17:17:33.468,11.85,8.42,24.55,0.15,0.21,0.98,-0.61,-0.12,-1.08,-9.19,3.75,-14.56,0.06,-0.15,0.95,-1.16,1.18,0.07
1900-01-01 17:17:33.561,11.78,8.68,24.55,0.15,0.21,0.98,-0.9,0.02,-0.75,-9.02,4.1,-14.56,0.07,-0.15,0.95,-1.59,1.64,0.36
1900-01-01 17:17:33.608,12.28,8.41,24.59,0.15,0.21,0.97,-1.17,0.26,-0.8,-8.87,3.5,-14.51,0.06,-0.15,0.94,-1.82,1.33,0.31
1900-01-01 17:17:33.703,12.09,8.24,24.63,0.14,0.21,0.97,-0.6,-0.17,-0.89,-9.05,3.32,-14.47,0.06,-0.15,0.94,-1.35,1.15,0.07
1900-01-01 17:17:33.798,11.51,8.33,24.65,0.15,0.2,0.97,-0.34,-0.13,-0.87,-9.43,3.66,-14.47,0.06,-0.16,0.95,-1.26,1.28,0.11
1900-01-01 17:17:33.844,11.92,8.51,24.68,0.15,0.21,0.97,-0.52,-0.35,-0.8,-8.91,3.69,-14.46,0.06,-0.15,0.95,-1.12,0.93,0.06
1900-01-01 17:17:33.939,11.8,8.53,24.71,0.15,0.21,0.98,-0.38,-0.54,-0.6,-9.1,3.86,-14.46,0.07,-0.15,0.95,-1.54,1.22,0.15
1900-01-01 17:17:34.035,11.94,8.26,24.78,0.14,0.21,0.97,-0.69,-0.36,-0.76,-9.42,3.87,-14.44,0.06,-0.16,0.94,-1.21,1.28,0.18
1900-01-01 17:17:34.080,12.13,8.38,24.82,0.15,0.21,0.97,-0.44,-0.37,-1.24,-8.88,3.69,-14.42,0.06,-0.15,0.95,-0.85,1.17,-0.29
1900-01-01 17:17:34.174,11.92,8.41,24.79,0.15,0.21,0.98,-0.32,-0.39,-1.11,-9.2,3.66,-14.48,0.06,-0.15,0.95,-1.24,0.99,-0.29
1900-01-01 17:17:34.221,11.87,8.42,24.78,0.15,0.21,0.97,-0.52,-0.47,-1.21,-8.9,3.72,-14.53,0.06,-0.15,0.95,-0.63,1.01,-0.08
1900-01-01 17:17:34.329,11.41,8.33,24.75,0.14,0.2,0.96,1.6,-2.62,-0.7,-9.17,3.42,-14.55,0.06,-0.15,0.93,1.14,0.29,-0.46
1900-01-01 17:17:34.411,12.19,9.06,24.8,0.16,0.22,1.0,-1.08,0.21,-0.09,-9.17,4.9,-14.63,0.08,-0.16,0.96,-2.52,0.51,0.37
1900-01-01 17:17:34.458,12.66,9.28,24.95,0.16,0.22,0.98,-1.35,0.76,-1.29,-8.07,3.95,-14.58,0.07,-0.14,0.95,-2.22,2.18,0.15
1900-01-01 17:17:34.552,12.19,8.14,24.91,0.14,0.21,0.95,-0.97,-0.11,-1.48,-9.74,3.4,-14.57,0.06,-0.16,0.94,-1.74,1.38,-0.68
1900-01-01 17:17:34.599,11.43,8.24,24.84,0.15,0.2,0.99,-0.02,-0.53,-1.42,-9.44,3.98,-14.68,0.07,-0.16,0.95,-0.86,1.33,-0.37
1900-01-01 17:17:34.692,11.62,8.73,24.78,0.15,0.2,0.98,-0.72,0.54,-0.82,-9.23,4.38,-14.75,0.07,-0.16,0.95,-1.96,1.44,0.28
1900-01-01 17:17:34.787,12.06,8.39,24.81,0.15,0.21,0.97,-0.67,0.24,-0.88,-8.96,3.62,-14.71,0.06,-0.15,0.95,-1.66,1.57,0.29
1900-01-01 17:17:34.833,12.37,8.28,24.84,0.14,0.21,0.96,-0.57,-0.26,-0.73,-9.32,3.77,-14.67,0.06,-0.16,0.94,-1.31,0.76,0.0
1900-01-01 17:17:34.927,11.6,8.48,24.89,0.15,0.2,0.98,-0.08,-0.56,-1.16,-9.27,4.08,-14.68,0.07,-0.16,0.95,-1.02,1.27,-0.28
1900-01-01 17:17:35.021,12.18,8.25,24.87,0.14,0.21,0.97,-0.92,-0.08,-0.94,-9.27,3.5,-14.74,0.06,-0.15,0.94,-1.53,1.55,0.09
1900-01-01 17:17:35.068,11.85,8.52,24.88,0.15,0.21,0.98,-0.37,-0.2,-1.24,-9.07,3.97,-14.73,0.07,-0.15,0.95,-0.79,1.32,-0.16
1900-01-01 17:17:35.162,12.39,8.75,24.85,0.15,0.22,0.97,-0.52,-0.27,-1.04,-8.9,3.95,-14.76,0.07,-0.15,0.95,-1.55,1.16,-0.22
1900-01-01 17:17:35.208,11.85,8.26,24.85,0.15,0.21,0.98,-0.24,-0.56,-1.15,-9.35,3.64,-14.81,0.06,-0.16,0.95,-0.9,1.4,-0.14
1900-01-01 17:17:35.356,12.05,8.46,24.83,0.15,0.21,0.97,-0.13,-0.58,-0.88,-9.12,3.87,-14.83,0.06,-0.15,0.95,-0.92,1.43,0.1
1900-01-01 17:17:35.397,11.97,8.27,24.86,0.14,0.21,0.97,-0.02,-0.82,-1.05,-9.19,3.5,-14.83,0.06,-0.15,0.94,-0.53,1.59,-0.02
1900-01-01 17:17:35.444,12.35,8.63,24.85,0.15,0.22,0.98,-0.47,-0.44,-0.8,-9.01,3.96,-14.84,0.07,-0.15,0.95,-0.68,1.32,0.28
1900-01-01 17:17:35.539,12.86,8.87,24.89,0.16,0.22,0.97,-0.04,-0.56,-0.76,-8.17,3.4,-14.8,0.06,-0.14,0.95,-1.15,1.05,0.2
1900-01-01 17:17:35.633,12.45,8.56,24.93,0.15,0.22,0.98,-0.56,-0.36,-0.85,-8.89,3.75,-14.78,0.06,-0.15,0.95,-1.32,1.53,0.18
1900-01-01 17:17:35.680,12.5,8.55,24.96,0.15,0.22,0.97,-0.61,-0.01,-0.96,-8.95,3.47,-14.76,0.06,-0.15,0.95,-1.15,1.22,0.09
1900-01-01 17:17:35.775,12.41,8.84,24.97,0.16,0.22,0.98,-0.97,0.11,-1.02,-8.65,3.89,-14.76,0.07,-0.15,0.95,-1.73,1.22,0.15
1900-01-01 17:17:35.822,12.18,8.52,24.97,0.15,0.21,0.98,-0.68,0.34,-0.76,-9.29,3.85,-14.74,0.06,-0.16,0.95,-2.26,1.21,0.44
1900-01-01 17:17:35.916,12.26,8.36,25.02,0.15,0.21,0.97,-0.01,0.06,-1.39,-8.97,3.45,-14.68,0.06,-0.15,0.94,-0.68,1.76,0.11
1900-01-01 17:17:36.010,12.3,8.58,24.96,0.15,0.21,0.97,-0.44,0.12,-1.24,-8.72,3.44,-14.67,0.06,-0.15,0.95,-1.02,1.85,0.12
1900-01-01 17:17:36.058,11.83,8.14,24.93,0.14,0.21,0.98,-0.48,0.11,-1.1,-9.63,3.74,-14.66,0.06,-0.16,0.95,-1.21,1.84,0.3
1900-01-01 17:17:36.153,12.13,8.17,24.92,0.14,0.21,0.98,-0.41,-0.15,-1.34,-8.81,3.18,-14.63,0.05,-0.15,0.95,0.56,2.09,0.59
1900-01-01 17:17:36.200,13.37,7.94,24.88,0.14,0.23,0.97,0.13,-0.05,-1.4,-8.31,2.59,-14.55,0.04,-0.14,0.95,0.07,2.4,0.04
1900-01-01 17:17:36.343,12.37,7.93,24.82,0.14,0.21,0.96,1.66,-0.63,-2.05,-7.76,2.54,-14.55,0.04,-0.13,0.94,1.15,1.95,0.11
1900-01-01 17:17:36.387,12.03,8.58,24.67,0.15,0.22,1.0,-1.81,-0.28,-1.13,-8.77,4.42,-14.54,0.08,-0.15,0.98,0.22,0.66,0.6
1900-01-01 17:17:36.435,12.02,7.56,24.66,0.14,0.21,1.0,3.3,-1.49,-3.4,-9.33,3.05,-14.46,0.05,-0.16,0.96,6.71,5.78,0.25
1900-01-01 17:17:36.530,15.55,9.22,24.3,0.16,0.26,0.92,2.8,-1.27,-3.27,-3.64,1.15,-14.43,0.02,-0.06,0.92,6.13,2.34,0.29
1900-01-01 17:17:36.624,16.0,8.57,23.96,0.15,0.28,0.96,1.08,-0.79,-1.78,-2.54,1.12,-14.39,0.02,-0.04,0.95,0.98,2.08,0.24
1900-01-01 17:17:36.671,14.33,8.33,23.85,0.15,0.25,0.97,-3.03,0.29,-0.08,-6.11,2.29,-14.36,0.04,-0.1,0.96,-3.72,-0.04,0.44
1900-01-01 17:17:36.764,13.95,8.41,23.99,0.14,0.24,0.95,1.37,-1.24,-1.02,-4.49,1.52,-14.31,0.02,-0.07,0.93,-0.45,0.6,0.05
1900-01-01 17:17:36.811,13.46,8.0,24.0,0.14,0.24,0.98,-0.31,-0.63,-0.74,-5.96,2.81,-14.31,0.05,-0.1,0.96,-0.5,1.15,-0.03
1900-01-01 17:17:36.907,14.49,9.02,24.04,0.16,0.25,0.95,0.05,-0.7,-0.8,-4.27,2.04,-14.32,0.03,-0.07,0.95,-1.27,1.15,0.05
1900-01-01 17:17:37.001,14.37,8.51,24.08,0.15,0.25,0.95,0.28,-0.54,-0.79,-4.57,1.73,-14.32,0.03,-0.08,0.94,-2.44,0.23,-0.08
1900-01-01 17:17:37.046,13.81,9.12,24.12,0.16,0.24,0.97,-2.06,0.09,-0.1,-5.64,3.51,-14.34,0.06,-0.1,0.97,-3.53,-0.85,-0.21
1900-01-01 17:17:37.141,13.24,8.83,24.26,0.16,0.24,0.99,-1.85,-0.08,-0.5,-6.73,3.95,-14.38,0.07,-0.11,0.97,-3.2,0.25,-0.08
1900-01-01 17:17:37.236,13.82,8.41,24.34,0.15,0.24,0.97,-0.84,-0.28,-1.0,-5.99,2.77,-14.41,0.05,-0.1,0.95,-1.0,1.59,0.09
1900-01-01 17:17:37.283,13.95,8.4,24.35,0.15,0.24,0.96,-1.12,0.02,-0.61,-5.99,2.87,-14.4,0.05,-0.1,0.95,-1.99,0.81,0.11
1900-01-01 17:17:37.356,13.62,8.27,24.41,0.15,0.24,0.97,-0.29,-0.3,-0.98,-6.29,3.15,-14.39,0.05,-0.11,0.95,-0.67,1.31,-0.05
1900-01-01 17:17:37.426,13.83,8.75,24.42,0.15,0.24,0.97,-0.44,-0.5,-1.07,-5.7,3.21,-14.41,0.05,-0.1,0.96,-0.6,1.29,0.02
1900-01-01 17:17:37.521,14.01,8.96,24.41,0.16,0.24,0.96,-0.14,-0.55,-0.85,-5.74,3.42,-14.41,0.06,-0.1,0.96,-1.02,1.05,-0.08
1900-01-01 17:17:37.614,14.04,8.58,24.44,0.15,0.25,0.97,-0.8,-0.36,-0.9,-5.78,2.99,-14.43,0.05,-0.1,0.96,-1.4,0.92,-0.01
1900-01-01 17:17:37.661,13.94,8.5,24.46,0.15,0.24,0.96,-0.73,-0.37,-0.85,-5.61,2.77,-14.44,0.05,-0.09,0.95,-0.92,1.02,0.05
1900-01-01 17:17:37.754,14.02,9.15,24.49,0.16,0.24,0.96,-1.05,-0.07,-1.02,-5.77,3.38,-14.44,0.06,-0.1,0.95,-1.61,0.18,-0.63
1900-01-01 17:17:37.849,13.53,8.91,24.49,0.16,0.24,0.98,-1.77,0.1,-0.94,-5.92,3.86,-14.55,0.07,-0.1,0.96,-2.74,0.5,-0.18
1900-01-01 17:17:37.897,13.02,8.6,24.51,0.15,0.23,0.97,-0.8,-0.11,-1.2,-6.65,3.78,-14.58,0.06,-0.11,0.95,-1.77,1.52,-0.5
1900-01-01 17:17:37.991,13.2,8.77,24.48,0.15,0.23,0.97,-1.44,0.37,-1.53,-6.92,4.02,-14.67,0.07,-0.12,0.96,-1.98,1.37,-0.56
1900-01-01 17:17:38.038,14.87,8.2,24.41,0.14,0.26,0.96,-0.63,-0.39,-0.72,-5.12,2.2,-14.76,0.04,-0.08,0.94,-2.15,1.63,0.34
1900-01-01 17:17:38.133,12.91,8.27,24.46,0.14,0.22,0.96,-0.82,-0.22,-0.83,-7.45,3.8,-14.72,0.06,-0.12,0.95,-0.69,0.79,-0.01
1900-01-01 17:17:38.228,13.66,8.92,24.49,0.16,0.24,0.99,0.44,-0.82,-1.4,-5.14,3.36,-14.73,0.06,-0.09,0.97,-0.37,1.22,-0.38
1900-01-01 17:17:38.275,13.52,8.1,24.43,0.14,0.24,0.97,-0.83,-0.42,-0.48,-6.79,3.17,-14.8,0.05,-0.11,0.95,-1.46,1.13,0.37
1900-01-01 17:17:38.340,13.19,8.51,24.52,0.15,0.23,0.97,-0.48,-0.01,-1.05,-6.81,3.77,-14.75,0.06,-0.11,0.96,-0.79,1.56,-0.03
1900-01-01 17:17:38.416,14.14,9.13,24.52,0.16,0.25,0.97,-0.98,0.1,-0.8,-5.64,3.44,-14.76,0.06,-0.09,0.95,-2.18,1.43,0.35
1900-01-01 17:17:38.509,13.07,8.61,24.55,0.15,0.23,0.97,-1.12,0.18,-0.82,-6.84,3.82,-14.72,0.06,-0.11,0.95,-1.89,0.56,0.17
1900-01-01 17:17:38.605,13.92,8.87,24.58,0.16,0.24,0.97,-1.61,0.27,-1.02,-5.86,3.35,-14.7,0.06,-0.1,0.96,-2.27,1.63,0.2
1900-01-01 17:17:38.652,12.86,8.06,24.59,0.14,0.22,0.96,-1.37,0.59,-0.87,-7.32,3.34,-14.68,0.06,-0.12,0.95,-2.82,1.08,0.21
1900-01-01 17:17:38.746,13.0,8.3,24.61,0.15,0.23,0.97,-1.18,0.47,-1.3,-6.59,3.4,-14.66,0.06,-0.11,0.95,-1.66,1.43,0.06
1900-01-01 17:17:38.839,13.01,8.23,24.57,0.14,0.23,0.97,-1.66,0.63,-0.92,-6.95,3.33,-14.65,0.06,-0.12,0.96,-2.43,1.67,0.29
1900-01-01 17:17:38.886,12.09,7.75,24.59,0.14,0.21,0.98,-0.29,-0.02,-1.28,-8.28,3.57,-14.62,0.06,-0.14,0.96,-0.51,2.11,0.16
1900-01-01 17:17:38.980,13.31,8.08,24.55,0.14,0.23,0.98,0.64,0.04,-1.56,-6.16,2.86,-14.6,0.05,-0.1,0.96,0.27,2.36,0.02
1900-01-01 17:17:39.027,12.91,7.41,24.48,0.13,0.22,0.97,-0.4,0.41,-1.47,-7.42,2.71,-14.61,0.05,-0.12,0.95,0.15,1.92,0.1
1900-01-01 17:17:39.121,12.79,7.28,24.41,0.13,0.23,0.98,2.47,0.18,-2.34,-7.5,3.03,-14.6,0.05,-0.13,0.96,3.85,3.05,0.03
1900-01-01 17:17:39.215,13.41,7.37,24.22,0.13,0.24,1.0,6.75,-0.52,-4.0,-6.35,2.76,-14.61,0.05,-0.11,0.98,8.5,6.56,-0.96
1900-01-01 17:17:39.262,13.06,6.77,23.76,0.12,0.24,1.03,14.44,-3.92,-5.27,-6.75,2.61,-14.76,0.05,-0.12,1.0,19.37,13.58,-1.73
1900-01-01 17:17:39.356,14.48,6.64,23.11,0.12,0.25,0.98,31.85,-10.81,-8.71,-9.03,3.87,-15.03,0.07,-0.15,0.95,52.32,26.76,1.36
1900-01-01 17:17:39.452,30.66,9.12,21.93,0.16,0.52,0.86,22.78,-13.37,-9.85,16.58,-11.81,-14.83,-0.21,0.29,0.95,26.32,11.81,-5.77
1900-01-01 17:17:39.503,29.93,10.32,20.58,0.19,0.52,0.88,-10.47,-4.92,-2.22,14.78,-7.31,-15.73,-0.12,0.25,0.93,-7.87,-8.01,-3.05
1900-01-01 17:17:39.593,24.89,12.44,20.39,0.21,0.41,0.85,-4.66,-3.85,2.8,11.07,-3.82,-16.21,-0.06,0.18,0.9,-2.78,-3.02,2.27
1900-01-01 17:17:39.640,19.97,12.65,20.98,0.21,0.33,0.89,-8.44,0.27,-0.17,6.92,0.5,-15.87,0.01,0.1,0.85,-8.07,5.82,-2.89
1900-01-01 17:17:39.736,22.88,13.23,21.11,0.21,0.36,0.82,-3.74,2.98,-5.0,9.54,-4.31,-16.32,-0.07,0.14,0.86,-7.53,4.66,-3.63
1900-01-01 17:17:39.829,25.15,10.72,20.51,0.18,0.41,0.85,-2.01,4.12,-3.99,10.76,-7.56,-16.88,-0.12,0.17,0.88,-6.79,5.5,-2.5
1900-01-01 17:17:39.877,24.42,10.06,20.06,0.17,0.41,0.88,2.44,2.46,-1.02,8.74,-6.77,-17.27,-0.11,0.14,0.91,-0.6,5.23,0.79
1900-01-01 17:17:39.972,22.88,9.76,20.06,0.17,0.39,0.91,-0.63,4.76,-0.68,6.41,-6.88,-17.16,-0.11,0.11,0.94,-6.61,7.01,-0.43
1900-01-01 17:17:40.019,22.59,7.76,20.12,0.14,0.39,0.93,-0.67,3.53,-1.66,5.01,-8.02,-17.23,-0.14,0.08,0.96,-3.91,4.76,-1.93
1900-01-01 17:17:40.113,23.9,7.4,20.02,0.13,0.41,0.91,-3.18,2.27,-1.24,5.5,-9.72,-17.54,-0.16,0.09,0.95,-9.4,3.15,-3.34
1900-01-01 17:17:40.207,24.35,7.42,19.99,0.14,0.43,0.95,-7.17,2.76,0.73,5.72,-8.17,-18.05,-0.14,0.1,0.98,-8.02,-3.66,1.28
1900-01-01 17:17:40.254,19.47,9.21,20.26,0.16,0.34,0.96,-6.69,0.21,1.54,2.81,-4.4,-17.87,-0.07,0.05,0.97,-2.98,1.85,0.99
1900-01-01 17:17:40.350,17.72,8.52,20.65,0.15,0.31,0.95,-2.84,-0.11,-0.07,2.46,-6.43,-17.72,-0.11,0.04,0.96,-4.24,0.81,0.05
1900-01-01 17:17:40.400,20.53,7.25,20.8,0.12,0.34,0.91,-1.38,0.6,-0.68,2.11,-8.23,-17.72,-0.13,0.03,0.92,-3.13,-0.44,-0.77
1900-01-01 17:17:40.491,19.84,6.5,20.86,0.11,0.34,0.93,0.31,2.07,-0.75,0.9,-7.56,-17.85,-0.13,0.02,0.95,-2.02,-2.07,-0.23
1900-01-01 17:17:40.585,18.44,6.53,20.9,0.12,0.32,0.96,0.83,0.42,-2.64,1.12,-5.94,-17.89,-0.1,0.02,0.97,1.47,-1.22,-0.6
1900-01-01 17:17:40.637,20.61,7.08,20.66,0.13,0.36,0.94,1.05,-0.66,-3.33,4.15,-6.82,-17.99,-0.11,0.07,0.95,1.87,0.84,-1.24
1900-01-01 17:17:40.728,20.15,6.98,20.31,0.12,0.34,0.92,-1.68,0.65,-1.33,3.21,-6.42,-18.19,-0.11,0.05,0.94,-1.91,1.44,-0.1
1900-01-01 17:17:40.774,19.5,6.81,20.27,0.12,0.33,0.93,-0.38,-0.08,-1.4,2.84,-6.23,-18.21,-0.1,0.05,0.94,-0.7,1.16,-0.21
1900-01-01 17:17:40.868,20.36,6.39,20.21,0.11,0.35,0.93,-0.61,0.37,-1.41,3.26,-6.58,-18.25,-0.11,0.05,0.94,-0.99,0.19,-0.03
1900-01-01 17:17:40.963,19.82,6.79,20.16,0.12,0.34,0.94,-0.93,0.05,-1.15,2.89,-5.92,-18.27,-0.1,0.05,0.95,-0.66,0.7,-0.02
1900-01-01 17:17:41.010,20.31,6.69,20.14,0.12,0.35,0.94,-0.46,-0.47,-1.24,3.44,-5.79,-18.28,-0.1,0.06,0.95,-0.36,0.83,-0.11
1900-01-01 17:17:41.105,20.24,6.74,20.11,0.12,0.34,0.92,-0.79,-0.08,-1.21,3.52,-5.89,-18.3,-0.1,0.06,0.94,-0.42,0.15,-0.35
1900-01-01 17:17:41.199,20.54,6.68,20.08,0.12,0.35,0.92,-0.66,-0.54,-1.34,3.14,-5.37,-18.36,-0.09,0.05,0.93,2.31,-0.64,-0.6
1900-01-01 17:17:41.244,20.06,6.49,20.04,0.11,0.34,0.93,0.21,-0.53,-1.77,5.32,-5.87,-18.46,-0.1,0.09,0.94,5.0,-1.6,-0.81
1900-01-01 17:17:41.396,20.01,6.35,19.93,0.11,0.35,0.95,-0.5,-0.7,-0.55,5.24,-4.65,-18.6,-0.08,0.09,0.95,1.14,-0.6,-0.7
1900-01-01 17:17:41.396,20.77,7.01,20.0,0.12,0.36,0.93,-0.28,-0.34,-0.84,6.05,-4.61,-18.71,-0.08,0.1,0.95,0.63,-0.86,-0.33
1900-01-01 17:17:41.468,19.52,6.68,20.03,0.12,0.34,0.94,-0.29,-0.89,-0.79,5.71,-4.05,-18.77,-0.07,0.09,0.95,-0.56,0.27,-0.16
1900-01-01 17:17:41.564,20.31,6.8,20.07,0.12,0.35,0.93,-0.27,-0.37,-1.26,6.02,-4.29,-18.8,-0.07,0.1,0.94,-0.84,-0.47,0.32
1900-01-01 17:17:41.657,20.72,6.74,20.03,0.12,0.35,0.92,0.19,-0.11,-1.69,6.24,-4.24,-18.76,-0.07,0.1,0.93,0.72,-1.31,-0.02
1900-01-01 17:17:41.706,20.71,6.65,19.93,0.12,0.36,0.95,-0.25,-0.06,-1.56,6.95,-3.07,-18.77,-0.05,0.12,0.96,0.21,-0.6,-0.29
1900-01-01 17:17:41.801,20.23,6.74,19.85,0.12,0.35,0.94,0.02,-0.44,-1.35,6.36,-2.96,-18.83,-0.05,0.11,0.95,-1.28,1.44,-0.15
1900-01-01 17:17:41.847,20.73,6.72,19.81,0.12,0.35,0.93,-0.56,-0.15,-1.38,6.69,-3.49,-18.86,-0.06,0.11,0.95,-1.78,1.56,-0.08
1900-01-01 17:17:41.942,21.18,6.53,19.76,0.11,0.36,0.93,-0.53,-0.19,-1.15,6.93,-3.74,-18.88,-0.06,0.11,0.94,-1.04,1.18,-0.28
1900-01-01 17:17:42.038,20.87,6.71,19.74,0.12,0.36,0.93,-0.21,-0.36,-1.24,6.82,-3.42,-18.93,-0.06,0.11,0.94,-1.06,1.13,-0.27
1900-01-01 17:17:42.084,20.48,6.69,19.71,0.12,0.35,0.93,-0.29,-0.42,-1.27,6.62,-3.41,-18.98,-0.06,0.11,0.95,-1.1,1.41,-0.15
1900-01-01 17:17:42.181,20.56,6.71,19.67,0.12,0.35,0.93,-0.89,-0.16,-0.82,6.49,-3.29,-19.01,-0.05,0.11,0.95,-1.96,1.23,0.12
1900-01-01 17:17:42.230,20.71,6.59,19.71,0.11,0.35,0.93,-0.05,-0.66,-0.96,6.66,-3.67,-19.0,-0.06,0.11,0.94,-1.04,1.24,0.06
1900-01-01 17:17:42.324,20.74,6.58,19.72,0.11,0.35,0.93,-0.09,-0.78,-0.66,6.2,-3.45,-19.0,-0.06,0.1,0.94,-0.91,0.76,-0.02
1900-01-01 17:17:42.385,20.96,6.68,19.78,0.12,0.36,0.93,0.11,-1.02,-0.79,6.73,-3.28,-19.01,-0.05,0.11,0.95,-0.18,0.68,0.12
1900-01-01 17:17:42.465,21.03,7.01,19.82,0.12,0.36,0.92,0.54,-1.22,-0.48,6.83,-3.29,-19.0,-0.05,0.11,0.94,-0.35,0.79,0.24
1900-01-01 17:17:42.558,21.16,7.14,19.9,0.12,0.36,0.93,0.51,-1.09,-0.58,7.05,-3.17,-18.97,-0.05,0.12,0.95,0.63,0.47,0.1
1900-01-01 17:17:42.605,21.12,7.21,19.97,0.13,0.36,0.93,0.31,-1.35,-0.73,7.51,-3.11,-18.97,-0.05,0.12,0.95,0.39,1.11,0.04
1900-01-01 17:17:42.699,21.52,7.47,20.02,0.13,0.37,0.92,0.08,-0.97,-0.69,7.84,-3.19,-18.97,-0.05,0.13,0.94,-0.27,0.98,0.08
1900-01-01 17:17:42.794,21.68,7.6,20.07,0.13,0.37,0.92,-0.18,-0.66,-0.82,7.73,-2.95,-18.96,-0.05,0.13,0.94,-0.54,0.95,-0.05
1900-01-01 17:17:42.846,21.42,7.66,20.11,0.13,0.37,0.93,0.0,-0.42,-0.82,7.71,-2.86,-18.98,-0.05,0.13,0.94,-1.08,1.37,-0.01
1900-01-01 17:17:42.939,22.01,7.64,20.14,0.13,0.38,0.92,-0.18,-0.53,-0.93,8.03,-3.19,-18.99,-0.05,0.13,0.94,-0.55,1.3,-0.11
1900-01-01 17:17:42.984,21.81,7.57,20.16,0.13,0.37,0.93,-0.18,-0.33,-0.98,7.81,-2.92,-19.02,-0.05,0.13,0.95,-1.21,1.05,-0.06
1900-01-01 17:17:43.078,21.8,7.82,20.17,0.14,0.38,0.93,-0.25,-0.25,-1.02,8.19,-2.83,-19.03,-0.05,0.14,0.95,-1.47,1.14,0.04
1900-01-01 17:17:43.172,22.14,7.91,20.17,0.14,0.38,0.92,-0.6,-0.3,-0.99,8.24,-3.03,-19.04,-0.05,0.14,0.94,-1.52,1.25,0.02
1900-01-01 17:17:43.220,21.93,7.65,20.18,0.13,0.38,0.92,-0.16,-0.47,-1.04,8.1,-3.13,-19.04,-0.05,0.13,0.94,-1.42,1.56,-0.21
1900-01-01 17:17:43.312,21.58,7.47,20.18,0.13,0.37,0.92,-0.72,-0.34,-0.97,7.49,-3.08,-19.08,-0.05,0.12,0.94,-1.2,1.44,-0.21
1900-01-01 17:17:43.413,22.23,7.63,20.19,0.13,0.38,0.91,-0.42,-0.56,-0.95,8.13,-3.24,-19.12,-0.05,0.13,0.94,-0.98,0.66,-0.08
1900-01-01 17:17:43.486,21.79,8.08,20.2,0.14,0.37,0.92,-1.24,-0.47,-0.75,8.07,-2.62,-19.14,-0.04,0.14,0.95,-2.08,0.71,-0.22
1900-01-01 17:17:43.533,21.75,7.83,20.25,0.14,0.37,0.91,-2.25,-0.22,-0.9,7.36,-2.89,-19.18,-0.05,0.12,0.94,-3.17,-0.07,-0.15
1900-01-01 17:17:43.628,21.15,8.04,20.27,0.14,0.37,0.94,-0.94,-1.02,-1.92,7.61,-1.89,-19.22,-0.03,0.13,0.96,-1.09,0.24,-0.96
1900-01-01 17:17:43.675,22.28,7.65,20.13,0.13,0.38,0.93,0.33,1.02,-2.24,8.86,-3.08,-19.37,-0.05,0.15,0.94,-3.05,1.48,-1.25
1900-01-01 17:17:43.769,19.8,7.84,19.95,0.13,0.33,0.9,-1.85,-0.48,-0.93,5.04,-1.88,-19.57,-0.03,0.08,0.93,-2.22,-1.37,-0.17
1900-01-01 17:17:43.863,22.42,7.25,19.97,0.13,0.39,0.93,0.22,-2.07,-1.24,6.98,-2.66,-19.6,-0.04,0.12,0.94,-2.51,0.47,-1.09
1900-01-01 17:17:43.910,21.29,6.89,19.94,0.12,0.36,0.91,1.29,-1.0,-2.44,6.58,-3.31,-19.78,-0.05,0.11,0.92,0.39,1.27,-0.62
1900-01-01 17:17:44.005,21.3,8.37,19.72,0.15,0.37,0.95,-4.94,3.27,0.87,6.39,-0.93,-19.88,-0.02,0.11,0.97,-8.34,0.76,1.5
1900-01-01 17:17:44.053,20.52,7.55,20.02,0.13,0.36,0.94,-0.94,1.22,0.49,6.35,-2.17,-19.66,-0.04,0.11,0.96,-2.51,2.62,1.15
1900-01-01 17:17:44.147,21.67,7.22,20.25,0.12,0.37,0.91,-2.37,1.61,1.23,4.8,-2.69,-19.5,-0.04,0.08,0.94,-5.43,0.99,1.08
1900-01-01 17:17:44.241,21.59,4.89,20.59,0.08,0.36,0.9,1.94,0.4,-2.21,4.83,-4.05,-19.34,-0.07,0.08,0.92,0.98,2.33,-0.68
1900-01-01 17:17:44.288,22.02,8.96,20.42,0.16,0.37,0.91,-2.15,0.07,-1.3,6.25,-1.5,-19.45,-0.03,0.1,0.95,0.65,-1.56,-0.86
1900-01-01 17:17:44.388,23.09,5.58,20.38,0.1,0.41,0.96,1.6,-0.92,-4.59,5.94,-3.0,-19.59,-0.05,0.1,0.96,0.21,1.95,-4.64
1900-01-01 17:17:44.431,22.04,9.05,19.84,0.15,0.37,0.9,-0.37,-2.34,-4.12,8.35,-1.63,-20.31,-0.03,0.14,0.94,-0.92,-0.85,-3.68
1900-01-01 17:17:44.524,22.82,4.78,19.37,0.09,0.4,0.94,-5.65,-0.4,-5.21,5.75,-3.39,-20.88,-0.06,0.1,0.96,-5.3,-0.1,-6.04
1900-01-01 17:17:44.619,18.98,7.91,18.73,0.14,0.33,0.95,1.22,-1.42,-8.16,5.22,-0.41,-21.81,-0.01,0.09,0.96,2.76,0.79,-5.82
1900-01-01 17:17:44.666,20.89,5.82,17.65,0.11,0.38,0.99,-2.0,2.32,-7.79,6.2,-1.43,-22.7,-0.02,0.11,0.98,-4.5,4.82,-5.08
1900-01-01 17:17:44.761,17.96,5.19,16.62,0.09,0.3,0.94,-5.6,5.08,-6.4,3.3,-1.33,-23.48,-0.02,0.05,0.95,-5.97,4.02,-2.06
1900-01-01 17:17:44.808,22.32,4.09,15.81,0.07,0.37,0.9,-1.6,1.43,-4.79,7.77,-5.37,-23.8,-0.09,0.13,0.92,-2.75,1.92,-1.77
1900-01-01 17:17:44.902,20.35,3.47,15.24,0.06,0.34,0.92,-8.16,3.03,-3.53,4.2,-3.39,-24.08,-0.06,0.07,0.93,-7.92,-1.07,-2.49
1900-01-01 17:17:44.996,16.41,3.07,14.86,0.05,0.28,0.96,-6.48,2.88,-3.73,1.81,-1.33,-24.47,-0.02,0.03,0.96,-5.05,-0.83,-2.13
1900-01-01 17:17:45.044,16.19,2.4,14.45,0.04,0.28,0.97,-6.53,1.91,-3.63,1.19,-1.89,-24.8,-0.03,0.02,0.96,-3.25,0.85,-1.82
1900-01-01 17:17:45.137,17.1,2.52,14.05,0.04,0.29,0.95,-3.68,1.6,-3.82,3.18,-2.9,-25.09,-0.05,0.05,0.94,-4.33,2.95,-2.26
1900-01-01 17:17:45.186,15.75,1.54,13.63,0.03,0.27,0.97,-6.77,3.01,-2.71,1.78,-2.44,-25.44,-0.04,0.03,0.96,-7.08,0.78,-0.78
1900-01-01 17:17:45.280,15.09,1.48,13.38,0.03,0.26,0.95,-5.73,3.17,-3.11,0.47,-2.54,-25.57,-0.04,0.01,0.95,-5.02,0.23,-1.02
1900-01-01 17:17:45.406,13.96,0.62,13.06,0.01,0.24,0.97,-4.89,2.76,-3.27,-1.65,-1.67,-25.73,-0.03,-0.03,0.95,-3.55,-0.71,-1.37
1900-01-01 17:17:45.421,14.03,0.77,12.72,0.01,0.25,0.98,-1.67,1.6,-2.74,0.23,-2.03,-25.95,-0.03,0.0,0.97,-2.18,2.14,0.18
1900-01-01 17:17:45.515,13.21,0.37,12.46,0.01,0.22,0.95,-1.6,0.69,-2.91,-1.89,-1.23,-25.93,-0.02,-0.03,0.95,-0.44,2.68,-1.08
1900-01-01 17:17:45.570,16.47,0.24,12.17,0.0,0.28,0.96,1.08,-1.8,-0.92,1.69,-3.42,-26.1,-0.06,0.03,0.94,-1.73,1.34,-0.06
1900-01-01 17:17:45.659,13.41,0.37,12.19,0.01,0.23,0.98,0.4,-1.4,0.02,0.13,-1.21,-26.12,-0.02,0.0,0.96,-0.06,1.8,1.08
1900-01-01 17:17:45.754,15.06,0.99,12.35,0.02,0.26,0.96,2.24,-1.62,-0.71,2.41,-3.11,-25.97,-0.05,0.04,0.95,1.76,1.31,0.84
1900-01-01 17:17:45.803,15.01,0.01,12.41,0.0,0.26,0.97,-0.65,-1.31,-0.48,1.65,-3.07,-25.85,-0.05,0.03,0.95,-2.26,1.61,-0.11
1900-01-01 17:17:45.896,13.68,0.67,12.49,0.01,0.24,0.97,2.63,-1.3,-0.73,0.71,-2.72,-25.87,-0.04,0.01,0.95,1.3,-1.2,2.07
1900-01-01 17:17:45.989,10.0,-0.25,12.54,0.0,0.19,1.09,6.39,0.29,-1.32,-5.59,2.53,-25.57,0.05,-0.1,1.06,6.02,1.01,5.59
1900-01-01 17:17:46.037,9.45,-0.28,12.5,-0.01,0.18,1.1,33.5,-8.75,-2.41,0.68,-0.78,-24.73,-0.02,0.01,1.12,18.21,21.4,5.45
1900-01-01 17:17:46.131,21.94,4.56,12.29,0.08,0.37,0.92,-1.18,-10.02,-4.68,3.12,-4.35,-23.91,-0.08,0.06,1.07,12.23,-12.1,-8.56
1900-01-01 17:17:46.178,27.25,1.08,11.73,0.02,0.5,0.98,-0.34,-15.83,-3.85,15.89,-9.34,-25.23,-0.17,0.28,0.98,6.95,-23.2,-7.32
1900-01-01 17:17:46.273,24.69,3.87,11.3,0.07,0.42,0.91,-13.19,-13.65,4.5,10.31,-0.78,-26.36,-0.01,0.17,0.95,4.87,-36.6,3.11
1900-01-01 17:17:46.405,17.97,10.07,12.14,0.17,0.3,0.92,-10.21,-11.4,-1.7,8.18,12.23,-25.9,0.19,0.12,0.85,-0.93,-23.34,-5.8
1900-01-01 17:17:46.415,14.69,11.61,12.04,0.2,0.25,0.93,-4.67,-7.33,-13.17,5.81,18.03,-26.8,0.28,0.09,0.86,3.08,-12.77,-18.05
1900-01-01 17:17:46.508,14.54,10.83,10.17,0.18,0.24,0.89,2.27,-6.29,-19.16,9.42,14.8,-29.59,0.21,0.14,0.79,0.72,0.47,-27.49
1900-01-01 17:17:46.602,20.75,7.9,7.39,0.12,0.32,0.82,-0.31,-0.92,-18.07,15.02,7.83,-33.81,0.11,0.21,0.78,-7.29,5.66,-24.93
1900-01-01 17:17:46.649,17.87,9.48,4.78,0.14,0.26,0.8,6.74,3.13,-14.96,13.13,6.08,-37.64,0.09,0.19,0.83,-0.19,12.33,-18.99
1900-01-01 17:17:46.744,22.73,8.16,2.65,0.14,0.38,0.89,-1.54,4.22,-11.24,15.57,5.07,-40.55,0.08,0.25,0.9,-8.86,6.65,-8.59
1900-01-01 17:17:46.791,26.03,6.24,1.09,0.11,0.44,0.89,9.13,1.24,-6.35,19.09,0.51,-41.87,0.01,0.32,0.92,7.86,10.73,-2.79
1900-01-01 17:17:46.884,24.51,7.6,0.29,0.14,0.42,0.92,4.73,2.82,0.23,15.62,3.41,-42.3,0.06,0.27,0.98,0.33,2.34,5.02
1900-01-01 17:17:46.980,21.42,7.09,0.48,0.13,0.38,0.96,2.21,1.83,0.47,12.67,7.13,-41.56,0.12,0.21,0.95,3.15,3.06,-0.3
1900-01-01 17:17:47.026,24.08,6.74,0.71,0.12,0.42,0.94,-2.02,3.49,0.09,14.6,5.44,-41.61,0.09,0.25,0.95,-4.06,-2.07,-0.18
1900-01-01 17:17:47.121,20.64,3.73,0.88,0.07,0.36,0.95,-1.53,4.06,-2.37,10.45,3.37,-41.64,0.06,0.19,1.0,-4.02,2.5,-0.83
1900-01-01 17:17:47.167,22.1,3.23,0.68,0.06,0.38,0.92,2.33,-1.07,-1.68,12.96,3.72,-41.78,0.06,0.21,0.91,7.12,-5.5,-4.34
1900-01-01 17:17:47.263,21.2,3.67,0.58,0.06,0.37,0.94,-3.93,1.92,-2.07,12.78,9.13,-42.45,0.15,0.21,0.9,-3.11,-7.53,-3.63
1900-01-01 17:17:47.357,23.88,3.18,0.43,0.06,0.4,0.91,1.95,0.58,-3.43,15.52,4.74,-43.01,0.08,0.26,0.92,-0.66,2.41,-4.37
1900-01-01 17:17:47.412,21.67,4.34,0.06,0.08,0.37,0.93,-5.31,3.9,-0.95,14.59,7.51,-43.68,0.12,0.24,0.91,-5.88,0.35,-1.01
1900-01-01 17:17:47.503,20.4,4.68,0.08,0.08,0.35,0.93,-2.2,1.38,-2.07,12.64,9.41,-43.84,0.16,0.21,0.93,-3.02,-4.15,-3.31
1900-01-01 17:17:47.594,21.85,2.49,-0.08,0.04,0.38,0.95,0.75,0.86,-4.33,12.07,8.23,-44.36,0.14,0.2,0.94,-4.6,-2.69,-6.4
1900-01-01 17:17:47.642,20.64,0.74,-0.58,0.01,0.34,0.91,-0.46,1.14,-7.6,11.17,7.83,-45.34,0.12,0.18,0.89,-2.64,-2.66,-1.67
1900-01-01 17:17:47.736,22.1,-0.73,-1.58,-0.01,0.36,0.88,0.18,2.15,-8.5,10.52,4.43,-45.61,0.07,0.18,0.94,-0.05,-3.05,-2.21
1900-01-01 17:17:47.782,26.71,-0.78,-2.72,-0.01,0.47,0.93,7.03,-2.15,-0.28,13.75,7.08,-45.95,0.12,0.23,0.94,3.77,-3.6,0.94
1900-01-01 17:17:47.877,23.8,1.52,-2.61,0.03,0.42,0.94,2.44,-1.08,1.68,14.09,11.09,-45.82,0.19,0.24,0.93,-0.77,-0.91,0.37
1900-01-01 17:17:47.972,23.75,1.51,-2.19,0.03,0.41,0.92,-0.82,-0.69,0.49,11.78,11.12,-45.77,0.19,0.2,0.93,-1.85,-0.15,-0.5
1900-01-01 17:17:48.019,24.54,1.99,-1.96,0.03,0.41,0.9,3.39,-0.37,-0.08,14.62,9.2,-45.85,0.15,0.24,0.92,1.37,2.21,0.0
1900-01-01 17:17:48.113,24.11,1.35,-1.81,0.02,0.41,0.91,1.35,-0.76,0.34,13.28,10.36,-45.86,0.17,0.22,0.92,0.82,1.87,0.32
1900-01-01 17:17:48.159,25.13,2.76,-1.6,0.05,0.42,0.89,1.5,-0.4,-0.37,14.54,10.47,-45.82,0.17,0.24,0.91,0.42,0.93,-0.8
1900-01-01 17:17:48.255,23.82,2.43,-1.5,0.04,0.4,0.91,-0.18,-0.34,-0.94,13.18,11.36,-45.95,0.19,0.22,0.91,0.17,1.48,-0.71
1900-01-01 17:17:48.351,25.48,2.53,-1.49,0.04,0.44,0.91,-1.04,0.26,-1.45,15.27,10.07,-46.07,0.17,0.26,0.93,-2.03,2.82,-0.05
1900-01-01 17:17:48.428,25.74,2.2,-1.55,0.04,0.43,0.89,0.37,-0.37,-1.23,14.8,9.99,-46.09,0.16,0.24,0.9,-0.03,1.74,0.43
1900-01-01 17:17:48.491,25.91,1.97,-1.58,0.03,0.43,0.89,1.7,-0.63,-1.58,15.04,9.32,-46.03,0.15,0.25,0.91,1.52,3.66,-1.36
1900-01-01 17:17:48.584,25.57,1.9,-1.66,0.03,0.43,0.89,-0.93,0.31,-1.4,14.37,9.64,-46.24,0.16,0.24,0.91,-1.08,2.17,-0.27
1900-01-01 17:17:48.632,25.32,1.78,-1.72,0.03,0.43,0.9,0.86,-0.21,-2.35,14.28,9.55,-46.29,0.16,0.24,0.92,1.24,3.79,-1.64
1900-01-01 17:17:48.727,26.65,1.47,-1.92,0.02,0.44,0.87,-0.3,0.93,-2.71,16.9,7.23,-46.55,0.12,0.27,0.9,3.17,2.63,-1.2
1900-01-01 17:17:48.774,26.2,1.51,-2.17,0.03,0.44,0.9,1.02,-0.17,-1.69,15.74,8.71,-46.74,0.15,0.26,0.92,1.0,1.97,-1.35
1900-01-01 17:17:48.870,27.42,0.83,-2.27,0.01,0.44,0.85,-7.6,4.59,-5.18,15.61,7.51,-46.96,0.12,0.26,0.91,-2.12,1.64,-0.18
1900-01-01 17:17:48.962,21.8,-1.07,-2.9,-0.02,0.37,0.92,3.88,-0.53,-2.93,15.32,5.95,-46.99,0.1,0.26,0.95,5.49,13.11,-7.93
1900-01-01 17:17:49.010,29.02,-0.13,-3.19,0.0,0.48,0.87,-1.96,0.26,-1.24,20.54,2.46,-48.21,0.04,0.34,0.9,1.38,9.51,3.73
1900-01-01 17:17:49.104,30.75,-1.07,-3.22,-0.02,0.5,0.83,1.33,-0.2,4.92,17.59,-1.06,-47.65,-0.02,0.28,0.89,-4.5,9.85,4.31
1900-01-01 17:17:49.150,19.02,-0.74,-2.31,-0.01,0.32,0.92,7.26,-0.26,2.6,5.81,10.61,-47.01,0.17,0.1,0.92,13.96,2.41,-10.98
1900-01-01 17:17:49.245,27.38,-5.34,-1.76,-0.1,0.48,0.93,4.65,-8.65,-3.88,21.5,1.1,-48.69,0.02,0.35,0.89,3.91,-2.72,-29.63
1900-01-01 17:17:49.339,35.91,-3.63,-2.19,-0.06,0.6,0.83,11.19,-8.6,12.11,19.47,-5.78,-53.23,-0.11,0.36,1.0,18.04,-2.83,-1.79
1900-01-01 17:17:49.426,26.58,5.73,-0.18,0.1,0.45,0.9,8.64,-8.49,12.6,26.84,7.97,-53.51,0.13,0.42,0.82,20.33,-0.27,10.88
1900-01-01 17:17:49.481,35.0,13.64,1.91,0.26,0.63,0.87,-8.28,0.4,5.67,37.35,6.33,-51.86,0.11,0.63,0.82,-10.38,-0.44,14.38
1900-01-01 17:17:49.526,30.04,13.77,2.93,0.25,0.53,0.88,-12.0,5.04,4.29,30.59,11.51,-49.67,0.19,0.49,0.8,-17.8,8.57,4.59
1900-01-01 17:17:49.620,28.22,11.57,3.75,0.2,0.46,0.84,4.69,-0.69,2.46,24.98,6.78,-48.98,0.12,0.42,0.9,1.19,5.13,0.94
1900-01-01 17:17:49.716,27.32,9.05,4.28,0.16,0.46,0.87,-1.68,-1.35,-0.13,22.96,7.79,-48.84,0.13,0.36,0.84,-2.31,3.49,-1.31
1900-01-01 17:17:49.763,30.53,8.0,4.42,0.13,0.48,0.8,2.88,-1.62,-2.41,25.16,3.92,-49.05,0.06,0.38,0.8,-0.79,1.4,-0.3
1900-01-01 17:17:49.858,30.8,5.84,4.21,0.1,0.49,0.82,9.68,-2.51,-1.21,23.0,2.2,-49.1,0.04,0.38,0.89,11.34,1.53,0.5
1900-01-01 17:17:49.953,31.18,10.45,4.18,0.18,0.52,0.83,5.73,-2.31,-1.21,30.53,6.76,-49.04,0.11,0.46,0.78,4.21,1.89,3.32
1900-01-01 17:17:50.000,31.82,7.71,4.16,0.14,0.54,0.86,3.78,0.03,-3.25,22.97,5.09,-48.54,0.09,0.4,0.93,2.24,-0.87,-0.53
1900-01-01 17:17:50.093,33.44,7.98,3.82,0.14,0.56,0.84,2.58,-1.6,-4.37,30.6,7.29,-48.63,0.12,0.47,0.79,9.05,-4.2,-1.32
1900-01-01 17:17:50.142,38.1,8.45,3.32,0.15,0.62,0.77,5.0,2.14,-2.62,32.46,3.18,-48.84,0.06,0.54,0.85,4.88,2.4,1.06
1900-01-01 17:17:50.236,36.15,5.7,3.08,0.1,0.58,0.78,15.14,-2.75,-0.38,27.63,2.49,-48.69,0.04,0.46,0.88,19.18,0.24,-5.66
1900-01-01 17:17:50.330,41.18,6.58,3.18,0.13,0.73,0.82,-1.72,-3.11,0.86,38.41,1.24,-49.56,0.02,0.64,0.8,-0.98,-13.94,8.21
1900-01-01 17:17:50.376,37.23,3.66,3.47,0.06,0.59,0.78,-14.42,1.38,3.19,33.04,6.07,-48.32,0.1,0.5,0.76,-15.15,-24.87,14.82
1900-01-01 17:17:50.450,34.78,6.35,4.12,0.11,0.56,0.81,-17.83,3.18,2.47,28.93,14.77,-46.05,0.24,0.45,0.78,-11.48,-17.33,6.15
1900-01-01 17:17:50.518,27.7,7.47,4.65,0.13,0.46,0.87,-23.61,3.09,-0.72,28.93,16.0,-45.12,0.25,0.43,0.74,-25.55,-1.34,5.57
1900-01-01 17:17:50.613,32.26,5.84,4.7,0.1,0.52,0.82,-3.11,-0.68,4.0,25.16,13.07,-44.27,0.22,0.41,0.84,-6.49,13.6,0.15
1900-01-01 17:17:50.707,29.15,13.31,5.47,0.22,0.47,0.81,14.63,-1.97,5.06,25.76,16.31,-44.26,0.26,0.4,0.79,7.17,8.18,0.29
1900-01-01 17:17:50.753,28.17,11.77,6.4,0.22,0.51,0.92,-3.47,-1.07,0.99,23.61,20.86,-44.23,0.36,0.41,0.86,-5.47,7.31,-9.16
1900-01-01 17:17:50.848,31.14,12.42,6.71,0.22,0.54,0.87,11.44,-4.9,-4.26,30.48,10.09,-45.63,0.18,0.52,0.87,7.6,4.07,-4.73
1900-01-01 17:17:50.941,33.85,8.68,6.22,0.15,0.56,0.82,0.67,1.2,-0.26,29.57,9.36,-46.37,0.16,0.48,0.84,3.85,-14.2,17.88
1900-01-01 17:17:50.989,28.36,6.0,6.34,0.1,0.45,0.82,-10.46,3.89,-1.73,16.85,20.32,-43.65,0.3,0.25,0.76,-17.24,-3.92,-7.19
1900-01-01 17:17:51.083,34.84,7.92,6.23,0.15,0.61,0.87,-21.35,4.11,-7.13,27.71,11.73,-44.77,0.22,0.5,0.92,-21.88,-20.26,8.43
1900-01-01 17:17:51.130,33.2,7.15,5.29,0.12,0.54,0.81,-2.7,2.85,-1.4,24.81,14.18,-43.48,0.23,0.4,0.83,-2.96,-13.73,5.91
1900-01-01 17:17:51.224,26.51,4.33,5.24,0.08,0.45,0.89,-18.94,3.05,-1.18,19.53,22.78,-42.59,0.37,0.32,0.83,-13.46,-13.67,9.69
1900-01-01 17:17:51.320,24.54,5.62,5.21,0.09,0.4,0.87,-5.42,-0.79,-0.66,20.34,19.75,-41.11,0.31,0.32,0.8,-2.65,3.72,6.08
1900-01-01 17:17:51.368,21.36,5.71,5.27,0.1,0.37,0.94,-8.11,0.9,-1.69,17.06,25.04,-40.19,0.42,0.29,0.86,0.91,-2.4,5.49
1900-01-01 17:17:51.441,21.86,5.19,5.17,0.09,0.38,0.95,-7.16,1.15,-0.46,18.48,27.15,-39.36,0.44,0.31,0.81,-6.63,-0.69,3.21
1900-01-01 17:17:51.509,21.43,9.91,5.26,0.18,0.39,0.98,-4.4,-2.04,-2.73,19.45,27.48,-38.88,0.47,0.34,0.84,-11.56,1.27,-3.42
1900-01-01 17:17:51.605,23.62,6.07,5.0,0.1,0.37,0.83,6.0,2.87,-4.32,17.92,19.05,-39.41,0.29,0.28,0.8,0.82,0.5,-1.05
1900-01-01 17:17:51.697,21.71,1.79,4.5,0.03,0.35,0.89,-4.72,1.18,-2.87,15.15,21.33,-39.58,0.35,0.25,0.85,-4.76,-5.95,4.92
1900-01-01 17:17:51.745,20.26,4.01,4.23,0.07,0.34,0.93,-7.8,1.5,-5.56,14.25,25.55,-38.84,0.41,0.24,0.83,-1.44,-9.43,8.69
1900-01-01 17:17:51.840,20.3,4.18,3.53,0.08,0.36,0.97,-0.87,4.26,-4.76,17.28,28.96,-37.52,0.49,0.3,0.83,5.02,0.47,11.07
1900-01-01 17:17:51.933,22.42,6.6,2.97,0.12,0.4,0.95,7.35,-0.55,-0.79,20.76,27.93,-35.85,0.48,0.36,0.83,2.85,6.47,-1.72
1900-01-01 17:17:51.982,21.7,8.47,3.01,0.15,0.37,0.91,5.16,0.08,1.05,17.58,29.05,-36.12,0.47,0.29,0.79,5.33,0.6,3.63
1900-01-01 17:17:52.076,22.85,5.17,3.32,0.09,0.4,0.95,11.68,-3.98,-1.39,18.97,29.13,-35.58,0.51,0.34,0.85,13.91,1.95,-10.23
1900-01-01 17:17:52.124,28.56,4.7,3.27,0.09,0.5,0.92,5.96,-4.66,1.13,19.75,28.93,-37.15,0.5,0.35,0.83,11.18,-7.85,-8.4
1900-01-01 17:17:52.217,27.68,2.29,3.6,0.04,0.43,0.83,-0.78,-1.82,3.82,20.23,20.93,-38.44,0.33,0.32,0.8,-5.46,-0.92,3.04
1900-01-01 17:17:52.311,22.57,1.35,4.34,0.02,0.34,0.82,-0.39,-6.04,-0.79,16.71,26.57,-37.99,0.39,0.25,0.73,0.14,-6.33,3.02
1900-01-01 17:17:52.359,27.09,8.09,4.38,0.14,0.46,0.89,3.91,-1.18,-2.83,24.27,28.77,-37.54,0.47,0.4,0.76,2.54,-4.15,3.73
1900-01-01 17:17:52.459,25.92,6.71,4.11,0.13,0.47,0.97,-6.29,-0.6,-2.31,20.95,31.44,-36.98,0.55,0.38,0.82,-9.84,-4.52,7.37
1900-01-01 17:17:52.500,27.24,7.85,3.91,0.13,0.45,0.86,-1.0,-3.03,-0.93,21.85,30.23,-35.86,0.47,0.35,0.73,-2.15,-2.33,1.81
1900-01-01 17:17:52.594,26.41,6.28,3.93,0.11,0.44,0.88,-0.98,-1.69,-1.4,19.83,31.37,-35.59,0.51,0.33,0.77,1.2,-2.79,1.31
1900-01-01 17:17:52.691,26.23,7.35,3.87,0.13,0.45,0.9,-0.24,-2.01,-0.63,20.39,31.96,-35.4,0.53,0.35,0.77,1.45,-1.29,2.11
1900-01-01 17:17:52.743,26.58,6.0,3.94,0.11,0.46,0.9,-1.75,-3.44,-1.79,19.62,31.83,-35.09,0.53,0.33,0.78,-0.74,-2.76,0.03
1900-01-01 17:17:52.832,25.67,7.7,3.82,0.13,0.43,0.88,3.93,-5.98,-1.05,21.08,33.28,-35.09,0.52,0.34,0.72,4.16,0.02,-4.18
1900-01-01 17:17:52.926,26.26,9.58,3.82,0.16,0.44,0.87,-2.08,-1.48,-2.04,22.17,33.59,-35.73,0.53,0.36,0.71,-1.31,-0.59,0.51
1900-01-01 17:17:52.973,26.54,7.97,3.67,0.14,0.44,0.88,0.4,-1.91,-2.7,21.55,32.91,-35.66,0.53,0.36,0.74,1.76,-1.48,-1.16
1900-01-01 17:17:53.069,26.27,9.14,3.41,0.16,0.44,0.87,0.82,-2.95,-3.14,22.27,34.02,-35.85,0.53,0.36,0.7,3.95,-1.49,-0.92
1900-01-01 17:17:53.116,27.75,9.0,3.09,0.16,0.47,0.88,-1.79,-0.31,-2.56,24.4,33.03,-36.0,0.54,0.41,0.72,0.63,1.67,-0.56
1900-01-01 17:17:53.208,26.15,7.52,2.86,0.13,0.45,0.91,-0.44,-1.86,-2.36,21.84,34.2,-36.09,0.57,0.38,0.75,-1.66,-0.05,-1.64
1900-01-01 17:17:53.304,27.97,8.87,2.66,0.16,0.47,0.88,3.53,-2.59,-2.71,25.93,31.81,-36.35,0.51,0.43,0.71,0.88,2.89,-4.34
1900-01-01 17:17:53.350,28.77,9.07,2.4,0.16,0.48,0.86,-1.85,0.21,-1.67,24.45,32.08,-37.02,0.52,0.4,0.72,0.27,1.14,-0.54
1900-01-01 17:17:53.465,27.91,8.94,2.31,0.15,0.47,0.87,0.2,-0.16,-1.64,24.51,32.94,-37.11,0.53,0.4,0.7,0.69,1.42,-0.84
1900-01-01 17:17:53.494,27.08,8.32,2.22,0.15,0.46,0.89,0.21,-0.4,-1.47,23.92,33.15,-37.25,0.55,0.4,0.73,-1.37,2.34,-1.01
1900-01-01 17:17:53.587,29.57,9.02,2.15,0.16,0.49,0.85,-1.91,0.81,-1.76,27.99,30.38,-37.41,0.49,0.45,0.7,-2.94,1.71,1.43
1900-01-01 17:17:53.680,27.11,8.47,2.04,0.15,0.45,0.87,0.05,1.69,-0.26,24.12,32.83,-37.2,0.53,0.4,0.72,-1.44,2.18,-0.37
1900-01-01 17:17:53.728,26.42,7.86,2.16,0.14,0.44,0.88,0.37,-0.5,-0.5,24.07,32.7,-37.26,0.52,0.4,0.71,-0.5,1.66,0.01
1900-01-01 17:17:53.823,27.01,7.94,2.24,0.14,0.46,0.9,-1.34,0.18,-1.2,24.93,31.8,-37.27,0.53,0.42,0.74,-3.43,1.32,1.18
1900-01-01 17:17:53.869,28.58,8.65,2.22,0.15,0.48,0.87,-4.64,2.47,-0.5,25.94,31.36,-37.1,0.51,0.43,0.72,-3.37,2.79,3.21
1900-01-01 17:17:53.965,26.48,8.25,2.3,0.14,0.44,0.88,-1.95,0.73,0.66,22.8,33.26,-36.62,0.53,0.37,0.72,-3.24,1.34,1.35
1900-01-01 17:17:54.059,25.9,7.73,2.56,0.13,0.43,0.88,-2.14,0.39,-1.69,23.12,32.69,-36.42,0.53,0.38,0.73,-2.67,0.9,0.68
1900-01-01 17:17:54.105,27.04,7.89,2.46,0.14,0.45,0.87,-0.92,0.78,-1.04,23.89,32.06,-36.33,0.52,0.39,0.73,-1.44,1.18,0.44
1900-01-01 17:17:54.204,25.79,7.64,2.46,0.13,0.43,0.89,-1.69,0.79,0.36,22.62,32.3,-36.27,0.52,0.38,0.73,-3.01,0.94,1.35
1900-01-01 17:17:54.294,24.59,7.36,2.68,0.13,0.41,0.89,-1.94,0.47,-0.85,20.66,33.74,-36.07,0.54,0.34,0.73,-2.15,0.8,0.83
1900-01-01 17:17:54.342,25.83,7.35,2.7,0.13,0.43,0.88,-3.77,1.95,-1.4,23.3,31.94,-35.96,0.51,0.38,0.72,-4.11,0.71,2.94
1900-01-01 17:17:54.463,25.16,7.15,2.65,0.13,0.43,0.91,-1.31,1.6,-0.67,21.53,33.62,-35.52,0.56,0.37,0.75,-1.17,1.95,0.24
1900-01-01 17:17:54.484,25.99,7.38,2.71,0.13,0.44,0.9,-2.52,1.34,-0.31,22.52,33.06,-35.49,0.53,0.37,0.73,-3.21,1.44,1.19
1900-01-01 17:17:54.580,24.36,6.15,2.82,0.11,0.41,0.9,-0.73,1.21,-0.15,20.34,33.18,-35.32,0.53,0.34,0.74,-1.78,2.89,0.5
1900-01-01 17:17:54.674,24.82,6.6,2.95,0.11,0.42,0.9,-0.95,0.62,-1.11,21.75,32.86,-35.25,0.53,0.36,0.74,-1.79,1.39,0.31
1900-01-01 17:17:54.721,23.84,6.48,2.94,0.11,0.4,0.9,-1.24,1.25,-1.09,20.51,33.26,-35.21,0.54,0.34,0.74,-1.51,2.31,1.09
1900-01-01 17:17:54.816,24.89,6.18,2.93,0.11,0.42,0.89,-0.24,0.95,-1.27,21.3,32.96,-35.05,0.53,0.35,0.73,-0.52,2.44,-0.39
1900-01-01 17:17:54.863,24.39,6.07,2.9,0.11,0.41,0.91,-0.44,1.19,-1.53,20.19,33.37,-35.12,0.54,0.34,0.75,-0.24,2.57,-1.11
1900-01-01 17:17:54.957,25.38,5.72,2.83,0.1,0.43,0.9,-0.5,1.44,-1.6,21.49,32.4,-35.3,0.53,0.36,0.75,-1.47,2.23,0.0
1900-01-01 17:17:55.052,24.81,5.43,2.74,0.09,0.42,0.91,-0.79,1.52,-1.24,20.47,32.59,-35.31,0.53,0.34,0.76,-1.04,3.1,-0.32
1900-01-01 17:17:55.100,24.48,4.7,2.71,0.08,0.42,0.91,-0.64,0.86,-1.02,20.29,31.77,-35.37,0.52,0.34,0.76,-1.24,2.53,0.85
1900-01-01 17:17:55.195,25.22,4.7,2.71,0.08,0.42,0.89,-1.22,1.27,-1.18,21.24,31.67,-35.24,0.51,0.35,0.75,-2.2,2.63,0.89
1900-01-01 17:17:55.242,24.38,4.86,2.69,0.09,0.42,0.92,0.2,0.85,-0.98,20.83,32.11,-35.12,0.53,0.35,0.76,-2.02,3.19,0.46
1900-01-01 17:17:55.336,25.05,4.8,2.7,0.08,0.43,0.91,-0.43,0.08,-1.24,21.49,32.0,-35.06,0.52,0.36,0.75,-2.53,1.63,0.55
1900-01-01 17:17:55.477,25.02,5.14,2.67,0.09,0.42,0.89,-1.28,1.34,-1.08,20.81,31.69,-34.98,0.51,0.35,0.76,-1.81,1.62,0.64
1900-01-01 17:17:55.483,24.7,4.89,2.67,0.08,0.41,0.89,-0.31,0.82,-1.09,20.28,31.62,-34.89,0.51,0.34,0.76,-0.75,2.24,-0.58
1900-01-01 17:17:55.570,25.07,4.22,2.66,0.07,0.43,0.91,-0.64,0.77,-0.44,20.51,31.06,-34.99,0.51,0.35,0.77,-1.66,1.98,0.73
1900-01-01 17:17:55.617,24.97,3.87,2.75,0.07,0.42,0.91,-1.58,0.99,-0.34,20.3,30.98,-34.89,0.5,0.34,0.77,-2.13,2.05,1.15
1900-01-01 17:17:55.711,25.01,3.84,2.86,0.07,0.42,0.91,-2.39,1.0,0.38,20.34,30.48,-34.72,0.5,0.34,0.78,-3.3,1.67,2.79
1900-01-01 17:17:55.806,24.47,4.73,3.07,0.08,0.42,0.92,-2.1,0.86,0.98,19.95,31.63,-34.31,0.52,0.34,0.78,-2.59,2.08,2.31
1900-01-01 17:17:55.853,24.27,4.69,3.38,0.08,0.41,0.9,-2.1,1.09,0.49,20.17,31.73,-33.97,0.51,0.33,0.75,-1.91,2.0,2.43
1900-01-01 17:17:55.947,24.08,4.02,3.61,0.07,0.41,0.91,-0.28,0.87,1.47,17.2,31.8,-33.61,0.52,0.29,0.78,0.6,1.83,-0.04
1900-01-01 17:17:56.043,23.96,3.8,4.0,0.07,0.41,0.91,-1.25,-0.19,1.19,19.44,30.69,-33.62,0.51,0.33,0.78,-0.73,1.57,1.34
1900-01-01 17:17:56.090,24.07,5.4,4.34,0.09,0.41,0.91,-0.7,0.44,2.43,18.99,33.11,-33.42,0.53,0.32,0.75,-0.67,0.57,1.27
1900-01-01 17:17:56.187,22.9,4.01,4.86,0.07,0.38,0.91,0.53,0.19,0.54,17.92,33.39,-33.24,0.52,0.29,0.73,-1.37,3.48,-0.77
1900-01-01 17:17:56.232,24.55,3.49,5.1,0.06,0.43,0.94,-0.81,0.5,1.1,20.17,30.57,-33.37,0.51,0.34,0.79,-0.4,1.88,1.67
1900-01-01 17:17:56.325,23.58,4.13,5.43,0.07,0.41,0.93,-2.83,1.25,0.94,17.83,32.34,-33.12,0.54,0.31,0.79,-2.8,0.97,3.08
1900-01-01 17:17:56.421,23.27,4.11,5.73,0.07,0.38,0.88,3.33,-3.07,2.83,18.26,31.65,-32.66,0.49,0.3,0.75,3.53,1.73,-0.77
1900-01-01 17:17:56.472,23.42,4.65,6.32,0.08,0.41,0.95,0.74,-0.41,0.92,20.16,31.5,-32.79,0.53,0.35,0.79,-0.36,2.27,1.59
1900-01-01 17:17:56.563,24.54,5.49,6.62,0.1,0.42,0.92,-3.33,0.68,-0.05,19.69,31.74,-32.55,0.53,0.34,0.78,-4.4,1.03,2.82
1900-01-01 17:17:56.609,23.14,5.14,6.77,0.09,0.38,0.88,3.2,-4.26,2.07,18.02,31.87,-32.13,0.5,0.29,0.74,3.08,0.17,-2.08
1900-01-01 17:17:56.702,24.32,4.65,7.24,0.08,0.42,0.92,0.71,-1.77,0.79,18.59,31.59,-32.46,0.51,0.31,0.77,-0.45,1.1,1.66
1900-01-01 17:17:56.796,23.88,6.24,7.52,0.11,0.42,0.94,-3.29,-1.11,-1.39,18.8,32.81,-32.22,0.56,0.33,0.8,-3.2,0.2,2.19
1900-01-01 17:17:56.844,23.97,5.39,7.46,0.09,0.4,0.89,0.39,-3.63,0.85,16.55,32.07,-31.89,0.51,0.27,0.77,-1.27,0.12,-0.03
1900-01-01 17:17:56.937,22.98,4.54,7.75,0.08,0.38,0.89,-1.23,-2.83,-1.98,17.82,30.95,-31.9,0.49,0.29,0.76,-3.28,0.37,2.31
1900-01-01 17:17:57.031,23.99,6.75,7.61,0.12,0.41,0.91,-3.07,-2.87,-2.59,18.54,32.91,-31.56,0.54,0.32,0.77,-2.4,-0.21,0.45
1900-01-01 17:17:57.079,22.58,6.98,7.37,0.12,0.38,0.9,0.66,-4.84,-0.26,16.97,33.1,-31.5,0.52,0.28,0.75,1.43,-1.38,-1.7
1900-01-01 17:17:57.174,24.72,9.55,7.49,0.17,0.43,0.91,-1.2,-0.89,-3.47,20.61,33.92,-31.77,0.55,0.35,0.74,-2.23,1.75,-0.85
1900-01-01 17:17:57.221,23.57,6.91,7.12,0.12,0.4,0.91,0.27,-1.95,-2.64,19.07,31.89,-31.9,0.52,0.32,0.77,-0.49,0.62,-1.89
1900-01-01 17:17:57.314,25.05,8.1,6.87,0.14,0.41,0.87,-0.19,-1.66,-2.66,21.47,32.16,-32.2,0.51,0.35,0.72,-0.07,1.15,-1.94
1900-01-01 17:17:57.410,23.48,7.68,6.62,0.14,0.41,0.93,-0.24,-1.27,-2.33,17.95,32.96,-32.51,0.55,0.31,0.79,-2.52,0.86,-1.13
1900-01-01 17:17:57.493,24.99,7.95,6.43,0.14,0.41,0.88,0.33,-1.9,-2.4,21.84,32.69,-32.69,0.51,0.35,0.71,-1.25,2.04,-1.9
1900-01-01 17:17:57.553,24.05,7.45,6.22,0.13,0.41,0.91,-2.05,0.43,-2.98,18.79,32.56,-32.98,0.53,0.32,0.77,-2.85,1.69,-1.24
1900-01-01 17:17:57.599,25.69,8.94,5.92,0.16,0.43,0.89,0.15,0.39,-3.54,22.71,31.14,-33.18,0.51,0.38,0.75,-2.13,2.34,-1.51
1900-01-01 17:17:57.692,23.47,7.79,5.54,0.13,0.4,0.9,1.86,-0.55,-1.42,19.87,32.21,-33.42,0.52,0.33,0.76,-0.69,2.1,-1.83
1900-01-01 17:17:57.789,23.37,7.34,5.48,0.13,0.39,0.9,-0.62,-1.02,-2.18,19.67,32.03,-33.71,0.51,0.32,0.74,-1.04,1.59,-1.27
1900-01-01 17:17:57.833,26.21,8.15,5.31,0.14,0.45,0.9,-2.0,2.37,-3.82,22.61,29.99,-33.91,0.5,0.39,0.78,-3.72,1.89,1.08
1900-01-01 17:17:57.927,24.66,7.73,4.89,0.13,0.41,0.88,-1.74,1.05,-1.6,19.07,32.13,-33.76,0.51,0.31,0.75,-2.03,1.3,0.08
1900-01-01 17:17:57.976,24.38,6.79,4.8,0.12,0.41,0.89,0.24,1.03,-0.97,19.75,31.44,-33.75,0.51,0.33,0.76,0.0,0.53,-0.31
1900-01-01 17:17:58.071,23.25,7.0,4.81,0.13,0.41,0.94,-2.74,1.54,-2.1,19.08,32.77,-33.81,0.54,0.33,0.78,-2.89,0.4,2.14
1900-01-01 17:17:58.166,25.26,6.8,4.65,0.12,0.43,0.9,-3.77,0.97,-2.33,20.05,31.64,-33.49,0.52,0.34,0.77,-3.26,-0.98,2.61
1900-01-01 17:17:58.213,24.83,5.85,4.45,0.1,0.41,0.89,2.37,-1.25,0.02,18.98,31.59,-33.1,0.5,0.31,0.75,1.67,2.42,-2.39
1900-01-01 17:17:58.307,23.22,6.57,4.62,0.12,0.4,0.92,-2.17,1.8,-2.2,18.74,33.25,-33.47,0.54,0.32,0.77,-2.78,0.79,0.63
1900-01-01 17:17:58.401,23.44,6.12,4.44,0.11,0.4,0.9,-0.15,-1.71,-2.75,18.07,32.31,-33.39,0.52,0.3,0.77,-0.58,0.19,-1.63
1900-01-01 17:17:58.450,25.1,5.59,4.18,0.1,0.42,0.89,3.01,-1.42,-1.54,20.09,31.06,-33.64,0.5,0.33,0.76,1.53,2.69,-2.95
1900-01-01 17:17:58.519,24.64,6.63,4.1,0.12,0.44,0.94,-2.6,2.37,-2.44,19.15,32.98,-34.1,0.56,0.34,0.8,-4.08,1.79,0.76
1900-01-01 17:17:58.590,24.56,5.73,3.89,0.1,0.4,0.87,0.56,-1.5,-2.23,20.24,31.28,-34.0,0.49,0.33,0.74,-0.85,1.21,-1.79
1900-01-01 17:17:58.686,24.67,5.66,3.71,0.1,0.41,0.89,0.87,0.34,-2.35,19.96,31.28,-34.28,0.49,0.32,0.75,-0.55,1.89,-1.47
1900-01-01 17:17:58.780,24.73,5.97,3.51,0.11,0.43,0.93,-1.54,2.45,-3.01,20.97,32.06,-34.51,0.55,0.37,0.79,-2.13,1.37,0.69
1900-01-01 17:17:58.827,25.66,5.7,3.21,0.1,0.43,0.89,-0.26,0.79,-1.93,20.43,30.96,-34.41,0.5,0.34,0.77,-1.61,0.59,0.02
1900-01-01 17:17:58.921,25.06,4.59,3.07,0.08,0.42,0.9,0.39,0.41,-1.01,20.01,31.33,-34.42,0.51,0.33,0.76,-0.6,1.85,-0.53
1900-01-01 17:17:58.970,24.4,4.84,3.08,0.09,0.42,0.92,-0.24,0.42,-1.36,19.72,31.84,-34.51,0.52,0.33,0.77,-1.21,1.07,0.35
1900-01-01 17:17:59.063,25.23,4.93,3.03,0.09,0.43,0.91,-3.34,1.22,-1.24,20.35,31.64,-34.46,0.52,0.34,0.77,-4.05,1.21,1.97
1900-01-01 17:17:59.159,24.76,4.69,3.0,0.08,0.42,0.91,-0.68,0.39,-0.63,19.49,31.79,-34.17,0.52,0.33,0.77,-2.06,1.78,0.47
1900-01-01 17:17:59.206,24.23,4.3,3.06,0.07,0.41,0.9,-1.29,0.46,-1.11,18.6,31.85,-34.11,0.51,0.31,0.77,-2.5,1.38,0.47
1900-01-01 17:17:59.302,24.71,4.44,3.05,0.08,0.41,0.9,-0.27,0.04,-1.31,19.52,31.42,-34.04,0.51,0.32,0.76,-1.44,1.71,-0.11
1900-01-01 17:17:59.348,24.24,4.31,3.01,0.08,0.41,0.91,0.06,0.24,-1.42,18.85,31.63,-34.07,0.52,0.32,0.78,-1.47,1.36,-0.26
1900-01-01 17:17:59.444,24.71,4.46,2.96,0.08,0.42,0.91,-0.52,-0.1,-1.27,19.71,31.27,-34.12,0.51,0.33,0.78,-1.37,1.54,0.13
1900-01-01 17:17:59.514,24.94,4.25,2.92,0.07,0.42,0.9,-0.06,-0.34,-1.1,19.31,31.42,-34.11,0.51,0.32,0.77,-1.02,1.61,-0.26
1900-01-01 17:17:59.588,24.85,4.17,2.91,0.07,0.42,0.9,-0.06,-0.29,-1.26,19.34,31.2,-34.15,0.5,0.32,0.76,-0.67,1.28,-0.21
1900-01-01 17:17:59.679,24.66,4.41,2.88,0.08,0.42,0.91,1.69,-0.44,-1.6,19.92,31.05,-34.19,0.51,0.34,0.77,1.59,1.45,-1.92
1900-01-01 17:17:59.726,25.18,4.32,2.79,0.08,0.43,0.9,3.46,-1.16,-1.39,21.24,30.98,-34.49,0.51,0.36,0.77,3.14,0.71,-2.53
1900-01-01 17:17:59.821,24.67,4.41,2.74,0.08,0.42,0.9,-0.09,0.02,-1.24,20.4,31.54,-34.89,0.51,0.34,0.76,2.18,1.24,-1.37
1900-01-01 17:17:59.915,24.89,4.08,2.71,0.07,0.42,0.9,-1.42,0.15,-1.98,20.61,31.15,-35.1,0.51,0.34,0.76,1.26,-1.36,0.08
1900-01-01 17:17:59.962,25.83,4.02,2.56,0.07,0.44,0.9,-1.4,0.19,-1.11,21.77,30.73,-35.1,0.5,0.36,0.76,-1.71,-0.08,0.21
1900-01-01 17:18:00.056,25.9,4.1,2.55,0.07,0.44,0.89,-1.19,0.33,-1.73,21.63,30.85,-35.08,0.51,0.36,0.76,-1.57,0.81,-0.37
1900-01-01 17:18:00.151,25.4,4.3,2.45,0.07,0.43,0.89,0.63,-0.61,-1.06,21.86,31.52,-35.14,0.5,0.36,0.74,-0.67,1.22,-0.71
1900-01-01 17:18:00.199,25.58,4.13,2.45,0.07,0.43,0.9,-1.14,0.11,-1.46,21.96,31.34,-35.26,0.52,0.37,0.76,-0.43,1.32,-0.31
1900-01-01 17:18:00.292,25.18,3.9,2.38,0.07,0.42,0.9,-0.18,-0.14,-1.08,21.39,31.91,-35.32,0.52,0.36,0.75,-0.31,0.71,-0.56
1900-01-01 17:18:00.339,25.24,4.06,2.38,0.07,0.43,0.9,-0.96,-0.25,-0.61,21.08,31.72,-35.41,0.51,0.35,0.75,-2.53,1.26,0.25
1900-01-01 17:18:00.434,25.37,4.07,2.44,0.07,0.43,0.89,-0.39,0.02,-0.97,21.54,31.5,-35.38,0.51,0.36,0.75,-1.73,1.2,0.37
1900-01-01 17:18:00.505,25.8,4.1,2.45,0.07,0.43,0.89,-0.69,-0.16,-1.31,21.71,31.61,-35.33,0.51,0.36,0.75,-1.44,0.95,-0.05
1900-01-01 17:18:00.576,25.63,4.34,2.41,0.07,0.43,0.89,0.34,-0.51,-1.15,21.88,31.51,-35.35,0.51,0.36,0.74,-0.69,-0.18,0.52
1900-01-01 17:18:00.670,23.97,3.87,2.39,0.07,0.41,0.92,-4.75,0.43,-1.55,19.27,32.99,-35.28,0.55,0.33,0.77,-4.98,-3.76,5.19
1900-01-01 17:18:00.716,25.74,4.11,2.32,0.07,0.44,0.91,-7.37,-0.16,-1.77,21.25,33.28,-34.5,0.54,0.35,0.74,-8.49,-7.6,8.13
1900-01-01 17:18:00.810,24.97,3.0,2.2,0.05,0.42,0.9,1.19,-1.06,-0.85,19.97,34.25,-33.26,0.55,0.33,0.74,-0.89,-2.65,1.18
1900-01-01 17:18:00.903,23.85,3.82,2.23,0.07,0.4,0.9,0.1,-0.46,-0.95,18.57,35.81,-33.09,0.57,0.31,0.73,-0.45,0.33,-0.51
1900-01-01 17:18:00.951,23.87,3.58,2.25,0.06,0.41,0.92,-0.57,-1.06,-0.88,18.67,35.48,-33.18,0.58,0.32,0.74,-0.73,0.89,-1.26
1900-01-01 17:18:01.046,24.36,3.71,2.27,0.06,0.41,0.91,-1.19,-0.6,-0.92,20.05,34.51,-33.38,0.56,0.34,0.74,-0.92,3.17,-0.76
1900-01-01 17:18:01.140,24.39,3.99,2.29,0.07,0.41,0.9,-1.06,0.46,-1.08,19.74,34.77,-33.5,0.56,0.33,0.74,-1.2,2.34,-0.61
1900-01-01 17:18:01.187,24.44,4.09,2.28,0.07,0.41,0.91,1.34,-0.82,-0.63,20.22,34.55,-33.6,0.55,0.34,0.73,-0.71,2.64,-1.26
1900-01-01 17:18:01.280,24.45,3.93,2.34,0.07,0.41,0.9,-0.42,-0.03,-1.21,19.84,34.52,-33.8,0.56,0.33,0.74,-1.21,2.92,0.48
1900-01-01 17:18:01.328,24.57,4.07,2.32,0.07,0.41,0.89,1.02,-0.24,-0.56,19.58,34.44,-33.74,0.55,0.33,0.73,-0.71,2.33,-0.38
1900-01-01 17:18:01.422,24.74,3.89,2.39,0.07,0.42,0.91,0.54,-0.35,-0.98,20.54,33.76,-33.81,0.55,0.35,0.74,-0.65,2.01,-0.07
1900-01-01 17:18:01.519,25.02,4.24,2.4,0.07,0.43,0.91,-0.49,-0.05,-1.1,20.24,33.98,-33.83,0.55,0.34,0.75,-1.24,1.14,0.2
1900-01-01 17:18:01.566,24.54,3.58,2.39,0.06,0.41,0.9,-0.66,-0.24,-1.11,19.44,33.94,-33.8,0.55,0.33,0.74,-2.15,-0.24,0.49
1900-01-01 17:18:01.658,24.77,4.06,2.38,0.07,0.42,0.91,-1.64,-0.37,-1.27,19.91,34.36,-33.74,0.56,0.34,0.74,-2.44,-0.4,1.05
1900-01-01 17:18:01.756,24.75,3.76,2.34,0.06,0.42,0.9,-0.13,-0.51,-1.13,19.43,34.75,-33.58,0.56,0.32,0.73,-1.21,0.0,-0.21
1900-01-01 17:18:01.801,24.37,3.76,2.33,0.07,0.41,0.91,-0.76,-0.85,-0.91,19.44,35.07,-33.62,0.56,0.33,0.73,-1.76,1.18,0.21
1900-01-01 17:18:01.895,24.09,3.86,2.35,0.07,0.4,0.9,-0.82,-0.4,-1.19,19.51,34.83,-33.6,0.55,0.32,0.73,-0.2,2.03,-0.31
1900-01-01 17:18:01.942,24.22,3.87,2.33,0.07,0.41,0.91,-0.29,-0.4,-1.5,19.77,34.85,-33.66,0.56,0.33,0.74,0.02,1.55,-0.58
1900-01-01 17:18:02.036,24.68,3.95,2.26,0.07,0.42,0.91,0.31,-0.66,-0.16,20.04,34.33,-33.75,0.56,0.34,0.75,-1.08,2.32,-0.15
1900-01-01 17:18:02.130,24.24,4.06,2.39,0.07,0.42,0.92,-0.13,-1.46,-0.57,18.85,34.94,-33.78,0.58,0.32,0.76,-1.73,1.45,0.21
1900-01-01 17:18:02.177,25.75,4.78,2.46,0.08,0.44,0.91,2.1,-2.85,-0.33,21.67,33.5,-33.76,0.55,0.37,0.74,-1.02,1.5,-1.26
1900-01-01 17:18:02.272,24.84,4.49,2.57,0.08,0.42,0.9,-0.23,-1.56,-0.19,19.84,34.81,-33.96,0.56,0.33,0.73,-0.65,0.93,-0.05
1900-01-01 17:18:02.321,25.2,5.14,2.7,0.09,0.42,0.89,0.43,-1.34,-0.86,20.28,34.4,-33.98,0.55,0.34,0.73,0.13,1.57,-1.59
1900-01-01 17:18:02.416,25.89,5.53,2.73,0.1,0.44,0.9,1.06,-1.84,-0.51,20.97,34.07,-34.23,0.56,0.35,0.74,1.57,1.22,-1.49
1900-01-01 17:18:02.522,25.36,6.22,2.81,0.11,0.44,0.93,-0.84,-1.97,0.05,20.61,35.0,-34.46,0.58,0.36,0.75,-0.68,-0.08,0.42
1900-01-01 17:18:02.556,25.94,5.5,2.97,0.1,0.44,0.89,-1.05,-2.22,0.14,21.12,33.85,-34.41,0.54,0.35,0.72,-0.85,-0.27,0.76
1900-01-01 17:18:02.650,24.77,4.69,3.15,0.08,0.41,0.88,-0.79,-1.56,-0.46,18.99,34.77,-34.3,0.55,0.31,0.72,-0.18,0.06,-0.4
1900-01-01 17:18:02.744,25.75,6.54,3.24,0.11,0.44,0.9,-0.27,-1.27,-1.23,22.19,35.01,-34.37,0.57,0.38,0.73,0.11,0.63,-0.95
1900-01-01 17:18:02.791,25.58,7.01,3.21,0.13,0.45,0.93,-1.73,-1.83,-0.4,21.38,35.12,-34.52,0.59,0.37,0.75,-1.85,-0.51,0.27
1900-01-01 17:18:02.884,25.48,7.39,3.31,0.13,0.42,0.87,-1.57,-2.31,-0.44,21.31,35.81,-34.49,0.55,0.34,0.69,-2.14,-0.76,0.53
1900-01-01 17:18:02.930,25.95,6.47,3.4,0.11,0.43,0.88,-1.77,-0.76,-0.71,20.91,34.8,-34.42,0.55,0.35,0.72,-0.81,0.21,-0.77
1900-01-01 17:18:03.026,24.93,6.7,3.45,0.12,0.42,0.89,-0.04,-1.77,-1.16,21.38,34.51,-34.55,0.55,0.35,0.72,-0.37,0.13,-0.67
1900-01-01 17:18:03.120,25.43,7.06,3.43,0.13,0.44,0.91,-3.13,-0.17,-0.44,21.04,36.49,-34.66,0.59,0.36,0.72,-2.69,0.41,2.24
1900-01-01 17:18:03.172,25.02,7.12,3.52,0.12,0.42,0.9,-1.93,-1.47,-1.14,22.02,34.59,-34.32,0.56,0.37,0.72,-2.4,-0.5,1.73
1900-01-01 17:18:03.264,24.65,7.82,3.51,0.13,0.41,0.88,-2.56,-0.51,0.1,20.96,36.52,-34.07,0.57,0.34,0.68,-2.13,0.42,1.27
1900-01-01 17:18:03.311,25.09,7.44,3.68,0.13,0.42,0.88,-2.73,0.76,-0.69,20.45,36.36,-33.88,0.57,0.33,0.69,-2.05,1.24,0.9
1900-01-01 17:18:03.406,25.69,7.08,3.73,0.12,0.43,0.88,-1.09,1.5,-0.4,22.36,34.45,-33.75,0.55,0.37,0.71,-0.37,1.62,1.55
1900-01-01 17:18:03.528,22.63,7.18,3.83,0.13,0.39,0.93,-4.21,1.49,0.17,17.9,38.48,-33.53,0.63,0.31,0.73,-3.05,-0.03,3.14
1900-01-01 17:18:03.581,23.48,7.45,4.02,0.13,0.41,0.93,0.15,-1.66,-2.03,21.19,36.39,-33.06,0.59,0.36,0.72,-1.22,0.79,-0.74
1900-01-01 17:18:03.627,23.87,6.86,3.87,0.12,0.4,0.91,0.37,0.4,-0.87,20.55,36.3,-33.18,0.58,0.35,0.72,-1.08,2.07,0.02
1900-01-01 17:18:03.721,22.88,6.54,3.89,0.11,0.39,0.91,-0.46,-0.86,-1.25,19.31,36.69,-33.18,0.58,0.32,0.71,-1.87,1.66,-0.35
1900-01-01 17:18:03.768,23.52,7.13,3.86,0.12,0.4,0.91,-0.34,-0.04,-1.18,19.81,36.84,-33.25,0.6,0.34,0.72,-1.42,1.31,-0.02
1900-01-01 17:18:03.864,23.76,7.44,3.84,0.13,0.4,0.9,-0.53,-0.63,-1.3,20.15,36.89,-33.26,0.59,0.34,0.71,-0.89,1.59,-0.78
1900-01-01 17:18:03.958,24.14,6.68,3.8,0.12,0.41,0.9,-0.11,-0.07,-0.82,20.3,35.9,-33.39,0.57,0.34,0.71,-0.02,1.76,-0.39
1900-01-01 17:18:04.005,23.49,6.72,3.83,0.12,0.41,0.93,-0.11,-0.36,-1.12,20.61,36.02,-33.45,0.59,0.35,0.73,-1.46,1.74,0.06
1900-01-01 17:18:04.101,23.46,7.29,3.82,0.13,0.4,0.91,-0.95,0.23,-1.21,20.25,36.48,-33.45,0.58,0.34,0.71,-1.56,1.59,0.8
1900-01-01 17:18:04.145,24.11,7.51,3.79,0.13,0.41,0.91,-0.27,-0.25,-1.09,21.33,36.13,-33.34,0.59,0.36,0.72,-1.41,1.66,0.08
1900-01-01 17:18:04.240,23.32,6.4,3.78,0.11,0.39,0.91,-1.1,0.35,-0.89,19.39,36.08,-33.34,0.57,0.32,0.72,-2.03,1.66,0.36
1900-01-01 17:18:04.334,23.58,6.63,3.81,0.11,0.39,0.89,-1.2,-0.02,-1.53,19.86,36.44,-33.29,0.57,0.33,0.71,-1.2,1.32,-0.03
1900-01-01 17:18:04.382,23.87,6.92,3.73,0.12,0.41,0.92,-0.11,-0.1,-1.24,20.57,36.07,-33.3,0.59,0.35,0.72,-0.95,1.22,-0.11
1900-01-01 17:18:04.481,23.61,6.63,3.7,0.12,0.41,0.92,-1.08,0.05,-1.02,20.15,36.3,-33.33,0.59,0.34,0.72,-1.75,1.2,0.15
1900-01-01 17:18:04.542,23.76,6.62,3.7,0.12,0.4,0.91,-1.37,0.14,-1.11,19.94,36.02,-33.31,0.58,0.33,0.72,-2.31,1.05,0.52
1900-01-01 17:18:04.618,23.8,6.77,3.69,0.12,0.4,0.9,-0.56,-0.03,-1.04,20.36,36.1,-33.24,0.58,0.34,0.71,-0.41,1.31,-0.22
1900-01-01 17:18:04.713,23.73,6.82,3.69,0.12,0.41,0.93,-0.7,0.56,-1.24,20.15,36.6,-33.28,0.6,0.35,0.74,-1.09,1.34,0.12
1900-01-01 17:18:04.758,23.97,6.49,3.66,0.11,0.41,0.91,-0.11,-0.47,-1.08,20.29,36.25,-33.27,0.58,0.34,0.71,-1.53,1.47,-0.01
1900-01-01 17:18:04.853,23.58,6.59,3.65,0.11,0.4,0.9,-0.33,-0.24,-0.95,20.25,36.26,-33.28,0.58,0.34,0.71,-1.27,1.27,-0.14
1900-01-01 17:18:04.947,23.68,6.55,3.67,0.11,0.4,0.9,-0.51,-0.25,-1.07,20.65,35.91,-33.31,0.57,0.34,0.71,-1.06,1.49,0.08
1900-01-01 17:18:04.994,23.37,6.51,3.66,0.11,0.4,0.91,-0.24,-0.24,-0.99,19.92,36.38,-33.31,0.59,0.34,0.72,-0.73,1.29,-0.27
1900-01-01 17:18:05.086,23.93,6.58,3.67,0.11,0.4,0.9,0.06,-0.6,-1.15,20.47,35.84,-33.36,0.57,0.34,0.71,-0.89,1.24,-0.31
1900-01-01 17:18:05.183,23.48,6.28,3.65,0.11,0.4,0.91,-0.82,-0.15,-0.93,19.78,36.25,-33.41,0.58,0.33,0.71,-1.27,1.24,0.04
1900-01-01 17:18:05.230,24.06,6.52,3.67,0.11,0.41,0.92,-0.96,0.12,-1.19,20.31,36.16,-33.42,0.59,0.35,0.73,-1.14,1.19,-0.05
1900-01-01 17:18:05.324,23.81,6.34,3.64,0.11,0.4,0.9,-0.13,0.21,-0.89,21.11,35.97,-33.43,0.56,0.34,0.69,-1.81,1.99,0.33
1900-01-01 17:18:05.371,22.97,5.65,3.67,0.1,0.38,0.9,-1.05,1.39,-1.79,18.94,36.3,-33.39,0.59,0.32,0.73,-0.37,0.5,0.24
1900-01-01 17:18:05.465,24.48,6.98,3.55,0.12,0.41,0.89,-0.18,0.63,-1.37,21.64,36.48,-33.36,0.56,0.35,0.68,0.3,2.31,0.68
1900-01-01 17:18:05.547,23.58,5.41,3.5,0.09,0.4,0.92,0.6,0.93,-1.61,20.01,36.15,-33.27,0.59,0.34,0.73,-0.02,2.15,-2.55
1900-01-01 17:18:05.607,23.74,5.68,3.42,0.1,0.42,0.94,1.69,-0.45,-1.24,20.52,36.05,-33.66,0.6,0.36,0.74,0.12,2.04,-1.05
1900-01-01 17:18:05.702,24.36,5.69,3.38,0.1,0.42,0.92,1.31,0.14,-0.63,21.4,36.0,-33.83,0.57,0.36,0.71,-3.42,2.3,-1.05
1900-01-01 17:18:05.749,24.38,5.09,3.45,0.09,0.41,0.9,-2.56,1.67,-2.26,20.93,34.54,-34.0,0.56,0.35,0.73,-4.9,1.58,1.88
1900-01-01 17:18:05.843,24.49,5.25,3.26,0.09,0.41,0.89,-1.13,2.02,-0.98,20.24,35.42,-33.72,0.57,0.34,0.72,-1.51,2.56,0.53
1900-01-01 17:18:05.939,24.44,5.0,3.27,0.09,0.41,0.89,-1.87,1.58,-1.34,19.54,35.44,-33.65,0.56,0.32,0.71,-2.94,2.11,0.48
1900-01-01 17:18:05.986,24.93,4.89,3.23,0.09,0.42,0.91,0.66,0.96,-1.85,20.55,34.37,-33.59,0.56,0.35,0.74,-1.15,2.95,-0.51
1900-01-01 17:18:06.081,23.57,4.5,3.1,0.08,0.4,0.91,1.0,0.6,-1.39,18.91,35.44,-33.67,0.58,0.32,0.74,0.73,3.58,-0.64
1900-01-01 17:18:06.128,24.36,4.14,3.05,0.07,0.42,0.92,-0.56,1.07,-1.6,20.25,34.74,-33.78,0.57,0.35,0.75,-2.35,3.01,-0.15
1900-01-01 17:18:06.221,24.7,4.03,2.96,0.07,0.42,0.91,-0.9,0.97,-1.57,19.84,34.75,-33.81,0.57,0.34,0.75,-1.38,2.17,-0.21
1900-01-01 17:18:06.317,25.35,4.16,2.88,0.07,0.44,0.92,0.38,-0.69,-1.0,20.57,34.17,-33.85,0.56,0.35,0.75,0.21,1.13,-1.42
1900-01-01 17:18:06.364,24.76,4.39,2.89,0.08,0.43,0.93,3.06,-2.53,0.53,22.19,33.43,-34.07,0.55,0.37,0.74,0.5,1.76,-1.78
1900-01-01 17:18:06.458,25.53,4.02,3.13,0.07,0.41,0.85,-2.34,0.87,-1.03,19.44,33.5,-34.35,0.52,0.31,0.71,-3.31,0.99,0.92
1900-01-01 17:18:06.543,25.47,4.93,3.13,0.09,0.43,0.89,0.05,-0.63,-1.11,21.4,34.3,-34.22,0.55,0.36,0.72,-0.82,0.83,-0.78
1900-01-01 17:18:06.603,25.51,4.39,3.12,0.08,0.43,0.9,-0.09,0.03,-0.95,20.23,34.33,-34.35,0.56,0.34,0.74,-0.69,1.11,-0.85
1900-01-01 17:18:06.695,24.9,3.96,3.13,0.07,0.42,0.9,0.03,0.56,-1.35,20.12,34.48,-34.49,0.56,0.34,0.73,-0.74,1.24,-0.43
1900-01-01 17:18:06.743,25.33,4.2,3.08,0.07,0.44,0.92,-0.11,-0.1,-1.39,21.22,34.0,-34.56,0.56,0.36,0.75,-1.54,1.17,-0.09
1900-01-01 17:18:06.840,25.04,4.18,3.03,0.07,0.42,0.9,-0.79,0.44,-1.02,20.66,34.31,-34.58,0.55,0.34,0.73,-1.8,1.17,0.92
1900-01-01 17:18:06.886,25.44,4.03,3.03,0.07,0.43,0.9,-1.04,0.35,-1.2,20.91,33.99,-34.45,0.55,0.35,0.74,-1.85,1.29,0.31
1900-01-01 17:18:06.979,24.93,4.06,3.01,0.07,0.42,0.91,-0.79,0.24,-0.95,20.28,34.59,-34.41,0.56,0.34,0.74,-1.61,1.89,0.17
1900-01-01 17:18:07.074,25.29,3.85,3.02,0.07,0.43,0.9,-0.69,0.22,-0.96,20.5,34.19,-34.4,0.55,0.34,0.74,-1.63,1.45,0.13
1900-01-01 17:18:07.124,25.57,3.93,3.04,0.07,0.43,0.89,-0.69,0.26,-0.81,20.84,34.05,-34.38,0.54,0.35,0.73,-1.17,1.68,0.08
1900-01-01 17:18:07.217,25.38,3.99,3.07,0.07,0.43,0.9,-0.79,0.53,-0.81,20.34,34.33,-34.38,0.55,0.34,0.74,-1.21,1.73,0.14
1900-01-01 17:18:07.266,25.17,3.8,3.11,0.07,0.43,0.91,-0.17,-0.13,-0.68,20.28,34.16,-34.37,0.55,0.34,0.74,-1.01,1.29,-0.06
1900-01-01 17:18:07.358,25.12,3.56,3.16,0.06,0.43,0.9,-0.67,0.0,-0.88,20.52,33.94,-34.39,0.55,0.34,0.74,-1.31,1.86,0.12
1900-01-01 17:18:07.454,24.7,3.39,3.19,0.06,0.42,0.91,-1.15,-0.11,-1.05,19.9,34.26,-34.38,0.55,0.33,0.74,-1.62,1.55,0.11
1900-01-01 17:18:07.501,25.39,3.67,3.19,0.06,0.43,0.9,-0.99,-0.13,-0.99,20.37,33.93,-34.37,0.55,0.34,0.74,-1.27,1.69,-0.14
1900-01-01 17:18:07.596,24.94,3.79,3.19,0.07,0.43,0.91,-0.67,-0.15,-0.92,20.17,34.19,-34.4,0.55,0.34,0.74,-1.87,1.29,-0.05
1900-01-01 17:18:07.690,25.06,3.8,3.21,0.07,0.42,0.9,-0.39,-0.4,-0.91,20.3,33.93,-34.41,0.55,0.34,0.74,-1.03,1.63,0.0
1900-01-01 17:18:07.738,25.18,3.72,3.23,0.06,0.43,0.9,-0.45,-0.24,-0.97,20.23,33.99,-34.42,0.55,0.34,0.74,-1.26,1.48,-0.05
1900-01-01 17:18:07.834,25.27,3.87,3.24,0.07,0.43,0.9,-0.18,-0.16,-1.05,20.45,33.97,-34.44,0.55,0.34,0.74,-1.24,1.29,-0.19
1900-01-01 17:18:07.881,25.15,3.51,3.24,0.06,0.42,0.9,-0.7,-0.24,-0.97,20.36,33.59,-34.48,0.54,0.34,0.74,-1.13,1.68,0.2
1900-01-01 17:18:07.975,25.22,3.67,3.25,0.06,0.43,0.91,-0.52,-0.13,-1.07,20.26,33.76,-34.45,0.55,0.34,0.75,-1.52,1.32,0.18
1900-01-01 17:18:08.070,25.16,3.61,3.24,0.06,0.42,0.9,-0.22,-0.54,-0.91,20.22,33.83,-34.44,0.55,0.34,0.74,-1.27,1.43,-0.06
1900-01-01 17:18:08.120,25.11,3.83,3.26,0.07,0.42,0.9,-0.34,-0.21,-1.0,20.43,33.91,-34.45,0.55,0.35,0.74,-1.28,1.47,-0.05
1900-01-01 17:18:08.211,24.75,3.61,3.27,0.06,0.42,0.9,-1.05,0.02,-1.07,19.81,33.87,-34.47,0.55,0.33,0.74,-1.86,1.11,0.56
1900-01-01 17:18:08.259,25.42,3.79,3.27,0.07,0.43,0.9,-1.53,0.27,-1.24,20.4,33.78,-34.39,0.55,0.34,0.74,-2.14,0.79,0.52
1900-01-01 17:18:08.354,24.81,3.54,3.23,0.06,0.42,0.9,-0.77,-0.66,-0.9,19.58,34.14,-34.32,0.55,0.33,0.74,-1.47,0.37,-0.07
1900-01-01 17:18:08.450,25.3,3.93,3.26,0.07,0.43,0.9,0.41,-0.95,-0.53,20.61,34.05,-34.34,0.55,0.34,0.73,-1.56,-0.39,-0.66
1900-01-01 17:18:08.498,25.73,4.52,3.33,0.08,0.44,0.92,-0.05,-0.44,-0.58,21.32,33.8,-34.45,0.55,0.36,0.74,-4.36,-1.75,1.34
1900-01-01 17:18:08.568,25.18,4.02,3.4,0.07,0.42,0.89,-2.44,-0.67,-1.02,18.31,35.59,-34.25,0.57,0.31,0.73,-3.92,-2.82,3.28
1900-01-01 17:18:08.669,26.15,4.26,3.4,0.07,0.44,0.88,-0.7,0.24,0.31,20.37,34.25,-33.76,0.54,0.34,0.72,-3.02,-0.52,1.73
1900-01-01 17:18:08.718,25.28,3.77,3.61,0.07,0.43,0.91,-0.24,-0.39,1.84,18.37,36.92,-33.51,0.59,0.31,0.72,-0.8,0.9,1.37
1900-01-01 17:18:08.810,24.24,3.35,4.05,0.06,0.42,0.92,-0.69,0.5,0.85,18.14,36.31,-33.31,0.59,0.31,0.74,-1.64,1.0,2.83
1900-01-01 17:18:08.904,25.37,4.15,4.34,0.07,0.43,0.9,-0.92,0.78,1.04,18.8,35.82,-32.89,0.58,0.32,0.74,-2.76,2.24,1.23
1900-01-01 17:18:08.951,25.74,4.28,4.65,0.07,0.43,0.89,-0.71,-0.08,1.21,18.74,36.06,-32.71,0.57,0.31,0.72,-0.19,1.54,1.07
1900-01-01 17:18:09.046,25.41,4.5,5.0,0.08,0.43,0.9,-0.37,-0.14,1.28,18.43,35.88,-32.55,0.57,0.31,0.73,0.36,0.86,0.96
1900-01-01 17:18:09.093,23.97,3.72,5.35,0.06,0.41,0.91,-1.69,1.12,0.89,16.74,36.6,-32.42,0.58,0.28,0.73,-1.49,1.79,2.12
1900-01-01 17:18:09.187,24.94,3.41,5.64,0.06,0.42,0.9,-0.79,0.86,0.34,17.11,36.43,-32.1,0.58,0.29,0.73,-1.68,1.79,1.77
1900-01-01 17:18:09.284,23.93,3.07,5.85,0.05,0.4,0.9,-1.02,1.35,-0.68,16.34,37.02,-31.84,0.59,0.28,0.74,-1.52,2.71,1.11
1900-01-01 17:18:09.328,24.44,3.71,5.91,0.07,0.42,0.92,-0.66,0.23,-1.54,17.9,36.11,-31.68,0.59,0.31,0.74,-2.21,2.17,0.76
1900-01-01 17:18:09.423,23.84,3.08,5.83,0.05,0.39,0.89,-1.48,0.0,-1.59,16.07,36.24,-31.57,0.56,0.26,0.71,-3.3,1.31,1.13
1900-01-01 17:18:09.515,23.65,2.94,5.75,0.05,0.4,0.91,-1.37,0.66,-2.47,16.07,36.12,-31.41,0.58,0.27,0.75,-3.0,1.75,0.67
1900-01-01 17:18:09.572,24.85,4.11,5.53,0.07,0.43,0.92,-0.75,0.98,-2.66,18.41,36.2,-31.32,0.6,0.32,0.75,-3.04,2.78,0.08
1900-01-01 17:18:09.643,23.49,3.17,5.28,0.06,0.4,0.92,-0.73,0.4,-1.99,15.51,36.14,-31.31,0.59,0.27,0.76,-2.95,2.51,0.08
