,Time,Roll1,Pitch1,Yaw1,AccX1,AccY1,AccZ1,RotX1,RotY1,RotZ1,Roll2,Pitch2,Yaw2,AccX2,AccY2,AccZ2,RotX2,RotY2,RotZ2
0,1900-01-01 11:36:41.045,29.81,31.03,-0.01,0.5,0.49,0.68,-1.74,1.41,-0.1,-14.83,-0.83,0.16,-0.01,-0.26,0.98,-0.55,-0.57,-0.96
1,1900-01-01 11:36:42.959,29.61,31.18,-0.03,0.51,0.48,0.68,-1.71,1.27,-0.2,-14.79,-0.77,0.17,-0.01,-0.26,0.98,-0.44,-0.62,-0.92
2,1900-01-01 11:36:43.005,29.86,31.27,-0.07,0.51,0.49,0.68,-1.44,1.02,0.01,-14.29,-0.65,0.19,-0.01,-0.25,0.98,-0.37,-0.26,-1.11
3,1900-01-01 11:36:43.099,29.49,31.08,-0.08,0.5,0.48,0.69,-1.02,1.18,0.23,-14.72,-0.76,0.18,-0.01,-0.26,0.98,-1.14,-0.08,-1.27
4,1900-01-01 11:36:43.193,29.61,30.92,-0.05,0.5,0.48,0.69,-1.24,1.25,0.05,-15.07,-0.72,0.14,-0.01,-0.26,0.98,-0.71,-0.05,-0.9
5,1900-01-01 11:36:43.240,29.73,31.08,-0.05,0.5,0.48,0.68,-1.48,1.34,-0.14,-14.79,-0.79,0.16,-0.01,-0.26,0.98,-0.5,-0.34,-0.76
6,1900-01-01 11:36:43.334,29.79,31.28,-0.08,0.51,0.49,0.68,-1.52,1.21,-0.08,-14.54,-0.73,0.2,-0.01,-0.25,0.98,-0.57,-0.2,-0.95
7,1900-01-01 11:36:43.380,29.9,31.05,-0.1,0.5,0.49,0.68,-1.3,1.18,-0.04,-14.7,-0.76,0.22,-0.01,-0.26,0.98,-0.47,-0.12,-1.02
8,1900-01-01 11:36:43.474,29.51,31.33,-0.12,0.51,0.48,0.68,-1.27,1.16,-0.15,-14.96,-0.72,0.22,-0.01,-0.26,0.98,-0.34,-0.19,-0.91
9,1900-01-01 11:36:43.568,29.72,31.12,-0.15,0.5,0.48,0.68,-1.25,1.05,-0.11,-14.76,-0.8,0.24,-0.01,-0.26,0.98,-0.23,0.05,-0.9
10,1900-01-01 11:36:43.616,29.66,30.92,-0.18,0.5,0.48,0.68,-1.47,1.25,-0.24,-15.01,-0.86,0.26,-0.02,-0.26,0.98,-0.72,-0.34,-1.07
11,1900-01-01 11:36:43.709,29.71,31.29,-0.22,0.51,0.49,0.68,-1.33,1.32,-0.01,-14.41,-0.84,0.25,-0.01,-0.25,0.98,-0.59,-0.11,-0.98
12,1900-01-01 11:36:43.802,29.53,31.06,-0.23,0.5,0.48,0.68,-1.36,1.26,-0.05,-15.02,-0.87,0.26,-0.02,-0.26,0.98,-0.74,-0.19,-0.96
13,1900-01-01 11:36:43.848,29.5,31.19,-0.25,0.51,0.48,0.69,-1.27,1.29,-0.12,-14.64,-0.88,0.27,-0.02,-0.26,0.98,-0.4,-0.13,-0.91
14,1900-01-01 11:36:43.942,29.53,31.09,-0.27,0.5,0.48,0.68,-1.34,1.27,-0.01,-15.01,-0.9,0.29,-0.02,-0.26,0.98,-0.7,-0.29,-0.96
15,1900-01-01 11:36:44.036,29.45,31.1,-0.28,0.51,0.48,0.69,-1.53,1.39,-0.08,-14.7,-0.88,0.3,-0.02,-0.26,0.98,-0.73,-0.27,-0.98
16,1900-01-01 11:36:44.083,29.88,31.09,-0.3,0.5,0.49,0.68,-1.15,1.18,-0.05,-14.63,-0.94,0.31,-0.02,-0.26,0.98,-0.34,-0.19,-0.81
17,1900-01-01 11:36:44.177,29.45,31.07,-0.32,0.5,0.48,0.68,-1.18,1.1,-0.12,-15.0,-0.77,0.35,-0.01,-0.26,0.98,-0.4,-0.4,-0.94
18,1900-01-01 11:36:44.224,29.69,31.04,-0.35,0.5,0.48,0.68,-1.3,1.17,-0.07,-14.63,-0.84,0.36,-0.01,-0.26,0.98,-0.28,-0.21,-0.78
19,1900-01-01 11:36:44.317,29.64,31.07,-0.37,0.5,0.48,0.68,-1.41,1.02,-0.02,-14.77,-0.93,0.4,-0.02,-0.26,0.98,-0.38,-0.46,-0.92
20,1900-01-01 11:36:44.411,29.65,31.18,-0.38,0.51,0.49,0.68,-0.98,1.18,0.04,-14.53,-0.78,0.42,-0.01,-0.25,0.98,-0.27,-0.31,-0.79
21,1900-01-01 11:36:44.458,29.68,30.96,-0.38,0.5,0.48,0.68,-0.95,1.24,0.05,-14.81,-0.87,0.46,-0.02,-0.26,0.98,-0.44,-0.34,-0.87
22,1900-01-01 11:36:44.551,29.67,31.17,-0.38,0.51,0.49,0.68,-1.24,1.15,-0.08,-14.71,-0.86,0.48,-0.02,-0.26,0.98,-0.44,-0.49,-0.82
23,1900-01-01 11:36:44.644,29.79,31.05,-0.4,0.5,0.49,0.68,-1.08,1.3,0.21,-14.67,-0.8,0.51,-0.01,-0.26,0.98,-0.59,-0.36,-0.76
24,1900-01-01 11:36:44.691,29.91,31.0,-0.38,0.5,0.49,0.68,-0.97,1.17,0.02,-14.74,-0.82,0.56,-0.01,-0.26,0.98,-0.43,-0.44,-0.78
25,1900-01-01 11:36:44.785,29.65,31.2,-0.38,0.51,0.48,0.68,-1.16,1.21,-0.03,-14.6,-0.76,0.6,-0.01,-0.26,0.98,-0.46,-0.28,-0.89
26,1900-01-01 11:36:44.878,29.68,31.09,-0.4,0.5,0.48,0.68,-1.08,1.27,0.08,-14.72,-0.75,0.62,-0.01,-0.26,0.98,-0.79,-0.44,-0.85
27,1900-01-01 11:36:44.925,29.59,31.2,-0.39,0.51,0.48,0.68,-1.34,1.37,0.05,-14.67,-0.73,0.65,-0.01,-0.26,0.98,-0.9,-0.33,-0.88
28,1900-01-01 11:36:45.019,29.65,31.17,-0.39,0.51,0.48,0.68,-1.17,1.36,0.03,-14.6,-0.85,0.67,-0.01,-0.25,0.98,-0.53,-0.31,-0.73
29,1900-01-01 11:36:45.066,29.86,31.2,-0.4,0.51,0.49,0.68,-1.36,1.36,-0.05,-14.44,-0.75,0.72,-0.01,-0.25,0.98,-0.56,-0.53,-0.83
30,1900-01-01 11:36:45.158,29.78,31.19,-0.41,0.51,0.49,0.68,-1.24,1.36,-0.03,-14.39,-0.8,0.75,-0.01,-0.25,0.98,-0.34,-0.19,-0.76
31,1900-01-01 11:36:45.252,29.84,30.94,-0.43,0.5,0.49,0.68,-1.17,1.33,-0.02,-14.85,-0.73,0.79,-0.01,-0.26,0.98,-0.47,-0.37,-0.79
32,1900-01-01 11:36:45.298,29.82,31.32,-0.44,0.51,0.49,0.68,-1.23,1.25,-0.06,-14.48,-0.57,0.83,-0.01,-0.25,0.98,-0.52,-0.18,-0.78
33,1900-01-01 11:36:45.392,29.97,30.98,-0.46,0.5,0.49,0.68,-1.49,1.24,-0.05,-14.4,-1.03,0.87,-0.02,-0.25,0.98,-0.69,-0.09,-1.01
34,1900-01-01 11:36:45.486,29.83,31.11,-0.47,0.51,0.49,0.68,-1.44,1.31,-0.11,-14.55,-0.88,0.87,-0.02,-0.25,0.98,-0.4,-0.36,-0.85
35,1900-01-01 11:36:45.532,29.64,31.25,-0.5,0.51,0.48,0.68,-1.44,1.11,-0.02,-14.57,-0.75,0.9,-0.01,-0.25,0.98,-0.56,-0.21,-0.89
36,1900-01-01 11:36:45.626,29.97,30.97,-0.51,0.5,0.49,0.68,-1.34,1.18,-0.05,-14.61,-0.93,0.92,-0.02,-0.25,0.98,-0.19,-0.44,-0.86
37,1900-01-01 11:36:45.719,29.67,30.96,-0.52,0.5,0.49,0.69,-1.52,1.37,-0.24,-14.7,-0.91,0.95,-0.02,-0.26,0.98,-0.39,-0.5,-0.99
38,1900-01-01 11:36:45.767,29.76,31.17,-0.57,0.51,0.49,0.68,-1.37,1.14,-0.07,-14.34,-0.68,0.96,-0.01,-0.25,0.98,-0.24,-0.41,-0.87
39,1900-01-01 11:36:45.861,29.93,30.73,-0.59,0.5,0.49,0.68,-1.16,1.19,-0.11,-14.74,-0.92,0.98,-0.02,-0.26,0.98,-0.36,-0.32,-0.89
40,1900-01-01 11:36:45.908,29.66,31.02,-0.61,0.5,0.48,0.68,-1.21,1.22,-0.1,-14.55,-0.77,1.0,-0.01,-0.25,0.98,-0.37,-0.15,-0.89
41,1900-01-01 11:36:46.002,29.71,30.95,-0.64,0.5,0.49,0.69,-1.4,1.16,-0.24,-14.73,-0.76,1.03,-0.01,-0.26,0.98,-0.53,-0.08,-1.01
42,1900-01-01 11:36:46.095,29.86,31.21,-0.68,0.5,0.49,0.68,-1.42,1.09,0.04,-14.36,-0.84,1.03,-0.01,-0.25,0.98,-0.51,-0.21,-0.92
43,1900-01-01 11:36:46.142,29.81,31.1,-0.69,0.51,0.49,0.68,-1.34,1.35,-0.07,-14.43,-1.02,1.05,-0.02,-0.25,0.98,-0.33,-0.44,-0.85
44,1900-01-01 11:36:46.236,29.8,31.11,-0.71,0.5,0.48,0.68,-1.15,1.09,0.05,-14.23,-0.8,1.08,-0.01,-0.25,0.98,-0.28,0.02,-0.89
45,1900-01-01 11:36:46.330,29.87,30.91,-0.71,0.5,0.49,0.68,-1.31,1.36,-0.03,-14.54,-1.04,1.1,-0.02,-0.25,0.97,-0.62,-0.17,-0.85
46,1900-01-01 11:36:46.376,29.61,31.05,-0.72,0.5,0.48,0.68,-1.34,1.35,-0.15,-14.58,-0.9,1.13,-0.02,-0.25,0.98,-0.47,-0.51,-0.95
47,1900-01-01 11:36:46.470,29.67,31.12,-0.75,0.51,0.48,0.68,-1.29,1.22,-0.02,-14.69,-0.73,1.14,-0.01,-0.26,0.98,-0.68,-0.12,-1.01
48,1900-01-01 11:36:46.517,29.69,31.04,-0.76,0.5,0.48,0.68,-1.48,1.23,-0.04,-14.43,-0.97,1.15,-0.02,-0.25,0.98,-0.62,0.05,-0.96
49,1900-01-01 11:36:46.609,29.67,31.02,-0.77,0.5,0.48,0.68,-1.39,1.41,-0.12,-14.49,-1.12,1.16,-0.02,-0.25,0.98,-0.5,-0.31,-0.98
50,1900-01-01 11:36:46.703,29.81,30.9,-0.8,0.5,0.49,0.69,-1.45,1.33,-0.18,-14.43,-1.06,1.16,-0.02,-0.25,0.98,-0.21,-0.15,-0.91
51,1900-01-01 11:36:46.750,29.66,31.24,-0.84,0.51,0.48,0.68,-1.23,1.21,0.09,-14.13,-0.92,1.18,-0.02,-0.25,0.99,-0.33,0.01,-0.93
52,1900-01-01 11:36:46.844,29.67,30.98,-0.83,0.5,0.48,0.68,-1.21,1.19,-0.04,-14.58,-1.15,1.2,-0.02,-0.26,0.98,-0.5,-0.27,-0.89
53,1900-01-01 11:36:46.938,29.52,31.09,-0.85,0.51,0.48,0.69,-1.16,1.12,-0.15,-14.61,-0.83,1.22,-0.01,-0.26,0.98,-0.37,-0.37,-0.89
54,1900-01-01 11:36:46.984,29.84,30.99,-0.88,0.5,0.49,0.68,-1.39,1.18,0.05,-14.43,-1.25,1.24,-0.02,-0.25,0.98,-0.45,-0.15,-0.81
55,1900-01-01 11:36:47.078,29.69,31.26,-0.88,0.51,0.49,0.68,-1.0,1.09,-0.08,-14.12,-0.93,1.28,-0.02,-0.25,0.98,-0.29,-0.34,-0.87
56,1900-01-01 11:36:47.171,30.24,30.74,-0.9,0.5,0.49,0.68,-1.23,1.29,0.09,-13.81,-1.46,1.3,-0.03,-0.24,0.98,-0.47,-0.34,-0.79
57,1900-01-01 11:36:47.217,29.53,31.02,-0.89,0.51,0.48,0.69,-1.59,1.37,-0.27,-14.51,-1.04,1.34,-0.02,-0.25,0.98,-0.69,-0.52,-0.82
58,1900-01-01 11:36:47.311,29.89,31.27,-0.94,0.51,0.49,0.68,-1.24,1.31,0.39,-13.57,-0.98,1.37,-0.02,-0.24,0.99,-0.86,0.23,-0.78
59,1900-01-01 11:36:47.357,29.66,30.87,-0.89,0.5,0.48,0.68,-1.22,1.23,0.11,-14.77,-1.26,1.41,-0.02,-0.26,0.98,-1.05,-0.52,-0.99
60,1900-01-01 11:36:47.451,29.89,31.01,-0.88,0.5,0.49,0.68,-1.24,1.37,0.15,-14.08,-1.08,1.42,-0.02,-0.25,0.98,-0.64,-0.6,-0.84
61,1900-01-01 11:36:47.545,29.6,31.22,-0.87,0.51,0.48,0.68,-1.18,1.37,0.2,-14.45,-1.14,1.45,-0.02,-0.25,0.98,-0.87,-0.44,-0.75
62,1900-01-01 11:36:47.592,29.6,31.28,-0.85,0.51,0.48,0.68,-1.25,1.29,0.4,-14.34,-1.04,1.49,-0.02,-0.25,0.98,-1.02,-0.28,-0.85
63,1900-01-01 11:36:47.685,29.7,30.98,-0.8,0.5,0.48,0.68,-1.11,1.27,0.05,-14.6,-1.13,1.52,-0.02,-0.26,0.98,-0.66,-0.5,-0.79
64,1900-01-01 11:36:47.779,29.94,31.07,-0.8,0.51,0.49,0.68,-1.08,1.24,0.0,-14.26,-1.1,1.56,-0.02,-0.25,0.98,-0.35,-0.27,-0.73
65,1900-01-01 11:36:47.826,29.86,31.08,-0.81,0.51,0.49,0.68,-1.02,1.28,-0.01,-14.46,-0.97,1.61,-0.02,-0.25,0.98,-0.33,-0.44,-0.72
66,1900-01-01 11:36:47.922,29.88,31.04,-0.82,0.5,0.49,0.68,-1.08,1.28,0.16,-14.17,-1.08,1.66,-0.02,-0.25,0.98,-0.42,-0.34,-0.69
67,1900-01-01 11:36:48.015,29.66,31.12,-0.8,0.51,0.48,0.68,-0.89,1.18,-0.23,-14.48,-0.98,1.71,-0.02,-0.25,0.98,0.0,-0.47,-0.75
68,1900-01-01 11:36:48.061,29.95,31.28,-0.84,0.51,0.49,0.68,-1.02,1.21,0.11,-14.04,-0.92,1.75,-0.02,-0.25,0.98,-0.47,-0.24,-0.84
69,1900-01-01 11:36:48.154,29.96,30.85,-0.83,0.5,0.49,0.68,-1.4,1.37,-0.05,-14.31,-1.22,1.78,-0.02,-0.25,0.98,-0.61,-0.41,-0.91
70,1900-01-01 11:36:48.201,29.6,31.39,-0.85,0.51,0.48,0.68,-1.47,1.23,0.01,-14.25,-0.86,1.8,-0.02,-0.25,0.98,-0.66,-0.18,-0.92
71,1900-01-01 11:36:48.296,29.97,31.02,-0.86,0.5,0.49,0.68,-1.41,1.27,0.02,-14.03,-1.17,1.82,-0.02,-0.24,0.98,-0.73,-0.41,-0.98
72,1900-01-01 11:36:48.390,29.86,31.25,-0.86,0.51,0.49,0.68,-1.47,1.06,-0.27,-14.2,-1.05,1.83,-0.02,-0.25,0.98,-0.16,-0.29,-1.01
73,1900-01-01 11:36:48.437,29.91,31.15,-0.91,0.51,0.49,0.68,-1.5,1.33,0.09,-14.08,-1.04,1.83,-0.02,-0.25,0.98,-0.92,-0.18,-1.02
74,1900-01-01 11:36:48.531,29.57,31.14,-0.91,0.51,0.48,0.69,-1.5,1.37,-0.05,-14.54,-1.0,1.84,-0.02,-0.25,0.98,-0.69,-0.31,-1.01
75,1900-01-01 11:36:48.624,29.73,31.06,-0.92,0.5,0.48,0.68,-1.33,1.35,-0.15,-14.55,-0.97,1.84,-0.02,-0.25,0.98,-0.62,-0.21,-0.92
76,1900-01-01 11:36:48.671,29.63,31.24,-0.95,0.51,0.48,0.68,-1.5,1.29,-0.11,-14.35,-1.0,1.86,-0.02,-0.25,0.98,-0.69,-0.25,-0.98
77,1900-01-01 11:36:48.763,29.49,31.11,-0.98,0.5,0.48,0.68,-1.42,1.25,-0.11,-14.31,-1.04,1.87,-0.02,-0.25,0.98,-0.69,-0.21,-1.08
78,1900-01-01 11:36:48.857,29.84,30.74,-1.0,0.5,0.49,0.68,-1.47,1.27,-0.11,-14.49,-1.3,1.86,-0.02,-0.25,0.98,-0.53,-0.39,-0.92
79,1900-01-01 11:36:48.904,29.76,31.17,-1.03,0.51,0.49,0.68,-1.31,1.16,-0.08,-14.45,-0.92,1.88,-0.02,-0.25,0.98,-0.35,-0.2,-0.83
80,1900-01-01 11:36:48.997,29.7,30.93,-1.05,0.5,0.48,0.68,-1.5,1.24,-0.08,-14.44,-1.17,1.91,-0.02,-0.25,0.98,-0.73,-0.45,-1.09
81,1900-01-01 11:36:49.045,29.55,31.25,-1.07,0.51,0.48,0.68,-1.37,1.19,-0.07,-14.37,-0.91,1.9,-0.02,-0.25,0.98,-0.52,-0.15,-1.02
82,1900-01-01 11:36:49.139,29.72,31.07,-1.09,0.5,0.48,0.68,-1.28,1.31,0.06,-14.4,-1.12,1.9,-0.02,-0.25,0.98,-0.65,-0.31,-0.82
83,1900-01-01 11:36:49.232,29.72,31.11,-1.09,0.5,0.48,0.68,-1.4,1.17,-0.15,-14.41,-1.05,1.94,-0.02,-0.25,0.98,-0.23,-0.31,-0.9
84,1900-01-01 11:36:49.278,29.81,31.2,-1.12,0.51,0.49,0.68,-1.38,1.23,-0.11,-14.2,-1.08,1.96,-0.02,-0.25,0.98,-0.49,-0.29,-0.95
85,1900-01-01 11:36:49.372,29.49,31.18,-1.15,0.51,0.48,0.68,-1.28,1.17,-0.08,-14.5,-1.01,1.97,-0.02,-0.25,0.98,-0.54,-0.25,-1.05
86,1900-01-01 11:36:49.465,29.67,31.05,-1.17,0.5,0.48,0.68,-1.31,1.31,-0.02,-14.42,-1.16,1.97,-0.02,-0.25,0.98,-0.62,-0.28,-0.89
87,1900-01-01 11:36:49.512,29.72,31.04,-1.18,0.51,0.49,0.68,-1.34,1.21,-0.15,-14.38,-1.19,1.99,-0.02,-0.25,0.98,-0.4,-0.24,-0.89
88,1900-01-01 11:36:49.605,29.68,31.14,-1.21,0.51,0.48,0.68,-1.4,1.26,-0.03,-14.28,-1.01,2.01,-0.02,-0.25,0.98,-0.6,-0.24,-0.89
89,1900-01-01 11:36:49.651,29.83,31.11,-1.22,0.5,0.48,0.68,-1.04,1.15,-0.01,-14.11,-1.18,2.03,-0.02,-0.25,0.98,-0.27,-0.15,-0.81
90,1900-01-01 11:36:49.743,29.54,31.2,-1.23,0.51,0.48,0.69,-1.1,1.25,-0.18,-14.32,-1.08,2.07,-0.02,-0.25,0.98,-0.14,-0.46,-0.76
91,1900-01-01 11:36:49.837,29.97,31.02,-1.27,0.5,0.49,0.68,-1.14,1.13,0.15,-13.99,-1.08,2.11,-0.02,-0.24,0.98,-0.44,0.01,-0.85
92,1900-01-01 11:36:49.884,29.7,30.83,-1.26,0.5,0.48,0.68,-1.37,1.37,-0.05,-14.52,-1.28,2.14,-0.02,-0.25,0.98,-0.64,-0.47,-0.85
93,1900-01-01 11:36:49.978,29.54,31.32,-1.27,0.51,0.48,0.68,-1.29,1.49,0.08,-13.78,-1.01,2.17,-0.02,-0.24,0.99,-0.34,-0.31,-0.53
94,1900-01-01 11:36:50.072,29.72,31.07,-1.27,0.5,0.48,0.68,-1.02,1.57,0.24,-14.17,-1.17,2.24,-0.02,-0.25,0.98,-0.24,-0.6,-0.25
95,1900-01-01 11:36:50.119,29.45,31.09,-1.24,0.5,0.48,0.69,-1.18,1.3,0.05,-14.55,-0.82,2.36,-0.01,-0.25,0.98,-0.13,-0.41,-0.52
96,1900-01-01 11:36:50.212,29.83,30.98,-1.24,0.5,0.49,0.68,-1.26,1.3,0.02,-13.86,-1.19,2.44,-0.02,-0.24,0.98,-1.0,-0.1,-1.19
97,1900-01-01 11:36:50.305,29.87,31.12,-1.25,0.5,0.49,0.68,-1.22,1.51,0.15,-14.05,-1.18,2.42,-0.02,-0.25,0.98,-0.9,-0.47,-0.78
98,1900-01-01 11:36:50.351,29.85,31.17,-1.23,0.51,0.49,0.68,-0.96,1.37,0.11,-13.8,-1.12,2.46,-0.02,-0.24,0.98,-0.09,-0.64,-0.38
99,1900-01-01 11:36:50.444,29.68,30.69,-1.23,0.5,0.48,0.69,-1.12,0.95,-0.04,-14.67,-1.08,2.56,-0.02,-0.26,0.98,-0.43,-0.34,-0.92
100,1900-01-01 11:36:50.538,29.83,31.07,-1.24,0.51,0.49,0.68,-0.97,1.27,-0.18,-14.02,-1.19,2.58,-0.02,-0.24,0.98,-0.23,-0.26,-0.81
101,1900-01-01 11:36:50.585,29.92,31.09,-1.27,0.51,0.49,0.68,-1.17,1.22,0.29,-13.92,-0.99,2.61,-0.02,-0.24,0.99,-0.5,-0.45,-0.63
102,1900-01-01 11:36:50.679,29.67,31.0,-1.24,0.5,0.48,0.68,-1.01,1.19,-0.05,-14.15,-1.12,2.67,-0.02,-0.25,0.98,-0.36,-0.4,-0.85
103,1900-01-01 11:36:50.725,30.11,30.89,-1.25,0.5,0.49,0.68,-1.22,1.22,-0.13,-13.86,-1.23,2.7,-0.02,-0.24,0.98,-0.26,-0.32,-0.96
104,1900-01-01 11:36:50.819,29.64,31.31,-1.28,0.51,0.48,0.68,-1.18,1.26,-0.08,-14.14,-0.84,2.71,-0.01,-0.25,0.99,-0.54,-0.11,-0.94
105,1900-01-01 11:36:50.913,29.97,31.05,-1.3,0.5,0.49,0.68,-1.42,1.42,0.18,-13.96,-1.07,2.73,-0.02,-0.24,0.98,-0.97,-0.3,-0.82
106,1900-01-01 11:36:50.959,29.76,31.26,-1.28,0.51,0.48,0.68,-1.46,1.17,-0.08,-14.15,-0.95,2.76,-0.02,-0.25,0.98,-0.48,-0.47,-0.98
107,1900-01-01 11:36:51.053,29.9,31.36,-1.31,0.51,0.49,0.68,-1.4,1.21,-0.05,-13.55,-0.9,2.77,-0.02,-0.24,0.99,-0.64,-0.32,-1.13
108,1900-01-01 11:36:51.146,29.91,30.88,-1.32,0.5,0.49,0.68,-1.48,1.37,-0.02,-14.0,-1.21,2.75,-0.02,-0.24,0.98,-0.8,-0.34,-0.98
109,1900-01-01 11:36:51.193,29.69,31.21,-1.33,0.51,0.49,0.68,-1.6,1.41,-0.09,-13.96,-0.86,2.76,-0.02,-0.25,0.99,-0.63,-0.31,-0.84
110,1900-01-01 11:36:51.287,29.97,31.05,-1.36,0.5,0.49,0.68,-1.45,1.2,-0.02,-13.89,-1.09,2.79,-0.02,-0.24,0.98,-0.7,-0.04,-1.02
111,1900-01-01 11:36:51.334,29.69,31.02,-1.37,0.5,0.48,0.68,-1.52,1.34,-0.33,-14.13,-1.05,2.79,-0.02,-0.25,0.98,-0.44,-0.26,-0.95
112,1900-01-01 11:36:51.428,29.75,31.03,-1.43,0.5,0.49,0.68,-1.4,1.08,-0.05,-13.96,-0.91,2.81,-0.02,-0.24,0.98,-0.4,-0.31,-1.04
113,1900-01-01 11:36:51.522,29.8,31.07,-1.44,0.5,0.49,0.68,-1.2,1.31,-0.05,-13.88,-0.98,2.81,-0.02,-0.24,0.98,-0.64,-0.31,-0.97
114,1900-01-01 11:36:51.568,29.65,30.93,-1.46,0.5,0.48,0.68,-1.4,1.21,-0.14,-14.04,-1.11,2.82,-0.02,-0.25,0.98,-0.53,-0.22,-0.98
115,1900-01-01 11:36:51.662,29.74,31.08,-1.49,0.51,0.49,0.68,-1.35,1.28,-0.11,-13.9,-1.05,2.82,-0.02,-0.24,0.98,-0.5,-0.33,-0.92
116,1900-01-01 11:36:51.754,29.48,31.11,-1.51,0.5,0.48,0.68,-1.36,1.31,-0.01,-13.97,-1.09,2.84,-0.02,-0.24,0.98,-0.66,-0.31,-0.93
117,1900-01-01 11:36:51.801,29.77,31.15,-1.52,0.51,0.49,0.68,-1.27,1.15,-0.04,-14.04,-1.01,2.86,-0.02,-0.25,0.98,-0.44,-0.31,-0.89
118,1900-01-01 11:36:51.896,29.8,30.93,-1.54,0.5,0.49,0.68,-1.4,1.24,-0.05,-13.92,-1.17,2.88,-0.02,-0.24,0.98,-0.61,-0.21,-0.92
119,1900-01-01 11:36:51.991,29.5,31.19,-1.55,0.51,0.48,0.68,-1.27,1.15,-0.02,-13.99,-0.98,2.9,-0.02,-0.25,0.99,-0.5,-0.34,-0.98
120,1900-01-01 11:36:52.037,29.56,30.98,-1.56,0.5,0.48,0.69,-1.3,1.3,0.12,-14.1,-1.12,2.9,-0.02,-0.25,0.98,-0.66,-0.21,-0.89
121,1900-01-01 11:36:52.131,29.65,31.03,-1.55,0.5,0.48,0.68,-1.38,1.17,-0.11,-14.07,-1.13,2.93,-0.02,-0.25,0.98,-0.38,-0.31,-0.89
122,1900-01-01 11:36:52.178,29.8,30.99,-1.58,0.5,0.49,0.68,-1.31,1.21,0.0,-13.82,-1.12,2.95,-0.02,-0.24,0.98,-0.55,-0.23,-0.9
123,1900-01-01 11:36:52.270,29.71,30.88,-1.59,0.5,0.48,0.68,-1.17,1.17,-0.01,-14.12,-1.21,2.97,-0.02,-0.25,0.98,-0.53,-0.32,-0.9
124,1900-01-01 11:36:52.363,29.41,31.31,-1.6,0.51,0.48,0.68,-1.18,1.32,-0.11,-14.04,-0.87,2.99,-0.02,-0.25,0.98,-0.48,-0.39,-0.89
125,1900-01-01 11:36:52.411,29.85,30.96,-1.62,0.5,0.49,0.68,-1.29,1.19,0.08,-13.63,-1.13,3.01,-0.02,-0.24,0.98,-0.57,-0.15,-0.88
126,1900-01-01 11:36:52.504,29.63,31.04,-1.62,0.5,0.48,0.68,-1.41,1.25,-0.08,-14.16,-1.15,3.04,-0.02,-0.25,0.98,-0.64,-0.4,-0.98
127,1900-01-01 11:36:52.598,29.71,31.2,-1.64,0.51,0.48,0.68,-1.25,1.47,0.19,-13.7,-1.02,3.04,-0.02,-0.24,0.98,-0.8,-0.24,-0.78
128,1900-01-01 11:36:52.645,29.62,30.99,-1.62,0.5,0.48,0.68,-1.18,1.36,0.14,-14.09,-1.07,3.08,-0.02,-0.25,0.98,-0.67,-0.42,-0.82
129,1900-01-01 11:36:52.737,29.87,31.03,-1.61,0.5,0.49,0.68,-1.16,1.38,0.05,-13.84,-1.15,3.12,-0.02,-0.24,0.98,-0.45,-0.4,-0.74
130,1900-01-01 11:36:52.831,29.57,30.89,-1.61,0.5,0.48,0.69,-1.26,1.37,0.05,-14.18,-1.05,3.16,-0.02,-0.25,0.98,-0.89,-0.42,-0.92
131,1900-01-01 11:36:52.879,29.76,31.07,-1.61,0.5,0.48,0.68,-1.21,1.42,0.11,-13.83,-1.07,3.18,-0.02,-0.24,0.98,-0.76,-0.49,-0.85
132,1900-01-01 11:36:52.971,29.64,30.97,-1.6,0.5,0.48,0.68,-1.12,1.31,0.05,-14.37,-0.99,3.21,-0.02,-0.25,0.98,-0.69,-0.43,-0.82
133,1900-01-01 11:36:53.018,29.83,31.08,-1.6,0.5,0.49,0.68,-1.11,1.27,0.14,-13.81,-1.06,3.24,-0.02,-0.24,0.98,-0.53,-0.44,-0.81
134,1900-01-01 11:36:53.112,29.75,30.86,-1.59,0.5,0.49,0.68,-0.95,1.22,-0.09,-14.31,-1.01,3.28,-0.02,-0.25,0.98,-0.27,-0.36,-0.8
135,1900-01-01 11:36:53.205,29.68,31.05,-1.61,0.5,0.48,0.68,-1.15,1.18,0.15,-14.17,-0.87,3.31,-0.02,-0.25,0.98,-0.69,-0.45,-0.87
136,1900-01-01 11:36:53.252,29.58,31.2,-1.6,0.51,0.48,0.68,-0.93,1.14,-0.04,-13.96,-0.87,3.34,-0.02,-0.24,0.98,-0.51,-0.43,-0.9
137,1900-01-01 11:36:53.346,30.0,31.01,-1.61,0.5,0.49,0.68,-1.14,1.01,-0.01,-13.82,-0.93,3.36,-0.02,-0.24,0.98,-0.48,-0.27,-1.11
138,1900-01-01 11:36:53.439,29.84,30.95,-1.62,0.5,0.49,0.68,-1.29,0.96,-0.34,-14.32,-1.07,3.35,-0.02,-0.25,0.98,-0.92,-0.16,-1.65
139,1900-01-01 11:36:53.485,30.4,31.46,-1.68,0.51,0.49,0.67,-1.43,1.42,0.31,-12.79,-1.04,3.25,-0.02,-0.22,0.98,-0.42,-0.24,-0.48
140,1900-01-01 11:36:53.579,29.64,31.15,-1.64,0.51,0.48,0.68,-1.24,1.15,0.03,-14.42,-0.82,3.34,-0.01,-0.25,0.98,-0.05,-0.5,-0.68
141,1900-01-01 11:36:53.672,30.05,31.09,-1.65,0.5,0.49,0.68,-1.39,1.21,-0.12,-13.65,-1.03,3.39,-0.02,-0.24,0.98,-0.05,-0.31,-0.84
142,1900-01-01 11:36:53.719,29.68,31.03,-1.67,0.5,0.48,0.68,-1.41,1.1,-0.4,-14.3,-0.82,3.42,-0.01,-0.25,0.98,-0.5,-0.15,-1.31
143,1900-01-01 11:36:53.812,30.16,30.98,-1.74,0.5,0.49,0.68,-1.37,1.26,0.03,-13.53,-1.14,3.38,-0.02,-0.24,0.99,-0.41,-0.39,-0.87
144,1900-01-01 11:36:53.858,29.71,30.8,-1.75,0.5,0.48,0.69,-1.65,1.36,0.08,-14.2,-1.37,3.4,-0.02,-0.25,0.98,-1.05,-0.56,-0.97
145,1900-01-01 11:36:53.952,30.08,31.09,-1.74,0.51,0.49,0.68,-1.39,1.19,-0.15,-13.49,-0.95,3.41,-0.02,-0.24,0.99,-0.34,-0.17,-1.02
146,1900-01-01 11:36:54.046,29.27,31.24,-1.77,0.5,0.48,0.68,-1.02,0.89,-0.32,-14.32,-1.13,3.42,-0.02,-0.25,0.99,-0.69,-0.02,-1.15
147,1900-01-01 11:36:54.092,29.4,30.82,-1.83,0.5,0.48,0.69,-0.98,1.16,-0.26,-14.64,-1.04,3.4,-0.02,-0.26,0.99,-0.52,-0.42,-0.96
148,1900-01-01 11:36:54.187,29.49,30.89,-1.88,0.5,0.48,0.69,-1.27,1.09,0.03,-14.52,-0.83,3.41,-0.01,-0.25,0.98,-0.83,-0.07,-1.1
149,1900-01-01 11:36:54.280,29.46,30.94,-1.88,0.5,0.48,0.68,-1.6,1.24,-0.05,-14.34,-0.98,3.4,-0.02,-0.25,0.98,-1.28,-0.24,-1.27
150,1900-01-01 11:36:54.327,29.51,31.45,-1.9,0.51,0.48,0.68,-1.48,1.4,0.1,-13.41,-0.76,3.36,-0.01,-0.24,0.99,-0.68,-0.35,-0.81
151,1900-01-01 11:36:54.421,29.8,30.85,-1.89,0.5,0.49,0.68,-1.18,1.24,0.01,-14.17,-1.05,3.4,-0.02,-0.25,0.98,-0.34,-0.36,-0.71
152,1900-01-01 11:36:54.468,29.61,31.14,-1.9,0.51,0.48,0.69,-1.32,1.24,-0.05,-13.82,-0.86,3.45,-0.02,-0.24,0.99,-0.15,-0.35,-0.66
153,1900-01-01 11:36:54.560,29.68,31.01,-1.92,0.5,0.48,0.68,-1.24,1.21,0.13,-13.7,-0.93,3.51,-0.02,-0.24,0.98,-0.39,-0.26,-0.72
154,1900-01-01 11:36:54.654,29.77,30.85,-1.91,0.5,0.48,0.68,-1.4,1.37,-0.08,-13.91,-1.01,3.56,-0.02,-0.24,0.98,-0.4,-0.46,-0.73
155,1900-01-01 11:36:54.701,29.87,30.99,-1.93,0.51,0.49,0.69,-1.31,1.36,-0.02,-13.74,-1.02,3.6,-0.02,-0.24,0.98,-0.44,-0.29,-0.73
156,1900-01-01 11:36:54.794,29.67,30.92,-1.94,0.5,0.48,0.68,-1.11,1.28,-0.13,-13.97,-1.07,3.65,-0.02,-0.24,0.98,-0.14,-0.17,-0.74
157,1900-01-01 11:36:54.887,29.55,31.21,-1.97,0.51,0.48,0.68,-1.34,1.34,-0.07,-13.71,-0.86,3.69,-0.02,-0.24,0.98,-0.54,-0.33,-0.88
158,1900-01-01 11:36:54.934,29.53,31.14,-1.99,0.5,0.48,0.68,-1.32,1.33,-0.04,-13.91,-0.91,3.72,-0.02,-0.24,0.98,-0.73,-0.22,-0.95
159,1900-01-01 11:36:55.028,29.77,30.87,-2.0,0.5,0.48,0.68,-1.4,1.23,-0.1,-13.78,-1.07,3.73,-0.02,-0.24,0.98,-0.63,-0.32,-1.0
160,1900-01-01 11:36:55.121,29.78,31.14,-2.02,0.51,0.49,0.68,-1.21,1.06,-0.05,-13.77,-0.93,3.74,-0.02,-0.24,0.98,-0.55,-0.17,-1.07
161,1900-01-01 11:36:55.167,29.81,30.78,-2.04,0.5,0.49,0.68,-1.35,1.36,-0.15,-14.12,-1.22,3.73,-0.02,-0.25,0.98,-0.76,-0.56,-1.11
162,1900-01-01 11:36:55.261,29.43,31.39,-2.07,0.51,0.48,0.68,-1.26,1.29,-0.08,-13.69,-0.77,3.72,-0.01,-0.24,0.99,-0.73,-0.22,-1.2
163,1900-01-01 11:36:55.355,29.85,30.85,-2.09,0.5,0.49,0.68,-1.27,1.33,0.0,-13.66,-1.38,3.69,-0.02,-0.24,0.98,-0.89,-0.55,-1.16
164,1900-01-01 11:36:55.402,29.71,31.19,-2.1,0.51,0.49,0.68,-1.16,1.36,0.11,-13.87,-0.81,3.68,-0.01,-0.24,0.98,-0.41,-0.61,-0.59
165,1900-01-01 11:36:55.496,29.62,31.0,-2.09,0.5,0.48,0.68,-0.91,1.27,0.11,-14.14,-0.86,3.74,-0.02,-0.25,0.98,-0.37,-0.54,-0.68
166,1900-01-01 11:36:55.545,29.92,31.03,-2.08,0.5,0.49,0.68,-1.26,1.47,0.01,-13.8,-0.85,3.8,-0.01,-0.24,0.98,-0.34,-0.34,-0.78
167,1900-01-01 11:36:55.639,29.66,31.26,-2.09,0.51,0.49,0.68,-0.96,1.08,-0.15,-13.8,-0.7,3.84,-0.01,-0.24,0.99,-0.27,-0.34,-1.05
168,1900-01-01 11:36:55.729,30.1,30.78,-2.12,0.5,0.49,0.68,-1.11,1.31,0.22,-13.77,-1.04,3.84,-0.02,-0.24,0.98,-0.64,-0.36,-0.73
169,1900-01-01 11:36:55.776,29.57,31.13,-2.09,0.51,0.48,0.68,-1.11,1.25,0.06,-13.93,-0.69,3.88,-0.01,-0.24,0.98,-0.69,-0.56,-0.85
170,1900-01-01 11:36:55.870,29.95,31.11,-2.09,0.5,0.49,0.68,-1.1,1.37,0.22,-13.3,-0.97,3.91,-0.02,-0.23,0.98,-0.6,-0.27,-0.73
171,1900-01-01 11:36:55.963,29.77,30.98,-2.07,0.5,0.49,0.68,-1.24,1.23,-0.14,-14.03,-0.76,3.96,-0.01,-0.24,0.98,-0.46,-0.44,-0.85
172,1900-01-01 11:36:56.010,30.04,31.3,-2.1,0.51,0.49,0.68,-1.03,1.1,0.06,-13.25,-0.59,3.99,-0.01,-0.23,0.99,-0.39,-0.32,-0.89
173,1900-01-01 11:36:56.104,29.98,30.89,-2.1,0.5,0.49,0.68,-1.49,1.45,-0.08,-13.86,-1.1,4.01,-0.02,-0.24,0.98,-0.63,-0.36,-0.88
174,1900-01-01 11:36:56.151,29.82,31.68,-2.12,0.52,0.49,0.68,-1.4,1.08,-0.1,-13.42,-0.45,4.03,-0.01,-0.24,0.99,-0.22,-0.2,-0.85
175,1900-01-01 11:36:56.279,29.9,30.71,-2.14,0.5,0.49,0.68,-1.46,1.24,0.17,-14.01,-0.91,4.06,-0.02,-0.24,0.98,-0.92,-0.14,-0.96
176,1900-01-01 11:36:56.338,29.98,31.08,-2.12,0.5,0.49,0.68,-1.43,1.22,-0.34,-13.81,-0.86,4.07,-0.02,-0.24,0.98,-0.14,-0.41,-0.89
177,1900-01-01 11:36:56.385,29.82,31.2,-2.18,0.51,0.49,0.68,-1.51,1.36,-0.11,-13.64,-0.73,4.1,-0.01,-0.24,0.98,-0.68,-0.24,-1.03
178,1900-01-01 11:36:56.478,29.69,31.12,-2.21,0.5,0.48,0.68,-1.53,1.37,-0.06,-14.22,-0.61,4.1,-0.01,-0.25,0.98,-0.5,-0.27,-1.04
179,1900-01-01 11:36:56.570,29.64,31.15,-2.23,0.51,0.48,0.68,-1.39,1.35,-0.02,-13.94,-0.8,4.1,-0.01,-0.24,0.99,-0.82,-0.1,-0.96
180,1900-01-01 11:36:56.616,29.65,31.13,-2.24,0.5,0.48,0.68,-1.57,1.28,-0.03,-13.93,-0.78,4.11,-0.01,-0.24,0.98,-0.81,-0.07,-1.0
181,1900-01-01 11:36:56.708,29.51,31.07,-2.25,0.5,0.48,0.68,-1.47,1.25,-0.21,-13.97,-0.83,4.11,-0.01,-0.24,0.98,-0.57,-0.15,-1.03
182,1900-01-01 11:36:56.844,29.72,30.94,-2.29,0.5,0.49,0.68,-1.59,1.15,0.02,-13.96,-0.79,4.11,-0.01,-0.24,0.98,-0.69,-0.27,-1.01
183,1900-01-01 11:36:56.844,29.43,31.25,-2.3,0.51,0.48,0.68,-1.31,1.18,-0.08,-13.92,-0.69,4.12,-0.01,-0.24,0.98,-0.62,-0.18,-1.08
184,1900-01-01 11:36:56.967,30.31,30.74,-2.32,0.5,0.49,0.68,-1.58,1.31,0.26,-13.06,-1.35,4.11,-0.02,-0.23,0.98,-0.59,-0.1,-0.72
185,1900-01-01 11:36:57.005,28.29,31.8,-2.29,0.51,0.46,0.69,-3.07,1.47,-0.66,-14.43,-0.08,4.16,0.0,-0.25,0.98,-2.56,0.39,-2.07
186,1900-01-01 11:36:57.085,31.09,31.78,-2.4,0.52,0.51,0.66,-2.51,1.85,1.03,-10.53,-1.07,4.0,-0.02,-0.18,0.99,-1.1,0.5,-0.56
187,1900-01-01 11:36:57.161,31.23,31.03,-2.25,0.5,0.51,0.67,-1.67,1.94,0.33,-12.64,-1.07,4.07,-0.02,-0.21,0.96,0.76,-0.72,0.12
188,1900-01-01 11:36:57.265,30.61,32.02,-2.21,0.52,0.5,0.67,-0.37,1.05,-0.03,-12.14,-0.64,4.25,-0.01,-0.21,0.98,2.53,-0.25,0.0
189,1900-01-01 11:36:57.314,30.29,31.16,-2.22,0.51,0.49,0.68,-0.63,1.1,-0.25,-13.7,-1.08,4.41,-0.02,-0.24,0.98,1.5,-0.63,-0.12
190,1900-01-01 11:36:57.408,29.97,30.61,-2.27,0.5,0.49,0.69,-0.53,0.82,-0.06,-14.1,-1.31,4.55,-0.02,-0.25,0.98,0.81,-0.71,-0.63
191,1900-01-01 11:36:57.463,28.99,31.0,-2.28,0.5,0.47,0.69,-0.15,0.71,-0.53,-15.1,-1.2,4.61,-0.02,-0.27,1.0,0.57,0.04,-0.73
192,1900-01-01 11:36:57.569,29.84,30.73,-2.37,0.5,0.49,0.68,-0.37,0.73,-0.09,-14.08,-1.29,4.66,-0.02,-0.25,0.99,-0.22,-0.24,-0.66
193,1900-01-01 11:36:57.600,29.2,30.67,-2.4,0.5,0.48,0.69,0.14,1.05,-0.3,-14.37,-1.33,4.72,-0.02,-0.26,1.0,1.22,-0.28,0.15
194,1900-01-01 11:36:57.698,30.16,31.35,-2.45,0.51,0.5,0.68,1.05,0.61,-0.34,-13.16,-1.15,4.9,-0.02,-0.24,1.01,2.92,0.22,0.21
195,1900-01-01 11:36:57.768,30.04,30.16,-2.51,0.49,0.49,0.69,-0.56,1.1,-0.18,-14.84,-1.39,5.09,-0.02,-0.26,0.99,0.7,-0.44,-0.2
196,1900-01-01 11:36:57.876,28.9,31.16,-2.55,0.51,0.47,0.69,-0.63,0.84,-0.39,-14.56,-0.68,5.21,-0.01,-0.26,1.0,-0.85,-0.41,-1.36
197,1900-01-01 11:36:57.922,29.38,30.67,-2.61,0.5,0.48,0.69,-1.12,1.31,0.01,-14.09,-1.53,5.16,-0.03,-0.25,0.99,-1.53,-0.26,-1.07
198,1900-01-01 11:36:58.016,28.96,31.04,-2.62,0.5,0.47,0.69,-1.97,1.98,0.44,-14.08,-0.67,5.16,-0.01,-0.24,0.97,-2.13,-0.31,-1.34
199,1900-01-01 11:36:58.083,30.75,31.03,-2.56,0.51,0.5,0.68,-1.85,1.37,0.27,-11.9,-1.28,5.11,-0.02,-0.21,0.98,-1.08,-0.59,-0.87
200,1900-01-01 11:36:58.171,29.6,31.73,-2.53,0.51,0.48,0.67,-1.63,1.65,0.03,-13.86,0.52,5.14,0.01,-0.23,0.94,-0.74,-0.22,-1.26
201,1900-01-01 11:36:58.213,30.29,30.89,-2.53,0.5,0.49,0.68,-2.63,1.7,0.38,-13.14,-0.74,5.1,-0.01,-0.23,0.97,-1.84,-0.39,-1.27
202,1900-01-01 11:36:58.295,29.61,31.07,-2.48,0.5,0.48,0.68,-2.24,1.77,0.02,-13.69,-0.75,5.07,-0.01,-0.24,0.98,-1.47,-0.63,-1.13
203,1900-01-01 11:36:58.393,30.49,31.28,-2.49,0.51,0.5,0.67,-1.44,1.5,0.43,-12.37,-0.76,5.05,-0.01,-0.22,0.98,-0.24,-0.15,-0.44
204,1900-01-01 11:36:58.475,30.1,31.12,-2.43,0.5,0.49,0.68,-1.38,1.59,-0.02,-13.34,-0.88,5.15,-0.02,-0.23,0.98,0.05,-0.48,-0.34
205,1900-01-01 11:36:58.566,30.3,31.38,-2.44,0.51,0.49,0.68,-0.96,1.33,0.03,-12.86,-0.67,5.25,-0.01,-0.23,0.99,0.36,-0.32,-0.45
206,1900-01-01 11:36:58.668,29.92,31.22,-2.45,0.5,0.49,0.68,-1.19,1.23,-0.11,-13.82,-0.74,5.34,-0.01,-0.24,0.98,-0.05,-0.22,-0.64
207,1900-01-01 11:36:58.714,30.0,31.14,-2.47,0.51,0.49,0.68,-0.89,0.9,-0.21,-13.52,-0.7,5.4,-0.01,-0.24,0.99,0.13,-0.42,-0.85
208,1900-01-01 11:36:58.764,29.87,30.63,-2.51,0.5,0.49,0.69,-1.38,0.69,-0.31,-14.39,-1.01,5.43,-0.02,-0.25,0.98,-0.39,0.12,-1.03
209,1900-01-01 11:36:58.866,29.61,30.52,-2.57,0.5,0.49,0.69,0.5,-1.24,-1.5,-15.06,-0.75,5.43,-0.01,-0.27,0.99,3.21,0.66,-0.97
210,1900-01-01 11:36:58.900,30.77,30.25,-2.81,0.48,0.49,0.66,2.31,-2.31,-1.66,-12.66,-2.3,5.44,-0.04,-0.22,0.97,6.83,1.09,-0.34
211,1900-01-01 11:36:58.994,29.89,32.7,-3.07,0.54,0.5,0.68,0.41,0.79,2.12,-10.23,-0.77,5.55,-0.01,-0.18,1.01,-2.66,-1.81,0.04
212,1900-01-01 11:36:59.059,31.42,32.49,-2.75,0.52,0.51,0.64,0.13,2.45,2.5,-11.3,-0.75,5.71,-0.01,-0.2,0.99,-5.96,-1.02,-0.21
213,1900-01-01 11:36:59.160,31.79,31.27,-2.38,0.51,0.52,0.66,-3.57,6.6,3.37,-11.25,-1.65,5.84,-0.03,-0.19,0.98,-13.46,-6.53,-2.09
214,1900-01-01 11:36:59.339,28.27,29.1,-1.87,0.47,0.46,0.72,-0.53,8.08,5.66,-18.93,-0.31,5.68,-0.01,-0.33,0.95,-14.5,-6.08,-1.04
215,1900-01-01 11:36:59.339,30.71,30.91,-1.01,0.52,0.51,0.69,5.89,3.92,0.73,-20.03,1.38,5.68,0.02,-0.35,0.97,-0.68,-1.81,2.06
216,1900-01-01 11:36:59.385,33.35,32.11,-0.91,0.52,0.54,0.63,1.53,2.88,0.32,-13.68,0.46,6.15,0.01,-0.24,0.98,-0.41,-0.4,0.23
217,1900-01-01 11:36:59.447,30.68,31.12,-0.87,0.5,0.5,0.67,-4.92,4.89,3.15,-16.58,0.97,6.34,0.02,-0.29,0.97,-7.92,-1.4,-1.67
218,1900-01-01 11:36:59.565,29.71,30.38,-0.4,0.48,0.47,0.68,-0.56,2.66,3.19,-20.11,1.18,6.25,0.02,-0.35,0.96,-6.17,-3.66,-0.92
219,1900-01-01 11:36:59.650,30.71,30.32,0.08,0.49,0.49,0.67,0.81,-1.03,0.6,-19.96,1.41,6.27,0.02,-0.35,0.95,1.41,-3.53,-1.08
220,1900-01-01 11:36:59.694,30.28,30.7,0.17,0.51,0.5,0.69,-0.47,-0.44,0.49,-18.56,1.89,6.26,0.03,-0.32,0.96,2.1,-2.67,-1.41
221,1900-01-01 11:36:59.823,30.36,32.49,0.23,0.53,0.5,0.67,-0.23,-0.63,0.37,-17.47,3.05,6.2,0.05,-0.31,0.98,2.62,-0.15,-1.13
222,1900-01-01 11:36:59.823,30.87,31.87,0.28,0.51,0.5,0.66,-2.82,0.72,0.95,-16.73,2.05,6.19,0.04,-0.29,0.97,-1.21,-0.67,-1.82
223,1900-01-01 11:36:59.930,30.6,30.94,0.42,0.5,0.49,0.67,-2.12,-0.37,-0.41,-18.82,1.75,6.07,0.03,-0.32,0.95,0.95,-0.56,-1.93
224,1900-01-01 11:37:00.030,30.38,31.74,0.35,0.53,0.51,0.68,-1.94,-0.82,-2.22,-17.55,2.57,5.93,0.05,-0.31,0.97,3.71,0.17,-1.92
225,1900-01-01 11:37:00.066,29.87,32.33,0.0,0.52,0.49,0.67,-3.06,1.32,-1.23,-15.48,2.11,5.8,0.04,-0.27,0.98,0.69,1.21,-1.63
226,1900-01-01 11:37:00.128,29.73,31.2,-0.2,0.5,0.48,0.67,-2.18,1.11,-0.69,-17.82,1.88,5.71,0.03,-0.31,0.96,-0.01,-0.37,-1.34
227,1900-01-01 11:37:00.228,30.08,32.32,-0.31,0.52,0.49,0.67,-0.66,-0.19,-1.33,-16.35,2.34,5.66,0.04,-0.29,0.98,3.05,0.38,-0.95
228,1900-01-01 11:37:00.328,29.82,32.33,-0.52,0.53,0.49,0.67,-1.63,0.77,-0.34,-15.4,2.37,5.68,0.04,-0.27,0.98,0.24,-0.16,-1.19
229,1900-01-01 11:37:00.434,30.18,32.0,-0.58,0.51,0.49,0.66,-1.56,1.02,0.11,-15.83,2.12,5.65,0.04,-0.28,0.97,0.13,-0.6,-1.08
230,1900-01-01 11:37:00.434,29.9,31.93,-0.57,0.52,0.49,0.67,-1.91,1.27,0.59,-15.96,2.24,5.65,0.04,-0.28,0.97,-1.18,-1.5,-1.18
231,1900-01-01 11:37:00.534,30.14,32.11,-0.49,0.52,0.49,0.67,-1.59,0.52,0.6,-15.99,2.3,5.63,0.04,-0.28,0.98,0.17,-1.44,-1.16
232,1900-01-01 11:37:00.670,30.39,32.0,-0.41,0.52,0.5,0.67,-2.02,0.78,0.47,-15.31,2.45,5.61,0.04,-0.27,0.97,-0.82,-1.88,-1.75
233,1900-01-01 11:37:00.731,29.52,32.37,-0.35,0.53,0.49,0.68,-0.99,0.38,0.52,-16.21,3.19,5.5,0.06,-0.29,0.98,0.1,-0.73,-1.3
234,1900-01-01 11:37:00.768,29.78,32.05,-0.28,0.52,0.49,0.67,-1.4,1.37,0.41,-15.69,2.67,5.46,0.05,-0.27,0.97,-0.89,-0.93,-0.92
235,1900-01-01 11:37:00.833,29.5,32.21,-0.22,0.52,0.48,0.67,-0.68,1.32,-0.09,-16.31,2.94,5.48,0.05,-0.29,0.97,0.19,-1.05,-0.5
236,1900-01-01 11:37:00.931,30.21,32.71,-0.24,0.53,0.49,0.66,-0.86,1.4,0.04,-14.97,3.01,5.56,0.05,-0.26,0.98,0.13,-1.0,-0.67
237,1900-01-01 11:37:01.039,29.72,32.36,-0.25,0.52,0.48,0.67,-0.78,0.93,-0.08,-15.93,3.1,5.62,0.05,-0.28,0.97,-0.05,-0.44,-0.89
238,1900-01-01 11:37:01.039,29.72,32.86,-0.27,0.54,0.49,0.67,-1.03,1.34,0.11,-15.24,3.39,5.64,0.06,-0.27,0.98,-0.34,-0.47,-0.7
239,1900-01-01 11:37:01.137,30.05,32.4,-0.26,0.52,0.49,0.66,-1.28,1.87,0.51,-15.69,3.15,5.69,0.06,-0.28,0.98,-1.51,-0.56,-0.76
240,1900-01-01 11:37:01.233,30.12,32.14,-0.19,0.52,0.49,0.67,-1.6,1.43,0.04,-15.73,2.86,5.73,0.05,-0.27,0.97,-1.33,-0.3,-1.03
241,1900-01-01 11:37:01.334,29.59,32.36,-0.19,0.52,0.48,0.67,-1.33,1.53,-0.34,-16.08,3.2,5.73,0.06,-0.28,0.97,-1.08,-0.26,-0.98
242,1900-01-01 11:37:01.376,29.62,32.56,-0.25,0.53,0.48,0.67,-0.97,1.59,0.11,-15.84,3.37,5.74,0.06,-0.28,0.98,-0.18,-0.31,-0.52
243,1900-01-01 11:37:01.436,30.5,32.11,-0.24,0.52,0.5,0.66,-1.05,1.63,0.38,-15.42,2.93,5.82,0.05,-0.27,0.97,-0.83,-0.36,-0.63
244,1900-01-01 11:37:01.537,29.78,32.17,-0.19,0.52,0.49,0.67,-1.43,1.52,-0.15,-16.26,3.17,5.88,0.06,-0.28,0.97,-1.02,-0.19,-0.94
245,1900-01-01 11:37:01.612,30.02,32.34,-0.23,0.52,0.49,0.67,-1.51,1.25,-0.04,-15.66,3.26,5.89,0.06,-0.27,0.97,-0.69,-0.04,-0.69
246,1900-01-01 11:37:01.660,29.65,32.27,-0.24,0.52,0.48,0.67,-1.37,1.22,-0.18,-16.32,3.14,5.95,0.06,-0.29,0.97,-0.56,-0.27,-0.85
247,1900-01-01 11:37:01.751,29.98,32.4,-0.28,0.52,0.49,0.67,-1.44,1.47,0.03,-15.61,3.01,5.97,0.05,-0.27,0.98,-0.56,-0.04,-0.74
248,1900-01-01 11:37:01.828,29.87,32.11,-0.28,0.52,0.49,0.67,-1.15,1.19,-0.07,-15.96,2.99,6.02,0.05,-0.28,0.97,-0.34,-0.29,-0.75
249,1900-01-01 11:37:01.927,29.88,32.4,-0.3,0.52,0.49,0.67,-1.12,1.15,-0.15,-15.82,3.14,6.06,0.06,-0.28,0.98,-0.24,-0.31,-0.85
250,1900-01-01 11:37:01.985,29.78,32.16,-0.33,0.52,0.49,0.67,-1.29,1.13,-0.19,-16.14,3.04,6.09,0.05,-0.28,0.98,-0.33,-0.19,-0.92
251,1900-01-01 11:37:02.032,29.86,32.26,-0.37,0.52,0.49,0.67,-1.18,1.22,0.0,-15.71,3.14,6.11,0.06,-0.28,0.98,-0.47,-0.28,-0.82
252,1900-01-01 11:37:02.126,29.88,32.05,-0.38,0.52,0.49,0.67,-1.08,1.06,-0.11,-15.89,3.03,6.14,0.05,-0.28,0.98,-0.22,-0.31,-0.88
253,1900-01-01 11:37:02.219,30.01,32.05,-0.4,0.52,0.49,0.67,-1.25,1.14,-0.11,-15.79,2.98,6.17,0.05,-0.28,0.98,-0.29,-0.13,-0.85
254,1900-01-01 11:37:02.267,29.79,32.26,-0.43,0.52,0.49,0.67,-1.1,1.21,-0.18,-15.79,3.06,6.2,0.05,-0.28,0.97,-0.22,-0.4,-0.88
255,1900-01-01 11:37:02.361,29.98,32.38,-0.46,0.53,0.49,0.67,-1.17,1.13,-0.04,-15.52,3.13,6.22,0.06,-0.27,0.98,-0.15,-0.11,-0.79
256,1900-01-01 11:37:02.477,29.86,32.25,-0.48,0.52,0.49,0.67,-1.19,1.11,-0.02,-15.7,2.88,6.26,0.05,-0.27,0.98,-0.4,-0.12,-0.86
257,1900-01-01 11:37:02.500,29.84,32.16,-0.49,0.52,0.49,0.67,-1.34,1.14,-0.09,-15.61,2.86,6.28,0.05,-0.27,0.97,-0.34,0.01,-0.9
258,1900-01-01 11:37:02.594,29.87,32.27,-0.51,0.52,0.49,0.67,-1.36,1.23,-0.1,-15.36,2.93,6.31,0.05,-0.27,0.98,-0.38,-0.3,-0.92
259,1900-01-01 11:37:02.688,29.96,32.05,-0.53,0.52,0.49,0.67,-1.39,1.3,-0.08,-15.63,2.89,6.32,0.05,-0.27,0.97,-0.63,-0.34,-0.92
260,1900-01-01 11:37:02.733,29.91,32.39,-0.55,0.53,0.49,0.67,-1.15,1.23,-0.05,-15.56,2.92,6.34,0.05,-0.27,0.98,-0.23,-0.31,-0.8
261,1900-01-01 11:37:02.828,30.02,31.98,-0.57,0.52,0.49,0.67,-1.5,1.31,0.05,-15.73,2.77,6.38,0.05,-0.28,0.98,-0.65,0.1,-0.97
262,1900-01-01 11:37:02.874,30.14,32.23,-0.57,0.52,0.49,0.67,-1.23,1.2,-0.15,-15.25,2.83,6.39,0.05,-0.27,0.98,-0.4,-0.4,-0.95
263,1900-01-01 11:37:02.969,30.03,32.47,-0.6,0.53,0.49,0.67,-1.3,1.26,-0.05,-15.18,3.14,6.4,0.06,-0.27,0.98,-0.36,-0.23,-0.85
264,1900-01-01 11:37:03.061,30.31,32.03,-0.62,0.52,0.49,0.66,-1.31,1.32,-0.11,-15.3,2.55,6.43,0.04,-0.27,0.97,-0.47,-0.31,-0.89
265,1900-01-01 11:37:03.108,29.84,32.46,-0.64,0.53,0.49,0.67,-1.39,1.24,-0.18,-15.39,3.13,6.45,0.06,-0.27,0.98,-0.44,-0.25,-1.01
266,1900-01-01 11:37:03.201,30.52,32.15,-0.68,0.52,0.5,0.66,-0.72,0.97,0.1,-15.08,2.44,6.45,0.04,-0.26,0.98,0.57,-0.07,-0.56
267,1900-01-01 11:37:03.295,29.99,32.0,-0.67,0.52,0.49,0.67,-1.27,1.31,-0.18,-16.01,2.55,6.53,0.05,-0.28,0.97,-0.25,-0.11,-0.5
268,1900-01-01 11:37:03.342,30.19,32.59,-0.71,0.53,0.5,0.67,-0.86,0.96,-0.02,-14.78,2.89,6.61,0.05,-0.26,0.99,0.37,-0.14,-0.67
269,1900-01-01 11:37:03.436,29.9,31.95,-0.72,0.52,0.49,0.67,-1.36,1.24,0.2,-15.81,2.53,6.66,0.04,-0.28,0.97,-1.05,0.08,-0.84
270,1900-01-01 11:37:03.483,29.95,32.4,-0.7,0.53,0.49,0.67,-1.15,1.29,-0.07,-15.29,2.53,6.69,0.04,-0.27,0.98,-0.27,-0.2,-0.65
271,1900-01-01 11:37:03.578,29.5,32.44,-0.72,0.53,0.48,0.67,-1.25,0.92,-0.31,-16.08,2.93,6.75,0.05,-0.28,0.98,-0.74,-0.29,-1.29
272,1900-01-01 11:37:03.673,29.95,31.88,-0.77,0.52,0.49,0.67,-1.66,1.44,0.25,-15.6,2.49,6.71,0.04,-0.27,0.97,-1.6,-0.05,-1.07
273,1900-01-01 11:37:03.719,29.47,32.44,-0.74,0.52,0.48,0.67,-1.31,1.25,-0.32,-15.9,2.8,6.71,0.05,-0.28,0.98,-0.77,-0.34,-1.1
274,1900-01-01 11:37:03.812,29.85,32.45,-0.8,0.53,0.49,0.67,-1.24,1.31,0.1,-15.25,3.0,6.7,0.05,-0.27,0.98,-0.84,-0.27,-0.82
275,1900-01-01 11:37:03.871,29.97,31.9,-0.79,0.51,0.49,0.67,-1.21,1.27,0.01,-15.68,2.46,6.73,0.04,-0.27,0.97,-0.69,-0.39,-0.78
276,1900-01-01 11:37:03.982,30.02,32.28,-0.8,0.52,0.49,0.67,-1.13,1.39,0.09,-15.24,2.62,6.77,0.05,-0.27,0.98,-0.58,-0.46,-0.71
277,1900-01-01 11:37:04.064,29.72,32.32,-0.8,0.52,0.49,0.67,-1.38,1.51,0.13,-15.42,2.66,6.82,0.05,-0.27,0.98,-0.93,-0.2,-0.73
278,1900-01-01 11:37:04.099,30.0,32.16,-0.78,0.52,0.49,0.67,-1.21,1.31,0.08,-15.56,2.58,6.87,0.05,-0.27,0.97,-0.77,-0.42,-0.9
279,1900-01-01 11:37:04.195,30.02,32.19,-0.78,0.52,0.49,0.67,-1.3,1.25,-0.18,-15.37,2.62,6.89,0.05,-0.27,0.98,-0.3,-0.4,-0.8
280,1900-01-01 11:37:04.266,29.7,32.38,-0.82,0.52,0.48,0.67,-1.27,1.4,0.12,-15.35,2.75,6.92,0.05,-0.27,0.98,-0.77,-0.27,-0.85
281,1900-01-01 11:37:04.376,30.11,32.27,-0.81,0.52,0.49,0.67,-1.31,1.45,0.16,-15.35,2.57,6.95,0.05,-0.27,0.98,-0.83,-0.36,-0.73
282,1900-01-01 11:37:04.449,29.84,32.27,-0.79,0.52,0.49,0.67,-1.12,1.36,0.05,-15.69,2.72,7.0,0.05,-0.28,0.98,-0.71,-0.31,-0.76
283,1900-01-01 11:37:04.474,29.92,32.5,-0.79,0.52,0.49,0.66,-1.08,1.4,0.06,-15.32,2.67,7.04,0.05,-0.27,0.98,-0.57,-0.09,-0.71
284,1900-01-01 11:37:04.578,29.72,32.35,-0.79,0.52,0.49,0.67,-1.03,1.2,-0.2,-15.7,2.52,7.09,0.04,-0.28,0.98,-0.32,-0.4,-0.85
285,1900-01-01 11:37:04.662,29.85,32.37,-0.83,0.52,0.49,0.67,-1.08,1.44,0.04,-15.61,2.72,7.12,0.05,-0.27,0.97,-0.56,-0.18,-0.71
286,1900-01-01 11:37:04.756,29.74,31.98,-0.83,0.52,0.48,0.67,-1.29,1.23,-0.24,-15.95,2.52,7.17,0.04,-0.28,0.98,-0.3,-0.4,-0.92
287,1900-01-01 11:37:04.850,29.99,32.48,-0.88,0.53,0.49,0.67,-1.14,1.08,0.05,-15.35,2.9,7.19,0.05,-0.27,0.98,-0.27,-0.34,-0.84
288,1900-01-01 11:37:04.887,29.9,31.92,-0.88,0.52,0.49,0.67,-1.5,0.85,-0.45,-15.66,2.41,7.22,0.04,-0.27,0.97,-0.79,-0.49,-1.53
289,1900-01-01 11:37:04.969,29.87,32.24,-0.96,0.52,0.49,0.67,-1.89,1.4,0.18,-15.26,2.73,7.14,0.05,-0.27,0.98,-1.2,0.06,-0.95
290,1900-01-01 11:37:05.057,30.11,32.53,-0.94,0.53,0.49,0.66,-1.34,1.17,-0.02,-14.79,2.7,7.16,0.05,-0.26,0.98,-0.15,-0.43,-0.87
291,1900-01-01 11:37:05.166,30.37,32.18,-0.95,0.52,0.49,0.66,-1.18,1.18,-0.09,-14.99,2.44,7.18,0.04,-0.26,0.98,0.1,-0.06,-0.72
292,1900-01-01 11:37:05.166,29.64,32.5,-0.97,0.53,0.49,0.67,-1.11,1.11,-0.44,-15.78,2.83,7.23,0.05,-0.28,0.98,-0.03,-0.37,-0.96
293,1900-01-01 11:37:05.368,30.26,32.06,-1.05,0.52,0.49,0.67,-1.13,1.37,0.08,-14.96,2.34,7.24,0.04,-0.26,0.99,-0.28,-0.49,-0.6
294,1900-01-01 11:37:05.368,29.79,32.08,-1.04,0.52,0.49,0.67,-0.68,0.98,-0.63,-16.07,2.89,7.31,0.05,-0.28,0.98,1.11,-0.41,-0.74
295,1900-01-01 11:37:05.403,30.31,31.53,-1.15,0.51,0.49,0.67,-1.02,0.94,-0.27,-15.72,2.24,7.35,0.04,-0.27,0.97,0.12,0.17,-0.82
296,1900-01-01 11:37:05.494,29.6,32.63,-1.2,0.53,0.49,0.67,-0.89,0.62,-1.15,-15.16,3.07,7.39,0.05,-0.27,0.98,0.95,-0.27,-1.26
297,1900-01-01 11:37:05.585,30.8,31.56,-1.38,0.51,0.5,0.67,-1.56,1.18,-0.38,-14.39,2.07,7.35,0.04,-0.25,0.98,-0.6,0.27,-1.41
298,1900-01-01 11:37:05.776,28.85,31.93,-1.45,0.51,0.47,0.68,-2.61,1.81,-0.8,-16.15,2.78,7.3,0.05,-0.28,0.98,-2.6,-0.11,-1.66
299,1900-01-01 11:37:05.776,29.21,32.88,-1.58,0.53,0.48,0.67,-0.98,0.9,-0.83,-14.42,2.82,7.2,0.05,-0.26,0.99,0.63,0.37,-0.89
300,1900-01-01 11:37:05.804,30.56,31.61,-1.71,0.51,0.49,0.66,-1.73,1.05,0.42,-14.6,1.26,7.22,0.02,-0.26,1.0,-2.13,-1.28,-1.4
301,1900-01-01 11:37:05.874,30.12,31.08,-1.66,0.5,0.49,0.67,-2.05,1.59,0.2,-14.84,2.1,7.17,0.04,-0.26,0.96,-2.17,-0.86,-1.37
302,1900-01-01 11:37:05.968,30.19,31.75,-1.64,0.52,0.5,0.68,-1.38,1.05,-0.56,-15.49,2.89,7.12,0.05,-0.27,0.98,-0.39,-0.67,-0.86
303,1900-01-01 11:37:06.074,29.48,33.8,-1.73,0.54,0.48,0.66,-0.21,0.42,0.63,-13.3,3.36,7.14,0.06,-0.24,1.01,1.43,0.36,-0.31
304,1900-01-01 11:37:06.101,31.5,30.33,-1.64,0.49,0.5,0.66,-1.37,0.95,0.65,-14.42,1.07,7.25,0.02,-0.25,0.96,-1.24,-1.27,-1.37
305,1900-01-01 11:37:06.186,30.2,31.93,-1.55,0.52,0.5,0.67,-0.63,0.98,-0.25,-15.14,2.62,7.2,0.05,-0.27,0.98,-0.1,-1.44,-1.08
306,1900-01-01 11:37:06.278,29.57,33.56,-1.6,0.55,0.49,0.66,-1.12,1.29,0.31,-13.46,2.82,7.2,0.05,-0.24,1.01,-0.69,-0.37,-0.54
307,1900-01-01 11:37:06.372,29.78,32.37,-1.56,0.52,0.49,0.67,-1.21,1.05,0.54,-15.01,3.02,7.27,0.05,-0.26,0.98,-0.39,-0.56,-0.88
308,1900-01-01 11:37:06.402,29.79,31.53,-1.49,0.51,0.48,0.67,-0.96,0.54,-0.58,-16.04,2.5,7.3,0.04,-0.28,0.98,-0.21,-1.12,-1.11
309,1900-01-01 11:37:06.486,30.24,31.47,-1.59,0.51,0.49,0.67,-0.14,1.05,-0.01,-15.15,2.28,7.28,0.04,-0.27,0.99,-0.05,-0.31,-0.46
310,1900-01-01 11:37:06.575,29.36,32.75,-1.6,0.54,0.49,0.68,-0.44,0.75,-0.43,-15.47,3.73,7.37,0.07,-0.28,0.99,-0.38,-1.23,-1.34
311,1900-01-01 11:37:06.662,30.61,31.79,-1.67,0.51,0.5,0.66,-1.66,1.35,0.57,-14.37,3.02,7.33,0.05,-0.25,0.98,-1.78,0.43,-1.0
312,1900-01-01 11:37:06.761,30.04,32.05,-1.59,0.52,0.49,0.67,-1.39,1.47,-0.81,-15.21,2.91,7.33,0.05,-0.27,0.97,-0.6,-0.15,-1.02
313,1900-01-01 11:37:06.797,30.51,32.57,-1.72,0.53,0.5,0.66,-1.53,1.28,0.02,-13.98,3.35,7.33,0.06,-0.25,0.99,-0.51,-0.14,-0.95
314,1900-01-01 11:37:06.858,30.37,31.85,-1.73,0.51,0.49,0.66,-1.68,1.55,-0.13,-14.88,2.55,7.35,0.04,-0.26,0.97,-1.19,-0.31,-1.0
315,1900-01-01 11:37:06.971,30.41,32.38,-1.76,0.53,0.5,0.66,-1.44,1.27,-0.02,-14.32,3.03,7.35,0.05,-0.25,0.98,-0.48,-0.23,-0.9
316,1900-01-01 11:37:07.054,30.48,32.21,-1.77,0.52,0.5,0.66,-1.47,1.47,0.02,-14.43,2.76,7.37,0.05,-0.25,0.98,-0.73,-0.21,-0.84
317,1900-01-01 11:37:07.088,30.34,32.26,-1.77,0.52,0.5,0.67,-1.22,1.11,0.09,-14.51,2.93,7.4,0.05,-0.25,0.98,-0.34,-0.2,-0.88
318,1900-01-01 11:37:07.169,30.29,31.97,-1.77,0.52,0.49,0.67,-1.27,1.34,-0.12,-14.84,2.58,7.43,0.05,-0.26,0.98,-0.58,-0.25,-0.79
319,1900-01-01 11:37:07.241,30.32,32.64,-1.8,0.53,0.5,0.66,-1.16,1.19,0.21,-14.0,3.12,7.47,0.06,-0.25,0.99,-0.24,-0.38,-0.76
320,1900-01-01 11:37:07.427,30.12,31.83,-1.77,0.51,0.49,0.67,-1.13,1.34,-0.11,-15.25,2.65,7.51,0.05,-0.27,0.97,-0.66,-0.36,-0.85
321,1900-01-01 11:37:07.427,30.48,32.7,-1.8,0.53,0.5,0.66,-1.11,1.27,0.21,-14.23,3.07,7.54,0.05,-0.25,0.99,-0.6,-0.41,-0.73
322,1900-01-01 11:37:07.498,30.15,32.13,-1.77,0.52,0.49,0.66,-1.36,1.34,0.34,-14.84,2.78,7.58,0.05,-0.26,0.98,-1.18,-0.24,-0.88
323,1900-01-01 11:37:07.545,30.39,32.3,-1.73,0.53,0.5,0.67,-1.02,1.36,0.13,-14.47,2.93,7.61,0.05,-0.25,0.98,-0.47,-0.37,-0.67
324,1900-01-01 11:37:07.640,30.4,32.14,-1.72,0.52,0.49,0.66,-1.17,1.45,0.05,-14.6,2.81,7.66,0.05,-0.26,0.98,-0.51,-0.34,-0.66
325,1900-01-01 11:37:07.687,30.5,32.46,-1.72,0.53,0.5,0.66,-1.03,1.24,0.18,-14.48,2.92,7.72,0.05,-0.25,0.98,-0.2,-0.49,-0.66
326,1900-01-01 11:37:07.780,30.23,32.25,-1.7,0.52,0.49,0.66,-1.25,1.38,0.19,-14.7,2.93,7.78,0.05,-0.26,0.98,-0.7,-0.43,-0.79
327,1900-01-01 11:37:07.875,30.26,32.48,-1.68,0.53,0.49,0.66,-1.16,1.4,0.17,-14.66,3.02,7.82,0.05,-0.26,0.98,-0.74,-0.33,-0.74
328,1900-01-01 11:37:07.921,30.48,32.26,-1.66,0.52,0.5,0.66,-1.55,1.68,-0.11,-14.71,2.94,7.86,0.05,-0.26,0.98,-1.27,-0.06,-0.93
329,1900-01-01 11:37:08.015,30.08,32.19,-1.69,0.52,0.48,0.66,-1.44,1.3,-0.15,-15.15,2.86,7.88,0.05,-0.26,0.98,-1.02,-0.08,-1.12
330,1900-01-01 11:37:08.098,30.01,32.14,-1.72,0.52,0.49,0.67,-0.86,0.92,0.07,-14.97,2.91,7.86,0.05,-0.26,0.98,0.05,-0.82,-0.82
331,1900-01-01 11:37:08.188,30.1,32.29,-1.72,0.52,0.49,0.67,-0.81,1.15,0.25,-14.73,3.17,7.9,0.06,-0.26,0.98,0.02,-0.66,-0.5
332,1900-01-01 11:37:08.249,30.86,31.92,-1.69,0.51,0.5,0.66,-0.71,1.04,0.11,-14.75,2.57,7.98,0.05,-0.26,0.98,0.08,-0.89,-0.56
333,1900-01-01 11:37:08.310,30.19,32.61,-1.68,0.53,0.5,0.67,-1.09,0.98,-0.35,-14.56,3.31,8.05,0.06,-0.26,0.98,-0.04,-0.67,-0.97
334,1900-01-01 11:37:08.412,30.53,32.47,-1.74,0.53,0.5,0.66,-1.17,1.0,0.18,-14.1,3.19,8.06,0.06,-0.25,0.99,-0.23,0.08,-0.84
335,1900-01-01 11:37:08.491,30.21,32.17,-1.72,0.52,0.49,0.66,-1.5,1.31,0.0,-14.84,2.75,8.09,0.05,-0.26,0.98,-0.9,-0.43,-0.99
336,1900-01-01 11:37:08.529,30.35,32.62,-1.73,0.53,0.5,0.66,-1.35,1.35,-0.13,-14.19,3.11,8.1,0.06,-0.25,0.98,-0.49,-0.21,-0.87
337,1900-01-01 11:37:08.623,30.32,32.49,-1.76,0.53,0.49,0.66,-1.55,1.37,-0.06,-14.48,3.0,8.12,0.05,-0.25,0.98,-0.91,-0.15,-1.03
338,1900-01-01 11:37:08.683,30.36,32.37,-1.78,0.52,0.49,0.66,-1.54,1.5,0.06,-14.35,3.0,8.12,0.05,-0.25,0.98,-0.98,-0.34,-0.98
339,1900-01-01 11:37:08.801,30.2,32.41,-1.78,0.52,0.49,0.66,-1.29,1.26,-0.07,-14.7,3.09,8.13,0.05,-0.26,0.98,-0.47,-0.14,-0.92
340,1900-01-01 11:37:08.883,30.25,32.41,-1.79,0.52,0.49,0.66,-1.55,1.47,0.02,-14.58,2.98,8.15,0.05,-0.26,0.98,-0.85,-0.28,-0.89
341,1900-01-01 11:37:08.912,30.19,31.99,-1.8,0.52,0.49,0.67,-1.36,1.11,-0.16,-14.94,2.89,8.17,0.05,-0.26,0.98,-0.59,-0.44,-1.08
342,1900-01-01 11:37:09.005,30.17,32.6,-1.83,0.53,0.49,0.66,-1.49,1.35,-0.05,-14.43,3.2,8.17,0.06,-0.25,0.98,-0.74,-0.29,-0.91
343,1900-01-01 11:37:09.091,30.18,32.18,-1.85,0.52,0.49,0.66,-1.4,1.27,0.0,-14.75,3.04,8.19,0.05,-0.26,0.98,-0.97,-0.32,-1.13
344,1900-01-01 11:37:09.176,30.26,32.36,-1.86,0.52,0.49,0.66,-1.28,1.31,-0.15,-14.65,3.04,8.17,0.05,-0.26,0.98,-0.51,-0.4,-0.88
345,1900-01-01 11:37:09.282,30.14,32.45,-1.89,0.52,0.49,0.66,-1.31,1.15,-0.03,-14.65,3.19,8.2,0.06,-0.26,0.98,-0.44,-0.48,-0.92
346,1900-01-01 11:37:09.324,30.42,32.36,-1.9,0.52,0.5,0.66,-1.24,1.23,-0.03,-14.35,3.09,8.21,0.05,-0.25,0.98,-0.28,-0.46,-0.8
347,1900-01-01 11:37:09.370,30.4,32.46,-1.91,0.53,0.5,0.66,-1.15,1.34,-0.24,-14.06,3.06,8.25,0.05,-0.25,0.98,-0.11,-0.54,-0.96
348,1900-01-01 11:37:09.465,30.54,32.21,-1.96,0.52,0.5,0.66,-0.93,1.39,-0.28,-14.5,3.16,8.26,0.06,-0.25,0.98,0.27,-0.8,-0.94
349,1900-01-01 11:37:09.559,30.55,32.15,-2.01,0.52,0.5,0.66,-1.11,1.45,-0.34,-14.28,3.16,8.27,0.06,-0.25,0.98,-0.02,-0.68,-0.96
350,1900-01-01 11:37:09.651,30.56,31.94,-2.07,0.52,0.5,0.66,-0.97,1.66,-0.6,-14.43,3.05,8.29,0.05,-0.25,0.98,-0.15,-1.31,-1.0
351,1900-01-01 11:37:09.694,30.36,32.48,-2.17,0.53,0.5,0.67,-1.13,1.44,-0.37,-14.23,3.72,8.29,0.07,-0.25,0.99,-0.01,-0.45,-0.86
352,1900-01-01 11:37:09.759,30.52,31.85,-2.24,0.51,0.49,0.66,-1.24,1.27,-0.21,-14.31,3.26,8.32,0.06,-0.25,0.98,-0.4,-0.31,-1.05
353,1900-01-01 11:37:09.861,30.5,32.28,-2.28,0.53,0.5,0.67,-1.21,1.43,-0.19,-13.88,3.6,8.31,0.06,-0.24,0.99,-0.69,-0.62,-0.96
354,1900-01-01 11:37:09.940,30.49,32.07,-2.31,0.52,0.5,0.66,-1.67,1.37,0.17,-14.27,3.45,8.33,0.06,-0.25,0.98,-1.27,0.18,-0.96
355,1900-01-01 11:37:09.975,30.49,31.95,-2.3,0.52,0.5,0.66,-1.65,1.64,-0.08,-14.31,3.39,8.34,0.06,-0.25,0.98,-1.51,-0.15,-0.92
356,1900-01-01 11:37:10.072,30.41,32.16,-2.32,0.52,0.49,0.66,-1.6,1.52,0.24,-14.51,3.59,8.36,0.06,-0.26,0.98,-1.52,-0.02,-0.85
357,1900-01-01 11:37:10.134,30.35,31.7,-2.29,0.51,0.49,0.67,-1.73,1.79,0.02,-14.91,3.23,8.38,0.06,-0.26,0.98,-1.77,-0.37,-0.98
358,1900-01-01 11:37:10.237,30.46,31.76,-2.29,0.51,0.5,0.67,-1.4,1.48,-0.2,-14.89,3.26,8.39,0.06,-0.26,0.98,-0.81,-0.47,-0.89
359,1900-01-01 11:37:10.302,30.3,31.83,-2.33,0.52,0.49,0.67,-1.62,1.56,0.34,-14.58,3.33,8.41,0.06,-0.26,0.98,-1.6,-0.21,-0.85
360,1900-01-01 11:37:10.436,30.29,31.9,-2.29,0.52,0.49,0.67,-1.49,1.37,0.3,-14.88,3.2,8.44,0.06,-0.26,0.98,-1.13,0.08,-0.74
361,1900-01-01 11:37:10.436,30.19,31.73,-2.25,0.51,0.49,0.67,-1.24,1.27,0.07,-15.27,3.26,8.49,0.06,-0.27,0.98,-0.79,-0.01,-0.72
362,1900-01-01 11:37:10.534,30.49,31.59,-2.25,0.51,0.5,0.67,-1.22,1.37,-0.05,-14.92,3.13,8.54,0.06,-0.26,0.98,-0.49,-0.27,-0.73
363,1900-01-01 11:37:10.652,30.42,31.94,-2.27,0.52,0.5,0.67,-1.24,1.27,-0.07,-14.79,3.3,8.58,0.06,-0.26,0.98,-0.44,-0.17,-0.85
364,1900-01-01 11:37:10.734,30.31,31.72,-2.29,0.51,0.49,0.67,-1.33,1.27,0.15,-15.15,3.18,8.61,0.06,-0.27,0.98,-0.65,-0.18,-0.82
365,1900-01-01 11:37:10.771,30.08,32.22,-2.27,0.52,0.49,0.67,-1.31,1.32,-0.05,-14.74,3.27,8.64,0.06,-0.26,0.98,-0.43,-0.16,-0.77
366,1900-01-01 11:37:10.848,30.23,31.84,-2.29,0.51,0.49,0.67,-1.36,1.13,0.11,-15.01,3.11,8.68,0.05,-0.26,0.98,-0.75,0.0,-0.78
367,1900-01-01 11:37:10.953,30.2,31.72,-2.28,0.51,0.49,0.67,-1.31,1.31,0.01,-15.32,3.05,8.72,0.05,-0.27,0.98,-0.92,-0.22,-0.94
368,1900-01-01 11:37:11.034,30.12,31.86,-2.29,0.52,0.49,0.67,-1.33,1.12,-0.07,-15.42,3.09,8.74,0.05,-0.27,0.98,-0.69,-0.34,-0.93
369,1900-01-01 11:37:11.063,30.13,31.82,-2.31,0.52,0.49,0.67,-1.4,1.26,-0.07,-15.23,3.17,8.75,0.06,-0.27,0.98,-0.69,-0.5,-0.92
370,1900-01-01 11:37:11.135,30.29,31.96,-2.33,0.52,0.49,0.67,-1.56,1.21,-0.06,-14.89,3.18,8.77,0.06,-0.26,0.98,-0.44,-0.32,-0.95
371,1900-01-01 11:37:11.240,30.14,31.89,-2.34,0.52,0.49,0.67,-1.62,1.27,0.05,-15.22,3.15,8.79,0.06,-0.27,0.98,-1.14,0.02,-0.87
372,1900-01-01 11:37:11.286,30.42,31.59,-2.34,0.52,0.5,0.67,-1.76,1.08,0.35,-14.98,2.9,8.81,0.05,-0.26,0.98,-1.52,0.67,-0.69
373,1900-01-01 11:37:11.380,30.05,31.73,-2.3,0.51,0.49,0.67,-1.47,1.2,-0.11,-15.51,2.88,8.87,0.05,-0.27,0.98,-0.81,0.07,-0.94
374,1900-01-01 11:37:11.452,29.92,31.96,-2.32,0.52,0.49,0.67,-1.55,1.37,-0.26,-15.29,2.94,8.88,0.05,-0.27,0.98,-0.53,-0.01,-0.95
375,1900-01-01 11:37:11.554,29.97,31.84,-2.37,0.52,0.49,0.67,-1.51,1.48,-0.05,-15.38,2.8,8.89,0.05,-0.27,0.98,-0.89,-0.57,-1.05
376,1900-01-01 11:37:11.725,30.28,32.03,-2.39,0.52,0.49,0.67,-1.17,1.26,0.08,-14.86,2.97,8.89,0.05,-0.26,0.98,-0.48,-0.39,-1.0
377,1900-01-01 11:37:11.725,30.05,31.4,-2.38,0.51,0.49,0.67,-1.18,1.34,-0.11,-15.82,2.61,8.9,0.05,-0.28,0.97,-0.88,-0.46,-1.13
378,1900-01-01 11:37:11.761,30.08,32.02,-2.41,0.52,0.49,0.67,-1.28,1.32,-0.23,-15.3,3.13,8.88,0.06,-0.27,0.98,-0.48,-0.05,-0.93
379,1900-01-01 11:37:11.830,30.16,31.78,-2.45,0.51,0.49,0.67,-1.4,1.32,0.09,-15.42,2.8,8.9,0.05,-0.27,0.98,-0.73,-0.05,-0.85
380,1900-01-01 11:37:11.925,30.03,31.8,-2.45,0.52,0.49,0.67,-1.32,1.14,-0.05,-15.22,2.7,8.93,0.05,-0.27,0.98,-0.5,-0.27,-0.89
381,1900-01-01 11:37:12.010,30.15,31.95,-2.46,0.52,0.49,0.67,-1.44,1.26,-0.04,-15.11,2.88,8.95,0.05,-0.26,0.98,-0.45,-0.36,-0.94
382,1900-01-01 11:37:12.083,30.07,31.71,-2.48,0.51,0.49,0.67,-1.39,1.38,0.02,-15.49,2.66,8.96,0.05,-0.27,0.97,-0.73,-0.37,-0.95
383,1900-01-01 11:37:12.128,29.86,31.73,-2.48,0.52,0.49,0.68,-1.41,1.48,-0.22,-15.44,2.96,8.98,0.05,-0.27,0.98,-0.54,-0.48,-0.92
384,1900-01-01 11:37:12.221,30.23,31.77,-2.53,0.51,0.49,0.67,-1.31,1.5,-0.08,-15.11,2.75,8.99,0.05,-0.26,0.98,-0.56,-0.37,-0.88
385,1900-01-01 11:37:12.311,30.23,31.55,-2.55,0.51,0.49,0.67,-1.06,1.51,-0.38,-15.52,2.72,9.02,0.05,-0.27,0.98,-0.29,-0.97,-1.08
386,1900-01-01 11:37:12.406,29.86,31.65,-2.61,0.51,0.49,0.68,-1.29,1.63,-0.49,-15.51,3.01,9.01,0.05,-0.27,0.98,-0.66,-0.63,-0.98
387,1900-01-01 11:37:12.434,30.06,31.69,-2.7,0.51,0.49,0.67,-1.26,1.63,0.04,-15.07,3.04,9.02,0.05,-0.26,0.98,-1.32,-0.1,-0.96
388,1900-01-01 11:37:12.498,30.07,31.44,-2.7,0.51,0.49,0.68,-1.25,1.49,-0.03,-15.39,3.01,9.03,0.05,-0.27,0.98,-0.56,-0.09,-0.88
389,1900-01-01 11:37:12.594,30.5,31.4,-2.71,0.51,0.5,0.67,-1.15,1.1,-0.2,-15.34,2.93,9.05,0.05,-0.27,0.98,-0.16,-0.06,-0.93
390,1900-01-01 11:37:12.713,29.87,31.46,-2.75,0.51,0.49,0.68,-1.4,1.53,-0.07,-15.44,2.97,9.07,0.05,-0.27,0.98,-0.94,-0.09,-1.05
391,1900-01-01 11:37:12.786,30.17,31.47,-2.77,0.51,0.49,0.67,-1.44,1.83,0.16,-15.51,3.02,9.07,0.05,-0.27,0.98,-1.3,-0.18,-0.77
392,1900-01-01 11:37:12.830,29.86,31.56,-2.75,0.51,0.49,0.68,-1.58,1.55,-0.23,-15.82,3.04,9.11,0.05,-0.28,0.98,-0.93,-0.34,-0.88
393,1900-01-01 11:37:12.897,30.07,31.67,-2.8,0.51,0.49,0.67,-1.48,1.56,0.22,-15.06,2.97,9.13,0.05,-0.26,0.98,-1.16,0.19,-0.94
394,1900-01-01 11:37:12.997,30.16,31.27,-2.77,0.51,0.49,0.68,-1.3,1.67,0.21,-15.83,2.69,9.15,0.05,-0.28,0.97,-1.59,0.14,-1.1
395,1900-01-01 11:37:13.079,29.78,31.24,-2.75,0.51,0.49,0.68,-1.73,1.82,-0.1,-16.16,2.76,9.14,0.05,-0.28,0.98,-1.48,0.12,-1.04
396,1900-01-01 11:37:13.112,30.17,30.94,-2.77,0.5,0.49,0.68,-1.35,1.69,-0.42,-16.06,2.54,9.14,0.04,-0.28,0.97,-0.6,-0.22,-0.92
397,1900-01-01 11:37:13.206,30.16,31.17,-2.84,0.51,0.49,0.68,-1.69,1.84,-0.66,-15.81,2.76,9.15,0.05,-0.28,0.97,-0.71,-0.44,-1.07
398,1900-01-01 11:37:13.285,30.17,31.01,-2.95,0.5,0.49,0.68,-1.88,2.09,-0.47,-15.74,2.76,9.15,0.05,-0.28,0.97,-1.26,-0.31,-1.18
399,1900-01-01 11:37:13.398,29.87,30.67,-3.03,0.5,0.49,0.69,-1.63,1.87,-0.71,-16.4,2.72,9.13,0.05,-0.29,0.97,-1.33,-0.51,-1.32
400,1900-01-01 11:37:13.492,29.71,31.29,-3.15,0.51,0.49,0.68,-1.77,1.34,0.11,-15.86,3.28,9.08,0.06,-0.28,0.98,-0.98,0.44,-1.05
401,1900-01-01 11:37:13.492,30.04,30.13,-3.14,0.49,0.49,0.68,-1.81,1.58,0.15,-16.59,2.25,9.08,0.04,-0.29,0.96,-1.57,0.11,-1.11
402,1900-01-01 11:37:13.578,29.64,30.42,-3.13,0.49,0.48,0.69,-1.34,1.22,0.01,-16.8,2.5,9.07,0.04,-0.29,0.97,-0.42,-0.82,-0.95
403,1900-01-01 11:37:13.673,29.84,30.91,-3.14,0.51,0.49,0.69,-1.74,1.59,0.06,-16.15,3.19,9.08,0.06,-0.29,0.98,-0.31,-0.66,-0.78
404,1900-01-01 11:37:13.759,30.2,30.8,-3.14,0.5,0.49,0.68,-2.6,1.89,0.27,-15.79,2.52,9.12,0.04,-0.27,0.97,-1.64,-0.31,-1.08
405,1900-01-01 11:37:13.850,29.89,30.7,-3.1,0.5,0.49,0.69,-2.83,1.51,-0.26,-16.19,2.77,9.12,0.05,-0.28,0.97,-2.12,-0.53,-1.8
406,1900-01-01 11:37:13.876,29.31,30.34,-3.15,0.49,0.48,0.69,-2.61,1.86,-0.76,-17.1,2.87,9.0,0.05,-0.3,0.97,-2.5,-0.58,-2.08
407,1900-01-01 11:37:13.949,29.33,30.01,-3.28,0.49,0.48,0.69,-2.27,2.27,-1.05,-17.04,2.87,8.84,0.05,-0.3,0.97,-2.19,-0.8,-1.79
408,1900-01-01 11:37:14.046,28.96,30.59,-3.44,0.49,0.47,0.69,-2.01,2.37,-0.57,-17.18,3.32,8.72,0.06,-0.3,0.97,-2.32,-1.23,-1.89
409,1900-01-01 11:37:14.161,28.81,30.23,-3.54,0.49,0.47,0.7,-2.37,2.3,0.27,-17.2,3.53,8.59,0.06,-0.3,0.97,-3.72,-1.37,-1.99
410,1900-01-01 11:37:14.241,28.64,29.68,-3.51,0.48,0.47,0.7,-1.73,1.57,0.17,-18.45,3.67,8.45,0.07,-0.32,0.96,-2.24,-1.66,-2.08
411,1900-01-01 11:37:14.283,28.73,29.6,-3.49,0.48,0.47,0.71,-1.18,0.98,-0.12,-18.55,3.8,8.29,0.07,-0.32,0.96,-0.63,-1.56,-1.57
412,1900-01-01 11:37:14.348,28.98,29.53,-3.52,0.48,0.48,0.71,-1.02,0.95,-0.05,-18.08,4.02,8.2,0.07,-0.32,0.96,0.11,-1.56,-1.26
413,1900-01-01 11:37:14.447,29.04,29.69,-3.53,0.48,0.47,0.7,-0.63,0.81,-0.08,-18.03,3.91,8.17,0.07,-0.31,0.96,0.84,-0.51,-0.79
414,1900-01-01 11:37:14.525,29.22,30.01,-3.55,0.49,0.48,0.7,-0.83,1.41,-0.37,-17.68,4.15,8.21,0.07,-0.31,0.97,-0.15,-0.73,-0.67
415,1900-01-01 11:37:14.562,29.57,30.17,-3.62,0.49,0.48,0.69,-0.95,0.94,-0.15,-17.25,4.26,8.26,0.08,-0.3,0.97,0.28,-0.27,-0.89
416,1900-01-01 11:37:14.656,29.4,29.78,-3.65,0.48,0.48,0.7,-0.87,1.0,-0.24,-17.74,4.12,8.29,0.07,-0.31,0.96,-0.53,-0.55,-1.16
417,1900-01-01 11:37:14.714,29.47,30.02,-3.7,0.49,0.48,0.7,-1.49,1.13,-0.13,-17.37,4.28,8.27,0.08,-0.3,0.97,-0.71,-0.02,-1.15
418,1900-01-01 11:37:14.811,29.35,29.52,-3.72,0.48,0.48,0.7,-1.86,1.72,-0.49,-17.92,4.1,8.25,0.07,-0.31,0.96,-0.99,0.22,-0.95
419,1900-01-01 11:37:14.910,29.17,30.09,-3.81,0.49,0.48,0.7,-1.37,1.29,-0.72,-17.7,4.14,8.26,0.07,-0.31,0.97,-0.24,0.04,-1.08
420,1900-01-01 11:37:14.999,29.16,30.05,-3.93,0.49,0.48,0.7,-1.51,1.26,-0.38,-17.47,4.29,8.26,0.08,-0.31,0.97,-0.31,0.09,-1.13
421,1900-01-01 11:37:15.026,29.26,29.56,-3.99,0.48,0.47,0.7,-1.5,1.45,0.11,-17.73,4.01,8.24,0.07,-0.31,0.96,-1.1,-0.18,-1.05
422,1900-01-01 11:37:15.097,29.18,29.74,-3.98,0.48,0.47,0.7,-1.03,0.9,-0.11,-17.82,3.99,8.24,0.07,-0.31,0.97,-0.22,-0.2,-0.95
423,1900-01-01 11:37:15.197,29.16,29.87,-4.01,0.49,0.48,0.7,-0.55,0.38,-0.02,-17.54,4.1,8.25,0.07,-0.31,0.97,0.64,-0.38,-0.85
424,1900-01-01 11:37:15.292,29.29,30.0,-4.02,0.49,0.48,0.7,-1.36,1.16,0.41,-17.03,4.17,8.28,0.07,-0.3,0.97,-0.08,-0.12,-0.52
425,1900-01-01 11:37:15.387,29.38,29.93,-3.97,0.48,0.48,0.69,-0.38,0.0,0.2,-17.95,4.02,8.36,0.07,-0.31,0.96,1.56,-0.47,-0.42
426,1900-01-01 11:37:15.415,29.84,29.73,-3.94,0.49,0.49,0.7,-0.73,0.91,-0.29,-16.53,3.69,8.46,0.07,-0.29,0.97,1.41,-0.39,-0.43
427,1900-01-01 11:37:15.481,29.84,30.48,-4.0,0.5,0.49,0.69,-1.39,1.47,-0.04,-16.13,3.95,8.55,0.07,-0.28,0.97,-0.28,0.25,-0.6
428,1900-01-01 11:37:15.580,29.89,29.87,-4.01,0.49,0.49,0.69,-1.81,1.78,-0.5,-16.83,3.72,8.62,0.07,-0.29,0.97,-1.81,0.36,-1.24
429,1900-01-01 11:37:15.693,29.24,30.29,-4.1,0.5,0.48,0.7,-1.63,0.95,-0.85,-17.18,4.19,8.59,0.07,-0.3,0.98,-0.66,0.8,-1.48
430,1900-01-01 11:37:15.770,29.35,30.3,-4.23,0.49,0.48,0.69,-2.51,1.5,0.05,-16.4,3.92,8.52,0.07,-0.29,0.97,-1.15,1.02,-1.15
431,1900-01-01 11:37:15.817,29.47,29.14,-4.23,0.47,0.48,0.7,-2.05,2.09,-0.25,-17.45,2.87,8.5,0.05,-0.3,0.96,-2.45,-0.09,-1.31
432,1900-01-01 11:37:15.872,29.16,30.15,-4.28,0.49,0.48,0.7,-1.72,1.81,-0.18,-17.35,3.67,8.46,0.07,-0.3,0.97,-2.05,-0.2,-1.17
433,1900-01-01 11:37:15.966,28.91,29.95,-4.32,0.49,0.47,0.7,-1.89,1.71,0.04,-17.63,3.76,8.44,0.07,-0.31,0.97,-1.86,-0.47,-1.3
434,1900-01-01 11:37:16.060,29.26,29.67,-4.32,0.48,0.47,0.7,-1.85,1.64,0.76,-17.49,3.45,8.4,0.06,-0.3,0.96,-2.5,-0.98,-1.27
435,1900-01-01 11:37:16.172,28.73,29.27,-4.21,0.48,0.47,0.71,-1.55,1.24,0.21,-18.81,3.82,8.36,0.07,-0.33,0.96,-1.77,-0.65,-1.28
436,1900-01-01 11:37:16.172,28.98,29.5,-4.19,0.48,0.47,0.7,-1.25,1.33,0.3,-18.23,3.41,8.33,0.06,-0.32,0.96,-0.56,0.18,-0.69
437,1900-01-01 11:37:16.326,28.78,29.67,-4.15,0.48,0.47,0.7,-0.48,0.88,-0.29,-18.52,3.58,8.38,0.06,-0.32,0.96,0.51,-0.27,-0.69
438,1900-01-01 11:37:16.326,29.17,30.28,-4.21,0.5,0.48,0.7,-0.88,0.78,0.11,-17.59,3.94,8.43,0.07,-0.31,0.97,0.88,-0.11,-0.57
439,1900-01-01 11:37:16.444,29.27,29.77,-4.2,0.48,0.47,0.7,-1.07,0.82,0.39,-17.53,3.32,8.5,0.06,-0.31,0.96,-0.09,-0.07,-0.77
440,1900-01-01 11:37:16.538,29.35,30.01,-4.15,0.49,0.48,0.7,-0.88,0.73,0.23,-17.32,3.46,8.54,0.06,-0.3,0.97,-0.57,-0.22,-1.05
441,1900-01-01 11:37:16.564,28.72,29.86,-4.12,0.49,0.47,0.7,-1.03,1.21,0.4,-17.82,3.51,8.54,0.06,-0.31,0.97,-0.73,-0.3,-0.63
442,1900-01-01 11:37:16.631,29.3,30.09,-4.07,0.49,0.48,0.7,-1.03,1.18,0.12,-17.96,3.5,8.61,0.06,-0.31,0.97,-0.18,-0.66,-0.6
443,1900-01-01 11:37:16.726,29.23,29.95,-4.06,0.49,0.48,0.7,-1.07,1.31,-0.26,-17.47,3.4,8.67,0.06,-0.3,0.96,-0.13,-0.37,-0.69
444,1900-01-01 11:37:16.830,29.31,30.18,-4.1,0.49,0.48,0.7,-0.93,1.34,-0.01,-17.5,3.63,8.72,0.06,-0.31,0.97,-0.61,-0.6,-0.86
445,1900-01-01 11:37:16.914,29.21,30.08,-4.11,0.49,0.48,0.7,-1.1,1.27,-0.08,-17.62,3.82,8.75,0.07,-0.31,0.97,-0.53,-0.24,-0.99
446,1900-01-01 11:37:16.938,29.28,30.0,-4.13,0.49,0.48,0.7,-1.47,1.18,0.06,-17.53,3.58,8.76,0.06,-0.31,0.97,-0.66,0.07,-0.97
447,1900-01-01 11:37:17.008,29.33,29.72,-4.13,0.48,0.48,0.7,-1.08,1.21,-0.2,-17.85,3.24,8.77,0.06,-0.31,0.96,-0.38,-0.05,-0.94
448,1900-01-01 11:37:17.105,29.04,30.35,-4.17,0.5,0.48,0.7,-1.31,1.21,-0.21,-17.74,3.83,8.78,0.07,-0.31,0.97,-0.28,-0.18,-0.76
449,1900-01-01 11:37:17.219,29.43,30.01,-4.21,0.49,0.48,0.69,-1.47,1.32,0.26,-17.17,3.35,8.82,0.06,-0.3,0.97,-0.59,-0.01,-0.67
450,1900-01-01 11:37:17.298,29.52,29.91,-4.18,0.49,0.48,0.7,-1.08,1.11,-0.12,-17.61,3.37,8.88,0.06,-0.31,0.97,-0.38,-0.45,-0.88
451,1900-01-01 11:37:17.324,29.29,29.9,-4.21,0.49,0.48,0.7,-1.35,1.47,-0.15,-17.52,3.23,8.9,0.06,-0.31,0.97,-0.88,-0.15,-0.95
452,1900-01-01 11:37:17.392,29.07,30.21,-4.24,0.49,0.47,0.7,-1.19,1.18,-0.62,-18.06,3.63,8.92,0.06,-0.32,0.97,-0.42,-0.19,-1.08
453,1900-01-01 11:37:17.489,29.32,30.14,-4.34,0.49,0.48,0.69,-1.42,1.18,-0.21,-17.17,3.44,8.91,0.06,-0.3,0.97,-0.53,0.05,-1.07
454,1900-01-01 11:37:17.600,29.24,29.88,-4.38,0.49,0.48,0.7,-0.96,1.11,-0.4,-17.81,3.37,8.91,0.06,-0.31,0.96,-0.76,-0.27,-1.23
455,1900-01-01 11:37:17.689,28.95,30.49,-4.45,0.5,0.48,0.7,-1.5,1.45,-0.17,-17.46,3.77,8.88,0.07,-0.31,0.97,-0.68,0.13,-0.91
456,1900-01-01 11:37:17.732,29.48,29.95,-4.49,0.48,0.48,0.69,-1.66,1.51,0.17,-17.58,3.4,8.9,0.06,-0.31,0.96,-1.18,0.02,-0.96
457,1900-01-01 11:37:17.783,28.93,29.8,-4.47,0.48,0.47,0.7,-1.39,1.47,-0.24,-18.28,3.45,8.91,0.06,-0.32,0.96,-0.99,-0.47,-1.05
458,1900-01-01 11:37:17.879,29.45,29.78,-4.51,0.48,0.48,0.7,-1.61,1.62,-0.02,-17.45,3.31,8.91,0.06,-0.3,0.97,-1.07,-0.21,-0.95
459,1900-01-01 11:37:17.965,28.99,29.82,-4.53,0.49,0.47,0.7,-1.43,1.31,-0.11,-18.0,3.5,8.92,0.06,-0.31,0.97,-0.59,-0.29,-0.91
460,1900-01-01 11:37:18.012,29.38,29.46,-4.55,0.48,0.48,0.7,-1.4,1.3,-0.02,-18.05,3.22,8.94,0.06,-0.31,0.96,-0.73,-0.21,-0.85
461,1900-01-01 11:37:18.106,29.18,29.87,-4.56,0.49,0.48,0.7,-1.19,1.36,-0.18,-17.88,3.24,8.96,0.06,-0.31,0.96,-0.66,-0.62,-0.92
462,1900-01-01 11:37:18.168,29.45,29.72,-4.6,0.48,0.48,0.7,-1.49,1.24,0.0,-17.63,3.33,8.98,0.06,-0.31,0.97,-0.56,-0.3,-0.89
463,1900-01-01 11:37:18.281,28.91,29.93,-4.61,0.49,0.47,0.7,-1.27,1.09,-0.13,-17.78,3.57,9.01,0.06,-0.31,0.97,-0.38,-0.11,-1.0
464,1900-01-01 11:37:18.357,29.32,29.42,-4.63,0.48,0.48,0.7,-1.24,1.27,-0.16,-18.15,3.27,9.01,0.06,-0.32,0.96,-0.62,-0.36,-0.89
465,1900-01-01 11:37:18.391,29.21,29.97,-4.67,0.49,0.48,0.7,-1.27,1.11,-0.5,-17.53,3.55,9.03,0.06,-0.31,0.97,0.01,-0.51,-1.0
466,1900-01-01 11:37:18.477,29.48,29.61,-4.75,0.48,0.48,0.7,-1.51,1.24,0.05,-17.45,3.22,9.04,0.06,-0.3,0.97,-0.75,-0.05,-0.94
467,1900-01-01 11:37:18.552,29.02,29.78,-4.75,0.48,0.47,0.7,-1.05,1.13,-0.11,-17.86,3.53,9.05,0.06,-0.31,0.97,-0.63,-0.52,-1.07
468,1900-01-01 11:37:18.656,29.3,29.75,-4.78,0.48,0.48,0.7,-1.28,1.23,0.05,-17.65,3.59,9.05,0.06,-0.31,0.97,-0.61,-0.08,-0.97
469,1900-01-01 11:37:18.727,29.3,29.71,-4.78,0.48,0.48,0.7,-1.11,1.29,-0.15,-17.82,3.36,9.06,0.06,-0.31,0.97,-0.81,-0.24,-0.95
470,1900-01-01 11:37:18.803,29.37,29.73,-4.81,0.48,0.48,0.7,-1.35,1.26,-0.11,-17.44,3.42,9.07,0.06,-0.3,0.96,-0.52,-0.05,-0.98
471,1900-01-01 11:37:18.849,29.26,29.64,-4.84,0.48,0.48,0.7,-1.08,1.3,-0.18,-18.06,3.42,9.08,0.06,-0.32,0.97,-0.21,-0.4,-0.85
472,1900-01-01 11:37:18.944,29.38,29.58,-4.87,0.48,0.48,0.7,-1.31,1.34,-0.11,-17.7,3.28,9.11,0.06,-0.31,0.97,-0.54,-0.33,-0.9
473,1900-01-01 11:37:19.021,29.33,29.64,-4.9,0.48,0.48,0.7,-1.22,1.32,0.02,-17.8,3.32,9.13,0.06,-0.31,0.97,-0.6,-0.33,-0.86
474,1900-01-01 11:37:19.119,29.22,29.57,-4.9,0.48,0.48,0.7,-1.21,1.21,-0.06,-17.81,3.43,9.15,0.06,-0.31,0.97,-0.43,-0.31,-0.89
475,1900-01-01 11:37:19.214,29.12,29.67,-4.92,0.48,0.47,0.7,-1.3,1.18,0.16,-17.99,3.33,9.18,0.06,-0.31,0.97,-0.8,-0.37,-0.92
476,1900-01-01 11:37:19.243,29.2,29.69,-4.91,0.49,0.48,0.7,-1.05,1.31,0.04,-17.77,3.46,9.2,0.06,-0.31,0.97,-0.54,-0.49,-0.76
477,1900-01-01 11:37:19.317,29.44,29.39,-4.91,0.48,0.48,0.7,-1.31,1.31,0.25,-17.86,3.23,9.24,0.06,-0.31,0.97,-0.89,-0.21,-0.86
478,1900-01-01 11:37:19.413,29.42,29.5,-4.88,0.48,0.48,0.7,-1.05,1.39,-0.06,-17.78,3.28,9.26,0.06,-0.31,0.97,-0.5,-0.5,-0.76
479,1900-01-01 11:37:19.496,29.33,29.74,-4.9,0.48,0.48,0.7,-1.37,1.44,0.29,-17.8,3.4,9.31,0.06,-0.31,0.97,-0.75,-0.11,-0.71
480,1900-01-01 11:37:19.550,29.25,29.75,-4.86,0.48,0.48,0.7,-1.22,1.39,0.01,-17.85,3.41,9.36,0.06,-0.31,0.97,-0.45,-0.6,-0.65
481,1900-01-01 11:37:19.643,29.36,29.8,-4.87,0.48,0.48,0.7,-1.35,1.32,0.24,-17.53,3.48,9.42,0.06,-0.31,0.97,-0.56,-0.21,-0.73
482,1900-01-01 11:37:19.692,29.1,29.57,-4.84,0.48,0.47,0.7,-1.33,1.4,0.01,-17.95,3.4,9.46,0.06,-0.31,0.97,-0.82,-0.41,-0.87
483,1900-01-01 11:37:19.782,29.28,29.69,-4.85,0.48,0.48,0.7,-1.59,1.59,0.08,-17.78,3.51,9.49,0.06,-0.31,0.96,-1.06,-0.15,-0.89
484,1900-01-01 11:37:19.879,29.08,29.85,-4.84,0.49,0.47,0.7,-1.44,1.5,0.05,-17.92,3.57,9.51,0.06,-0.31,0.97,-1.09,-0.31,-0.93
485,1900-01-01 11:37:19.923,29.16,29.59,-4.85,0.48,0.47,0.7,-1.55,1.3,0.12,-17.99,3.34,9.53,0.06,-0.31,0.96,-1.05,-0.26,-1.0
486,1900-01-01 11:37:20.015,28.91,29.57,-4.83,0.48,0.47,0.7,-1.33,1.24,-0.29,-18.34,3.36,9.53,0.06,-0.32,0.96,-0.6,-0.18,-0.97
487,1900-01-01 11:37:20.081,29.09,29.47,-4.89,0.48,0.47,0.7,-1.31,1.1,-0.06,-18.19,3.36,9.54,0.06,-0.32,0.96,-0.43,-0.15,-0.89
488,1900-01-01 11:37:20.185,29.16,29.7,-4.91,0.48,0.47,0.7,-1.08,1.06,-0.04,-17.81,3.43,9.57,0.06,-0.31,0.97,-0.08,-0.37,-0.79
489,1900-01-01 11:37:20.271,29.13,29.54,-4.92,0.48,0.47,0.7,-1.24,1.01,-0.18,-17.85,3.32,9.6,0.06,-0.31,0.96,-0.02,-0.31,-0.91
490,1900-01-01 11:37:20.298,28.97,29.65,-4.96,0.48,0.47,0.7,-1.24,1.17,-0.28,-17.97,3.41,9.62,0.06,-0.31,0.97,-0.4,-0.4,-0.87
491,1900-01-01 11:37:20.391,29.45,30.0,-5.01,0.49,0.48,0.69,-1.44,1.27,0.11,-17.33,3.47,9.65,0.06,-0.3,0.97,-0.69,-0.41,-0.9
492,1900-01-01 11:37:20.473,29.02,29.61,-5.0,0.48,0.47,0.71,-1.37,1.13,-0.21,-18.24,3.49,9.67,0.06,-0.32,0.97,-0.49,-0.27,-1.05
493,1900-01-01 11:37:20.579,29.42,29.42,-5.04,0.48,0.48,0.7,-1.56,1.54,-0.08,-17.48,3.41,9.67,0.06,-0.3,0.96,-1.02,-0.17,-1.04
494,1900-01-01 11:37:20.657,29.18,29.49,-5.06,0.48,0.47,0.7,-1.37,1.47,-0.24,-17.95,3.33,9.67,0.06,-0.31,0.96,-0.85,-0.27,-1.05
495,1900-01-01 11:37:20.691,29.29,29.53,-5.11,0.48,0.48,0.7,-1.4,1.5,-0.1,-17.75,3.33,9.67,0.06,-0.31,0.97,-0.86,-0.2,-0.89
496,1900-01-01 11:37:20.751,29.02,29.5,-5.13,0.48,0.47,0.7,-1.61,1.34,0.01,-18.12,3.39,9.69,0.06,-0.32,0.96,-0.88,-0.08,-0.97
497,1900-01-01 11:37:20.851,29.22,29.4,-5.14,0.48,0.48,0.7,-1.35,1.23,-0.11,-17.99,3.25,9.7,0.06,-0.31,0.96,-0.63,-0.22,-0.92
498,1900-01-01 11:37:20.966,29.18,29.31,-5.16,0.48,0.48,0.71,-1.31,1.23,-0.18,-18.07,3.23,9.72,0.06,-0.32,0.96,-0.26,-0.47,-0.77
499,1900-01-01 11:37:21.047,29.16,29.77,-5.2,0.49,0.48,0.7,-0.75,1.1,0.04,-17.7,3.32,9.76,0.06,-0.31,0.97,-0.23,-0.2,-0.81
500,1900-01-01 11:37:21.091,29.01,29.28,-5.2,0.47,0.47,0.7,-1.11,1.05,-0.03,-18.18,3.31,9.79,0.06,-0.32,0.96,-0.18,-0.25,-0.94
501,1900-01-01 11:37:21.142,29.08,29.45,-5.21,0.48,0.47,0.71,-0.95,1.18,-0.32,-18.04,3.27,9.81,0.06,-0.31,0.96,-0.11,-0.51,-0.79
502,1900-01-01 11:37:21.238,29.19,29.67,-5.27,0.48,0.48,0.7,-1.08,1.29,-0.2,-17.66,3.48,9.84,0.06,-0.31,0.97,-0.42,-0.4,-0.82
503,1900-01-01 11:37:21.337,29.4,29.4,-5.31,0.48,0.48,0.71,-1.31,1.31,-0.07,-17.71,3.38,9.88,0.06,-0.31,0.97,-0.43,-0.36,-0.83
504,1900-01-01 11:37:21.434,29.49,29.5,-5.33,0.48,0.48,0.7,-1.65,1.09,-0.15,-17.72,3.41,9.91,0.06,-0.31,0.97,0.03,0.06,-0.84
505,1900-01-01 11:37:21.463,29.23,29.28,-5.36,0.48,0.47,0.7,-1.31,1.45,-0.24,-17.79,3.15,9.94,0.06,-0.31,0.96,-0.53,-0.11,-0.91
506,1900-01-01 11:37:21.542,29.44,29.61,-5.41,0.48,0.48,0.7,-1.4,1.39,-0.05,-17.19,3.28,9.96,0.06,-0.3,0.97,-0.66,0.03,-0.88
507,1900-01-01 11:37:21.643,28.78,29.32,-5.42,0.47,0.47,0.7,-1.46,1.47,-0.12,-18.17,3.27,9.98,0.06,-0.32,0.96,-0.76,-0.1,-0.98
508,1900-01-01 11:37:21.739,29.21,29.32,-5.45,0.48,0.47,0.7,-1.37,1.5,-0.24,-17.73,3.23,9.99,0.06,-0.31,0.96,-1.04,-0.2,-0.95
509,1900-01-01 11:37:21.764,29.25,29.27,-5.49,0.48,0.48,0.71,-1.34,1.57,-0.23,-17.89,3.32,10.0,0.06,-0.31,0.97,-0.76,-0.4,-0.88
510,1900-01-01 11:37:21.839,29.11,29.45,-5.54,0.48,0.47,0.7,-1.73,1.37,0.63,-17.67,3.33,10.03,0.06,-0.31,0.97,-1.27,-0.01,-0.95
511,1900-01-01 11:37:21.902,29.14,28.93,-5.45,0.47,0.47,0.71,-0.89,1.55,0.18,-18.15,3.0,10.04,0.05,-0.32,0.96,-0.73,-0.38,-0.91
512,1900-01-01 11:37:21.997,29.11,29.11,-5.43,0.47,0.47,0.71,-1.08,1.24,0.1,-18.16,3.12,10.06,0.06,-0.32,0.97,-0.5,-0.36,-0.82
513,1900-01-01 11:37:22.091,29.07,29.19,-5.42,0.48,0.47,0.71,-1.18,1.39,0.21,-18.04,3.28,10.09,0.06,-0.32,0.97,-0.67,-0.4,-0.81
514,1900-01-01 11:37:22.183,28.95,29.29,-5.4,0.48,0.47,0.71,-1.21,1.63,0.21,-18.13,3.24,10.12,0.06,-0.32,0.96,-0.67,-0.31,-0.72
515,1900-01-01 11:37:22.212,29.18,29.1,-5.37,0.47,0.48,0.71,-1.34,1.32,0.01,-18.09,3.1,10.17,0.05,-0.32,0.96,-0.51,-0.66,-0.75
516,1900-01-01 11:37:22.306,29.27,29.45,-5.38,0.48,0.48,0.7,-1.1,1.09,0.06,-17.81,3.41,10.22,0.06,-0.31,0.97,-0.18,-0.37,-0.73
517,1900-01-01 11:37:22.380,29.27,29.19,-5.38,0.47,0.48,0.7,-1.35,1.24,0.11,-17.83,3.17,10.26,0.06,-0.31,0.96,-0.7,-0.27,-0.84
518,1900-01-01 11:37:22.486,29.18,29.32,-5.37,0.48,0.48,0.7,-1.03,1.5,0.02,-17.68,3.3,10.29,0.06,-0.31,0.97,-0.5,-0.38,-0.79
519,1900-01-01 11:37:22.557,29.14,29.24,-5.38,0.48,0.47,0.71,-1.39,1.41,0.06,-18.01,3.25,10.33,0.06,-0.31,0.96,-0.63,-0.25,-0.8
520,1900-01-01 11:37:22.585,29.19,29.09,-5.38,0.47,0.48,0.71,-1.42,1.16,-0.19,-17.96,3.14,10.37,0.06,-0.31,0.96,-0.52,-0.25,-0.88
521,1900-01-01 11:37:22.679,29.24,29.39,-5.41,0.48,0.48,0.7,-1.5,1.4,-0.01,-17.65,3.18,10.39,0.06,-0.31,0.97,-0.74,-0.06,-0.92
522,1900-01-01 11:37:22.740,28.94,29.15,-5.42,0.47,0.47,0.7,-1.21,1.21,-0.11,-18.38,3.12,10.41,0.06,-0.32,0.96,-0.75,-0.3,-1.02
523,1900-01-01 11:37:22.834,28.87,29.7,-5.45,0.49,0.47,0.71,-1.35,1.19,0.03,-17.8,3.56,10.41,0.06,-0.31,0.97,-0.65,-0.28,-0.96
524,1900-01-01 11:37:22.928,29.24,28.96,-5.45,0.47,0.47,0.7,-1.36,1.34,-0.1,-17.9,2.96,10.42,0.05,-0.31,0.96,-0.71,-0.31,-1.06
525,1900-01-01 11:37:23.008,28.97,29.49,-5.48,0.48,0.47,0.71,-1.26,1.25,-0.24,-18.05,3.47,10.42,0.06,-0.32,0.97,-0.37,-0.28,-0.91
526,1900-01-01 11:37:23.055,29.13,28.96,-5.52,0.47,0.47,0.71,-1.5,1.4,0.05,-18.22,3.1,10.44,0.05,-0.32,0.96,-0.94,-0.19,-0.96
527,1900-01-01 11:37:23.147,29.07,29.27,-5.52,0.48,0.47,0.71,-1.37,1.15,-0.09,-18.03,3.16,10.45,0.06,-0.31,0.97,-0.5,-0.17,-0.92
528,1900-01-01 11:37:23.205,29.05,29.35,-5.55,0.48,0.47,0.71,-1.5,1.22,-0.05,-18.04,3.23,10.47,0.06,-0.31,0.97,-0.7,-0.08,-1.03
529,1900-01-01 11:37:23.316,28.88,29.08,-5.56,0.47,0.47,0.71,-1.3,1.33,-0.11,-18.23,2.99,10.47,0.05,-0.32,0.96,-0.7,-0.26,-0.98
530,1900-01-01 11:37:23.394,29.13,29.32,-5.59,0.48,0.48,0.71,-1.46,1.27,0.09,-17.92,3.13,10.47,0.06,-0.31,0.97,-0.82,-0.17,-0.92
531,1900-01-01 11:37:23.474,29.02,29.04,-5.58,0.47,0.47,0.71,-1.35,1.26,-0.04,-18.31,3.01,10.49,0.05,-0.32,0.96,-0.7,-0.18,-0.93
532,1900-01-01 11:37:23.522,28.79,29.4,-5.6,0.48,0.47,0.71,-1.21,1.23,-0.18,-18.07,3.21,10.51,0.06,-0.32,0.96,-0.46,-0.24,-0.95
533,1900-01-01 11:37:23.615,28.77,29.24,-5.63,0.47,0.47,0.71,-1.3,1.21,-0.02,-18.27,3.05,10.52,0.05,-0.32,0.96,-0.73,-0.23,-1.01
534,1900-01-01 11:37:23.662,28.9,29.49,-5.64,0.48,0.47,0.71,-1.34,1.21,-0.03,-17.99,3.2,10.52,0.06,-0.31,0.97,-0.49,-0.11,-0.86
535,1900-01-01 11:37:23.756,29.09,29.04,-5.66,0.47,0.47,0.71,-1.2,1.16,-0.09,-18.22,2.87,10.55,0.05,-0.32,0.96,-0.56,-0.31,-1.02
536,1900-01-01 11:37:23.854,28.7,29.47,-5.68,0.48,0.47,0.71,-1.03,1.27,0.01,-18.21,3.25,10.55,0.06,-0.32,0.97,-0.53,-0.46,-0.9
537,1900-01-01 11:37:23.895,29.08,29.11,-5.69,0.48,0.48,0.71,-0.65,0.82,0.02,-18.28,3.17,10.57,0.06,-0.32,0.96,0.18,-0.95,-0.74
538,1900-01-01 11:37:23.987,29.51,29.13,-5.69,0.48,0.48,0.71,-1.4,1.35,0.02,-17.47,3.12,10.62,0.06,-0.3,0.97,-0.59,-0.18,-0.7
539,1900-01-01 11:37:24.052,28.9,29.41,-5.7,0.48,0.47,0.7,-1.4,1.67,-0.07,-17.86,3.03,10.67,0.05,-0.31,0.96,-1.11,0.02,-0.94
540,1900-01-01 11:37:24.146,28.95,29.67,-5.72,0.48,0.47,0.71,-0.85,0.84,0.37,-18.02,3.52,10.68,0.06,-0.32,0.97,-0.35,-0.92,-1.03
541,1900-01-01 11:37:24.236,28.95,28.98,-5.67,0.47,0.47,0.71,-1.63,1.39,0.5,-17.95,3.09,10.68,0.05,-0.31,0.96,-1.34,-0.47,-0.95
542,1900-01-01 11:37:24.321,29.29,29.15,-5.6,0.47,0.47,0.7,-0.83,1.21,-0.18,-18.08,2.98,10.7,0.05,-0.31,0.95,-0.48,-0.5,-0.93
543,1900-01-01 11:37:24.362,28.9,29.52,-5.64,0.49,0.48,0.71,-1.27,1.4,-0.08,-18.27,3.68,10.71,0.07,-0.32,0.97,-0.79,-0.33,-0.87
544,1900-01-01 11:37:24.458,29.09,29.62,-5.66,0.48,0.47,0.7,-1.64,1.51,0.57,-17.84,3.38,10.74,0.06,-0.31,0.97,-0.85,0.04,-0.63
545,1900-01-01 11:37:24.513,29.17,28.85,-5.58,0.47,0.47,0.71,-0.94,1.28,-0.06,-18.53,2.83,10.8,0.05,-0.32,0.96,-0.4,-0.44,-0.79
546,1900-01-01 11:37:24.608,29.05,29.46,-5.6,0.48,0.48,0.71,-1.17,1.31,-0.18,-18.15,3.34,10.84,0.06,-0.32,0.97,-0.31,-0.13,-0.85
547,1900-01-01 11:37:24.691,28.88,29.37,-5.63,0.48,0.47,0.7,-1.13,1.4,0.3,-18.23,3.19,10.86,0.06,-0.32,0.96,-0.91,-0.45,-0.81
548,1900-01-01 11:37:24.797,29.0,29.24,-5.6,0.48,0.47,0.71,-0.93,1.11,0.21,-18.3,3.24,10.9,0.06,-0.32,0.96,-0.21,-0.73,-0.76
549,1900-01-01 11:37:24.829,29.11,29.32,-5.57,0.48,0.47,0.71,-1.17,1.36,0.1,-18.2,3.16,10.94,0.06,-0.32,0.96,-0.34,-0.38,-0.62
550,1900-01-01 11:37:24.902,29.3,29.45,-5.56,0.48,0.48,0.7,-1.12,1.14,-0.13,-17.99,3.29,11.0,0.06,-0.31,0.96,-0.18,-0.34,-0.83
551,1900-01-01 11:37:25.001,28.96,29.62,-5.59,0.48,0.47,0.7,-1.22,1.27,0.19,-17.92,3.46,11.04,0.06,-0.31,0.97,-0.56,-0.27,-0.86
552,1900-01-01 11:37:25.075,29.29,29.16,-5.57,0.47,0.48,0.7,-1.34,1.24,0.17,-18.18,3.14,11.06,0.06,-0.32,0.96,-0.7,-0.39,-0.87
553,1900-01-01 11:37:25.112,29.08,29.43,-5.56,0.48,0.47,0.7,-1.18,1.25,-0.02,-18.04,3.26,11.09,0.06,-0.31,0.96,-0.71,-0.27,-0.98
554,1900-01-01 11:37:25.204,28.97,29.74,-5.57,0.48,0.47,0.7,-1.71,1.38,-0.15,-18.1,3.38,11.1,0.06,-0.32,0.97,-0.95,0.07,-1.08
555,1900-01-01 11:37:25.297,28.92,29.4,-5.6,0.48,0.47,0.7,-1.6,1.44,-0.08,-18.15,3.23,11.09,0.06,-0.32,0.96,-1.09,-0.11,-1.06
556,1900-01-01 11:37:25.366,28.97,29.65,-5.62,0.48,0.47,0.71,-1.59,1.35,-0.24,-18.07,3.35,11.08,0.06,-0.32,0.97,-0.84,-0.14,-1.08
557,1900-01-01 11:37:25.444,28.98,28.98,-5.67,0.47,0.47,0.71,-1.5,1.44,-0.21,-18.45,2.99,11.08,0.05,-0.32,0.96,-0.82,-0.01,-1.08
558,1900-01-01 11:37:25.550,28.87,29.4,-5.71,0.48,0.47,0.71,-1.48,1.35,-0.21,-18.28,3.35,11.07,0.06,-0.32,0.97,-0.69,-0.18,-1.02
559,1900-01-01 11:37:25.626,28.81,29.14,-5.75,0.47,0.47,0.71,-1.44,1.44,-0.05,-18.34,3.01,11.07,0.05,-0.32,0.96,-0.84,-0.25,-0.96
560,1900-01-01 11:37:25.672,28.8,29.46,-5.76,0.48,0.47,0.71,-1.16,1.22,-0.15,-18.38,3.3,11.08,0.06,-0.32,0.96,-0.3,-0.36,-0.87
561,1900-01-01 11:37:25.767,28.91,29.42,-5.79,0.48,0.47,0.71,-1.4,1.23,-0.08,-18.15,3.19,11.11,0.06,-0.32,0.97,-0.5,-0.19,-0.95
562,1900-01-01 11:37:25.814,28.96,29.22,-5.82,0.48,0.47,0.71,-1.21,1.2,0.03,-18.19,3.07,11.12,0.05,-0.32,0.96,-0.6,-0.27,-0.92
563,1900-01-01 11:37:25.908,28.9,29.41,-5.82,0.48,0.47,0.71,-1.29,1.26,0.07,-18.23,3.12,11.14,0.06,-0.32,0.96,-0.59,-0.34,-0.84
564,1900-01-01 11:37:25.992,28.96,29.31,-5.82,0.48,0.47,0.71,-1.29,1.22,0.05,-18.3,3.15,11.17,0.06,-0.32,0.96,-0.47,-0.3,-0.83
565,1900-01-01 11:37:26.078,28.95,29.45,-5.82,0.48,0.47,0.71,-1.35,1.13,0.05,-18.28,3.13,11.2,0.06,-0.32,0.96,-0.56,-0.18,-0.89
566,1900-01-01 11:37:26.140,28.99,29.29,-5.82,0.48,0.47,0.71,-1.32,1.19,0.04,-18.26,3.06,11.22,0.05,-0.32,0.96,-0.69,-0.23,-0.91
567,1900-01-01 11:37:26.187,28.86,29.57,-5.82,0.48,0.47,0.71,-1.09,1.18,-0.11,-18.25,3.14,11.24,0.06,-0.32,0.96,-0.34,-0.4,-0.85
568,1900-01-01 11:37:26.279,29.01,29.37,-5.85,0.48,0.47,0.71,-1.21,1.11,0.14,-18.15,3.19,11.27,0.06,-0.32,0.97,-0.49,-0.28,-0.95
569,1900-01-01 11:37:26.373,29.02,29.06,-5.83,0.48,0.47,0.71,-1.17,1.21,-0.15,-18.46,3.05,11.28,0.05,-0.32,0.96,-0.47,-0.53,-0.83
570,1900-01-01 11:37:26.419,29.06,29.41,-5.87,0.48,0.48,0.71,-1.59,1.15,-0.23,-18.06,3.3,11.31,0.06,-0.32,0.97,-0.37,0.05,-0.9
571,1900-01-01 11:37:26.513,29.29,29.47,-5.91,0.49,0.48,0.71,-1.79,1.05,-0.92,-17.97,3.3,11.33,0.06,-0.31,0.97,0.95,0.89,-0.89
572,1900-01-01 11:37:26.638,29.03,28.8,-6.06,0.46,0.47,0.7,-1.89,1.68,-0.72,-17.86,2.22,11.35,0.04,-0.31,0.96,-1.05,0.58,-1.24
573,1900-01-01 11:37:26.666,28.42,29.42,-6.18,0.48,0.46,0.71,-0.63,0.86,-0.18,-18.39,3.15,11.32,0.06,-0.32,0.97,-0.46,-0.71,-1.19
574,1900-01-01 11:37:26.727,29.14,29.41,-6.21,0.48,0.48,0.71,-1.56,1.53,0.33,-17.55,3.14,11.3,0.06,-0.31,0.97,-0.92,-0.15,-0.78
575,1900-01-01 11:37:26.820,28.82,28.77,-6.17,0.46,0.46,0.71,-1.53,1.59,0.18,-18.51,2.49,11.34,0.04,-0.32,0.96,-1.56,-0.06,-0.82
576,1900-01-01 11:37:26.933,28.77,29.5,-6.15,0.48,0.47,0.71,-0.9,1.08,-0.43,-18.18,2.99,11.37,0.05,-0.32,0.97,-0.3,-0.5,-1.08
577,1900-01-01 11:37:27.006,28.89,29.4,-6.23,0.48,0.47,0.71,-1.17,1.08,0.28,-18.24,3.23,11.36,0.06,-0.32,0.97,-0.44,-0.41,-0.84
578,1900-01-01 11:37:27.033,29.29,28.89,-6.19,0.47,0.47,0.7,-0.94,1.12,0.3,-18.05,2.66,11.39,0.05,-0.31,0.96,-0.51,-0.77,-0.85
579,1900-01-01 11:37:27.119,29.13,29.46,-6.15,0.48,0.48,0.71,-0.88,1.2,-0.16,-18.04,3.02,11.42,0.05,-0.32,0.97,-0.4,-0.55,-0.89
580,1900-01-01 11:37:27.186,29.06,29.36,-6.19,0.48,0.47,0.7,-1.4,1.14,0.11,-18.12,3.1,11.44,0.06,-0.32,0.97,-0.51,-0.13,-0.95
581,1900-01-01 11:37:27.283,29.11,29.34,-6.18,0.48,0.48,0.71,-1.24,1.15,0.04,-18.1,2.96,11.45,0.05,-0.32,0.96,-0.63,-0.44,-0.95
582,1900-01-01 11:37:27.390,28.94,29.31,-6.18,0.48,0.47,0.7,-1.41,1.3,0.21,-17.98,2.89,11.47,0.05,-0.31,0.96,-1.04,-0.16,-0.99
583,1900-01-01 11:37:27.456,28.97,29.37,-6.16,0.48,0.47,0.71,-1.13,1.27,0.02,-18.14,2.96,11.47,0.05,-0.32,0.96,-0.94,-0.43,-1.02
584,1900-01-01 11:37:27.490,29.1,29.35,-6.16,0.48,0.47,0.71,-1.29,1.24,0.11,-17.9,3.01,11.47,0.05,-0.31,0.97,-0.66,-0.15,-0.98
585,1900-01-01 11:37:27.583,28.83,29.24,-6.16,0.47,0.47,0.71,-1.18,1.56,-0.11,-18.5,2.83,11.48,0.05,-0.32,0.96,-0.97,-0.34,-0.85
586,1900-01-01 11:37:27.641,28.89,29.53,-6.18,0.48,0.47,0.71,-0.99,1.4,0.14,-18.48,3.2,11.51,0.06,-0.32,0.96,-0.87,-0.62,-0.7
587,1900-01-01 11:37:27.738,29.04,29.69,-6.17,0.48,0.47,0.7,-0.98,1.24,0.66,-17.94,3.28,11.56,0.06,-0.31,0.97,-0.54,-0.58,-0.61
588,1900-01-01 11:37:27.829,29.2,29.22,-6.08,0.47,0.47,0.7,-1.34,1.36,0.5,-17.97,2.67,11.62,0.05,-0.31,0.96,-1.05,-0.7,-0.79
589,1900-01-01 11:37:27.918,29.23,29.38,-6.01,0.48,0.48,0.7,-0.64,1.02,0.39,-18.44,3.08,11.66,0.05,-0.32,0.96,-0.43,-0.63,-0.7
590,1900-01-01 11:37:27.956,29.15,29.45,-5.96,0.48,0.48,0.7,-1.05,1.18,0.5,-18.2,3.16,11.71,0.06,-0.32,0.96,-1.04,-0.71,-0.85
591,1900-01-01 11:37:28.050,28.96,29.67,-5.89,0.48,0.47,0.7,-0.91,1.38,0.5,-18.34,3.27,11.74,0.06,-0.32,0.96,-0.79,-0.6,-0.7
592,1900-01-01 11:37:28.109,29.19,29.36,-5.82,0.48,0.47,0.7,-0.46,1.1,0.19,-18.75,3.11,11.79,0.05,-0.33,0.96,-0.53,-0.81,-0.8
593,1900-01-01 11:37:28.211,28.97,29.83,-5.8,0.49,0.48,0.71,-0.73,1.13,0.14,-18.52,3.57,11.83,0.06,-0.32,0.97,-0.37,-0.49,-0.79
594,1900-01-01 11:37:28.286,29.21,29.62,-5.79,0.48,0.47,0.7,-1.15,1.26,0.53,-18.4,3.33,11.86,0.06,-0.32,0.96,-0.85,-0.27,-0.67
595,1900-01-01 11:37:28.330,29.13,29.6,-5.71,0.48,0.47,0.7,-1.0,1.19,0.22,-18.5,3.25,11.92,0.06,-0.32,0.96,-0.55,-0.53,-0.69
596,1900-01-01 11:37:28.423,29.35,29.86,-5.69,0.49,0.48,0.7,-1.26,1.18,0.02,-18.31,3.42,11.97,0.06,-0.32,0.97,-0.45,-0.29,-0.82
597,1900-01-01 11:37:28.516,29.09,29.52,-5.69,0.48,0.47,0.7,-1.4,1.47,0.1,-18.39,3.25,12.0,0.06,-0.32,0.96,-1.03,-0.27,-0.92
598,1900-01-01 11:37:28.563,29.2,29.84,-5.69,0.49,0.48,0.7,-1.35,1.37,-0.06,-18.31,3.39,12.02,0.06,-0.32,0.96,-0.74,-0.21,-0.95
599,1900-01-01 11:37:28.656,29.16,29.49,-5.7,0.48,0.47,0.7,-1.6,1.47,0.0,-18.76,3.41,12.03,0.06,-0.33,0.96,-1.31,-0.25,-1.11
600,1900-01-01 11:37:28.749,29.03,29.55,-5.71,0.48,0.47,0.71,-1.53,1.53,-0.12,-18.47,3.33,12.02,0.06,-0.32,0.96,-1.11,-0.15,-1.14
601,1900-01-01 11:37:28.796,29.05,29.56,-5.74,0.48,0.47,0.7,-1.5,1.56,-0.15,-18.67,3.31,12.01,0.06,-0.33,0.96,-0.99,0.0,-1.24
602,1900-01-01 11:37:28.890,29.23,29.49,-5.77,0.48,0.48,0.7,-1.79,1.63,-0.02,-18.78,3.34,11.98,0.06,-0.33,0.96,-1.55,-0.08,-1.08
603,1900-01-01 11:37:29.015,29.01,29.32,-5.78,0.48,0.47,0.71,-1.57,1.5,-0.24,-18.97,2.98,11.97,0.05,-0.33,0.96,-1.16,-0.22,-1.15
604,1900-01-01 11:37:29.015,28.88,29.62,-5.83,0.48,0.47,0.71,-1.64,1.47,-0.12,-18.95,3.31,11.95,0.06,-0.33,0.96,-1.16,0.01,-1.08
605,1900-01-01 11:37:29.104,28.84,29.36,-5.85,0.48,0.47,0.71,-1.81,1.32,0.08,-19.12,3.04,11.94,0.05,-0.33,0.96,-0.98,0.14,-1.06
606,1900-01-01 11:37:29.211,28.89,29.17,-5.85,0.47,0.47,0.71,-1.62,1.4,-0.05,-19.45,2.99,11.94,0.05,-0.34,0.95,-0.84,-0.07,-0.98
607,1900-01-01 11:37:29.288,28.79,29.45,-5.87,0.48,0.47,0.71,-1.42,1.34,0.02,-19.07,3.19,11.95,0.06,-0.33,0.96,-0.84,-0.34,-0.98
608,1900-01-01 11:37:29.356,28.86,29.13,-5.87,0.47,0.47,0.71,-1.19,1.37,0.04,-19.3,3.01,11.96,0.05,-0.34,0.96,-0.79,-0.42,-0.97
609,1900-01-01 11:37:29.402,28.5,29.44,-5.87,0.48,0.47,0.71,-1.27,1.31,-0.13,-19.58,3.24,11.97,0.06,-0.34,0.96,-0.58,-0.44,-0.87
610,1900-01-01 11:37:29.496,28.7,29.41,-5.9,0.48,0.47,0.71,-1.35,1.37,-0.04,-19.3,3.02,11.99,0.05,-0.34,0.96,-0.58,-0.21,-0.83
611,1900-01-01 11:37:29.589,28.85,29.16,-5.92,0.48,0.47,0.71,-1.15,1.05,0.01,-19.39,3.18,12.02,0.06,-0.34,0.96,-0.36,-0.31,-0.92
612,1900-01-01 11:37:29.637,28.73,29.43,-5.92,0.48,0.47,0.71,-1.27,1.24,-0.07,-19.21,3.23,12.04,0.06,-0.33,0.96,-0.55,-0.28,-0.9
613,1900-01-01 11:37:29.730,28.77,29.33,-5.94,0.48,0.47,0.71,-1.45,1.28,-0.08,-19.08,3.05,12.06,0.05,-0.33,0.96,-0.62,-0.12,-0.92
614,1900-01-01 11:37:29.827,28.78,29.47,-5.96,0.48,0.47,0.71,-1.3,1.26,-0.08,-19.31,3.28,12.08,0.06,-0.34,0.96,-0.58,-0.18,-0.92
615,1900-01-01 11:37:29.870,28.72,29.18,-5.98,0.47,0.47,0.71,-1.28,1.36,-0.03,-19.33,3.07,12.09,0.05,-0.34,0.95,-0.77,-0.38,-0.93
616,1900-01-01 11:37:29.965,28.92,29.31,-6.0,0.48,0.47,0.71,-1.24,1.26,-0.09,-19.1,3.13,12.11,0.06,-0.33,0.96,-0.44,-0.4,-0.88
617,1900-01-01 11:37:30.059,28.83,29.4,-6.02,0.48,0.47,0.71,-1.44,1.36,0.06,-18.99,3.15,12.13,0.06,-0.33,0.96,-0.73,-0.31,-0.93
618,1900-01-01 11:37:30.106,28.96,29.15,-6.02,0.48,0.47,0.71,-1.29,1.35,0.03,-19.26,3.03,12.15,0.05,-0.33,0.96,-0.83,-0.4,-0.95
619,1900-01-01 11:37:30.200,28.84,29.34,-6.02,0.48,0.47,0.71,-1.51,1.36,0.01,-19.16,3.08,12.16,0.05,-0.33,0.96,-0.69,-0.13,-0.89
620,1900-01-01 11:37:30.248,28.68,29.31,-6.03,0.48,0.47,0.71,-1.51,1.31,0.0,-19.38,2.99,12.18,0.05,-0.34,0.96,-0.83,-0.08,-0.89
621,1900-01-01 11:37:30.341,28.57,29.36,-6.04,0.48,0.47,0.71,-1.28,1.46,0.16,-19.12,3.11,12.21,0.05,-0.33,0.96,-0.92,-0.25,-0.89
622,1900-01-01 11:37:30.434,28.53,29.27,-6.02,0.48,0.46,0.71,-0.89,1.22,0.11,-19.73,3.13,12.23,0.06,-0.34,0.96,-0.48,-0.65,-0.77
623,1900-01-01 11:37:30.481,28.9,29.33,-6.01,0.48,0.47,0.71,-1.07,1.05,0.29,-19.26,3.15,12.27,0.06,-0.34,0.96,-0.11,-0.39,-0.68
624,1900-01-01 11:37:30.573,28.98,29.36,-5.98,0.48,0.47,0.71,-1.66,1.42,0.06,-19.11,2.98,12.32,0.05,-0.33,0.96,-0.82,0.2,-0.81
625,1900-01-01 11:37:30.676,28.33,29.27,-5.98,0.47,0.46,0.71,-1.24,1.38,-0.18,-19.73,2.99,12.36,0.05,-0.34,0.95,-1.06,-0.11,-1.07
626,1900-01-01 11:37:30.716,28.44,29.7,-6.01,0.49,0.47,0.71,-1.11,1.25,0.08,-19.42,3.38,12.35,0.06,-0.34,0.96,-0.29,-0.47,-0.73
627,1900-01-01 11:37:30.811,28.93,29.18,-6.01,0.47,0.47,0.71,-1.32,1.38,0.36,-19.24,2.94,12.4,0.05,-0.33,0.96,-0.47,-0.49,-0.66
628,1900-01-01 11:37:30.884,28.9,29.2,-5.96,0.48,0.47,0.71,-1.16,1.38,-0.13,-19.18,2.84,12.46,0.05,-0.33,0.95,-0.63,-0.5,-0.85
629,1900-01-01 11:37:30.963,28.67,29.48,-5.99,0.48,0.47,0.71,-1.33,1.48,-0.21,-19.3,3.14,12.48,0.06,-0.34,0.96,-0.74,-0.1,-0.93
630,1900-01-01 11:37:31.062,28.4,29.29,-6.03,0.47,0.46,0.71,-1.33,1.49,0.17,-19.49,3.08,12.5,0.05,-0.34,0.95,-0.91,-0.38,-0.89
631,1900-01-01 11:37:31.090,28.88,29.14,-6.02,0.48,0.47,0.71,-1.01,0.88,0.01,-19.65,3.05,12.52,0.05,-0.34,0.96,0.06,-0.73,-0.85
632,1900-01-01 11:37:31.182,28.86,29.16,-6.02,0.47,0.47,0.71,-1.4,1.35,-0.04,-19.15,2.99,12.55,0.05,-0.33,0.96,-0.78,-0.25,-0.89
633,1900-01-01 11:37:31.247,28.71,29.52,-6.04,0.48,0.47,0.71,-1.19,1.21,-0.52,-19.24,3.05,12.57,0.05,-0.33,0.96,-0.4,-0.23,-1.05
634,1900-01-01 11:37:31.362,28.65,29.42,-6.13,0.48,0.47,0.71,-1.38,1.19,-0.19,-19.13,3.12,12.57,0.06,-0.33,0.96,-0.44,-0.01,-1.05
635,1900-01-01 11:37:31.438,28.63,29.07,-6.16,0.47,0.47,0.71,-1.24,1.3,0.1,-19.57,2.91,12.57,0.05,-0.34,0.95,-0.64,-0.5,-0.9
636,1900-01-01 11:37:31.469,29.09,29.16,-6.16,0.48,0.48,0.71,-1.25,1.22,0.03,-19.11,2.99,12.59,0.05,-0.33,0.96,-0.21,-0.49,-0.79
637,1900-01-01 11:37:31.557,29.05,29.31,-6.16,0.48,0.47,0.71,-1.91,1.4,-0.08,-19.06,2.81,12.63,0.05,-0.33,0.96,-0.87,0.35,-0.94
638,1900-01-01 11:37:31.621,28.8,29.01,-6.18,0.47,0.47,0.71,-1.51,1.38,-0.48,-19.42,2.78,12.64,0.05,-0.34,0.96,-0.92,-0.26,-1.29
639,1900-01-01 11:37:31.712,27.61,29.43,-6.26,0.47,0.44,0.7,-0.91,1.15,0.53,-20.02,3.0,12.6,0.05,-0.35,0.95,-1.15,-0.83,-0.99
640,1900-01-01 11:37:31.819,28.93,29.66,-6.19,0.5,0.49,0.72,-0.83,0.74,0.82,-18.98,3.61,12.61,0.06,-0.34,0.97,0.33,-1.38,-0.48
641,1900-01-01 11:37:31.895,29.46,28.91,-6.07,0.47,0.48,0.7,-2.2,1.99,0.68,-19.19,2.68,12.69,0.05,-0.33,0.95,-0.89,-0.26,-0.18
642,1900-01-01 11:37:31.930,29.45,28.93,-5.98,0.47,0.48,0.7,-0.88,1.11,-0.79,-19.66,2.37,12.82,0.04,-0.34,0.94,-1.26,-0.27,-1.42
643,1900-01-01 11:37:32.022,27.69,30.25,-6.11,0.5,0.46,0.72,-1.08,1.13,-0.08,-19.53,3.79,12.76,0.07,-0.34,0.97,-1.31,-0.07,-1.44
644,1900-01-01 11:37:32.116,28.14,29.57,-6.13,0.48,0.46,0.71,-1.21,0.79,1.05,-19.64,3.35,12.7,0.06,-0.34,0.96,-0.17,-0.69,-0.6
645,1900-01-01 11:37:32.168,28.44,29.16,-5.97,0.47,0.46,0.71,-0.9,0.98,0.82,-19.7,3.05,12.77,0.05,-0.34,0.95,-0.3,-0.75,-0.36
646,1900-01-01 11:37:32.258,29.47,29.52,-5.86,0.48,0.48,0.7,-1.51,1.63,-0.24,-19.05,2.98,12.87,0.05,-0.33,0.96,-0.69,0.37,-0.64
647,1900-01-01 11:37:32.347,28.38,29.71,-5.9,0.48,0.46,0.7,-1.02,1.11,-0.76,-19.39,2.88,12.93,0.05,-0.33,0.95,-0.98,0.81,-1.45
648,1900-01-01 11:37:32.441,28.08,30.03,-6.03,0.49,0.47,0.72,-0.44,0.52,-0.08,-19.79,3.78,12.87,0.07,-0.35,0.97,0.11,-0.81,-1.08
649,1900-01-01 11:37:32.488,28.91,29.35,-6.05,0.48,0.47,0.71,-1.76,1.27,0.4,-18.86,2.85,12.86,0.05,-0.33,0.96,-0.34,-0.15,-0.74
650,1900-01-01 11:37:32.623,28.95,29.34,-6.0,0.48,0.47,0.71,-1.38,1.62,-0.28,-19.57,2.73,12.91,0.05,-0.34,0.95,-1.12,-0.07,-0.84
651,1900-01-01 11:37:32.623,28.49,30.07,-6.05,0.49,0.46,0.7,-1.5,1.47,-0.3,-18.89,3.32,12.93,0.06,-0.33,0.96,-0.73,0.36,-1.1
652,1900-01-01 11:37:32.713,28.5,29.51,-6.1,0.48,0.46,0.7,-0.5,0.92,0.21,-19.88,3.07,12.93,0.05,-0.35,0.95,-0.08,-1.08,-0.92
653,1900-01-01 11:37:32.803,28.86,29.52,-6.08,0.48,0.47,0.71,-1.17,1.11,0.03,-19.08,3.27,12.94,0.06,-0.33,0.96,0.05,-0.56,-0.8
654,1900-01-01 11:37:32.859,29.13,29.14,-6.08,0.47,0.47,0.7,-1.46,1.65,0.03,-19.38,2.67,12.98,0.05,-0.33,0.95,-1.19,0.02,-0.78
655,1900-01-01 11:37:32.953,28.62,29.85,-6.09,0.49,0.47,0.71,-1.11,1.44,-0.37,-19.39,3.23,13.02,0.06,-0.34,0.96,-0.54,0.05,-0.86
656,1900-01-01 11:37:33.000,28.6,29.88,-6.15,0.49,0.47,0.71,-1.52,1.24,0.53,-19.31,3.38,13.05,0.06,-0.34,0.96,-0.72,-0.24,-0.86
657,1900-01-01 11:37:33.097,28.98,28.8,-6.08,0.47,0.47,0.71,-1.14,1.57,-0.06,-19.7,2.52,13.07,0.04,-0.34,0.94,-0.69,-0.63,-0.9
658,1900-01-01 11:37:33.165,28.9,29.58,-6.1,0.49,0.48,0.71,-1.47,1.61,0.02,-19.42,3.19,13.09,0.06,-0.34,0.96,-1.21,-0.17,-0.89
659,1900-01-01 11:37:33.275,28.25,29.87,-6.1,0.48,0.46,0.7,-1.85,1.56,0.58,-19.55,3.3,13.11,0.06,-0.34,0.96,-1.7,-0.18,-0.91
660,1900-01-01 11:37:33.346,28.56,29.27,-6.02,0.48,0.47,0.71,-1.36,1.18,-0.04,-20.16,2.87,13.13,0.05,-0.35,0.95,-0.58,-0.38,-0.83
661,1900-01-01 11:37:33.420,28.49,29.56,-6.04,0.48,0.46,0.71,-1.63,1.65,0.15,-19.46,3.0,13.16,0.05,-0.34,0.95,-1.07,-0.16,-0.85
662,1900-01-01 11:37:33.467,27.92,29.79,-6.02,0.48,0.46,0.71,-1.25,1.67,-0.14,-20.11,3.22,13.19,0.06,-0.35,0.96,-1.24,-0.44,-0.92
663,1900-01-01 11:37:33.560,28.31,29.59,-6.05,0.48,0.46,0.71,-1.34,1.37,0.27,-19.82,3.2,13.21,0.06,-0.35,0.96,-0.56,-0.44,-0.79
664,1900-01-01 11:37:33.623,28.79,29.07,-6.02,0.47,0.47,0.71,-1.4,1.39,-0.05,-19.98,2.77,13.25,0.05,-0.35,0.95,-0.6,-0.22,-0.81
665,1900-01-01 11:37:33.708,28.37,29.62,-6.03,0.48,0.46,0.71,-1.21,1.16,0.0,-20.13,3.07,13.28,0.05,-0.35,0.96,-0.69,-0.15,-0.89
666,1900-01-01 11:37:33.792,28.48,29.77,-6.04,0.49,0.47,0.71,-1.48,1.21,0.24,-19.59,3.27,13.3,0.06,-0.34,0.96,-0.66,-0.2,-0.83
667,1900-01-01 11:37:33.905,28.45,29.22,-6.01,0.47,0.46,0.71,-1.2,1.08,-0.24,-20.09,2.81,13.34,0.05,-0.35,0.95,-0.37,-0.27,-1.05
668,1900-01-01 11:37:33.931,28.47,29.52,-6.06,0.48,0.47,0.71,-1.27,1.26,-0.28,-19.8,2.99,13.33,0.05,-0.35,0.96,-0.61,-0.24,-1.0
669,1900-01-01 11:37:34.086,28.57,29.48,-6.11,0.48,0.47,0.71,-1.44,1.36,0.04,-19.78,3.04,13.34,0.05,-0.34,0.95,-0.83,-0.26,-1.01
670,1900-01-01 11:37:34.086,28.44,29.32,-6.11,0.48,0.46,0.71,-1.66,1.18,-0.09,-20.06,2.88,13.34,0.05,-0.35,0.95,-0.72,0.01,-1.06
671,1900-01-01 11:37:34.184,28.41,29.71,-6.14,0.48,0.46,0.71,-1.43,1.38,-0.32,-19.84,2.99,13.34,0.05,-0.34,0.95,-0.82,-0.1,-1.05
672,1900-01-01 11:37:34.260,28.39,29.39,-6.19,0.48,0.46,0.71,-1.37,1.33,-0.08,-19.91,3.08,13.33,0.05,-0.35,0.96,-0.87,-0.19,-1.09
673,1900-01-01 11:37:34.307,28.31,29.36,-6.22,0.48,0.46,0.71,-1.51,1.42,-0.02,-20.24,3.02,13.32,0.05,-0.35,0.95,-0.95,-0.31,-0.92
674,1900-01-01 11:37:34.401,28.54,29.23,-6.23,0.47,0.46,0.71,-1.47,1.33,-0.06,-19.98,2.86,13.34,0.05,-0.35,0.95,-0.82,-0.17,-1.01
675,1900-01-01 11:37:34.494,28.1,29.63,-6.25,0.48,0.46,0.71,-1.27,1.31,-0.11,-20.02,3.16,13.35,0.06,-0.35,0.95,-0.66,-0.24,-0.98
676,1900-01-01 11:37:34.540,28.46,29.17,-6.27,0.48,0.46,0.71,-1.07,1.27,-0.23,-20.2,2.87,13.35,0.05,-0.35,0.95,-0.51,-0.47,-0.94
677,1900-01-01 11:37:34.634,28.59,29.23,-6.31,0.47,0.46,0.71,-1.11,1.24,-0.16,-20.09,2.91,13.37,0.05,-0.35,0.95,-0.43,-0.37,-0.92
678,1900-01-01 11:37:34.729,28.51,29.25,-6.35,0.48,0.47,0.71,-1.18,1.18,-0.23,-20.1,3.0,13.39,0.05,-0.35,0.95,-0.44,-0.4,-0.98
679,1900-01-01 11:37:34.773,28.38,29.28,-6.39,0.48,0.46,0.71,-1.5,1.21,0.15,-19.97,3.01,13.39,0.05,-0.35,0.95,-0.66,-0.07,-0.9
680,1900-01-01 11:37:34.867,28.57,29.12,-6.38,0.47,0.46,0.71,-1.1,1.28,-0.04,-19.99,2.7,13.41,0.05,-0.35,0.95,-0.37,-0.51,-0.79
681,1900-01-01 11:37:34.917,28.59,29.34,-6.39,0.48,0.47,0.71,-1.36,1.08,-0.15,-20.0,2.94,13.45,0.05,-0.35,0.96,-0.24,-0.18,-0.92
682,1900-01-01 11:37:35.008,28.36,29.23,-6.42,0.48,0.46,0.71,-1.43,1.32,0.02,-20.0,2.84,13.47,0.05,-0.35,0.96,-0.89,-0.2,-1.0
683,1900-01-01 11:37:35.081,28.21,29.33,-6.43,0.48,0.46,0.71,-1.25,1.21,-0.09,-20.06,2.98,13.47,0.05,-0.35,0.96,-0.66,-0.31,-0.98
684,1900-01-01 11:37:35.177,28.37,29.38,-6.45,0.48,0.46,0.71,-1.36,1.39,0.02,-19.83,2.98,13.48,0.05,-0.35,0.96,-0.72,-0.39,-0.83
685,1900-01-01 11:37:35.240,28.51,29.18,-6.45,0.47,0.46,0.71,-1.33,1.29,-0.08,-20.01,2.99,13.51,0.05,-0.35,0.95,-0.69,-0.28,-0.95
686,1900-01-01 11:37:35.362,28.52,29.29,-6.48,0.48,0.47,0.71,-1.23,1.32,-0.11,-19.89,2.9,13.53,0.05,-0.34,0.95,-0.52,-0.21,-0.93
687,1900-01-01 11:37:35.392,28.32,29.26,-6.5,0.48,0.46,0.71,-1.13,1.21,-0.05,-20.15,2.99,13.54,0.05,-0.35,0.95,-0.6,-0.37,-0.93
688,1900-01-01 11:37:35.451,28.48,29.42,-6.52,0.48,0.47,0.71,-1.47,1.36,0.18,-19.81,3.03,13.56,0.05,-0.35,0.96,-0.56,-0.27,-0.81
689,1900-01-01 11:37:35.565,28.62,29.01,-6.5,0.47,0.47,0.71,-1.25,1.33,0.04,-19.98,2.67,13.59,0.05,-0.35,0.95,-0.72,-0.31,-0.9
690,1900-01-01 11:37:35.613,28.47,29.47,-6.5,0.48,0.47,0.71,-1.37,1.49,0.15,-19.84,2.99,13.61,0.05,-0.34,0.95,-0.76,-0.21,-0.78
691,1900-01-01 11:37:35.707,28.31,29.24,-6.49,0.48,0.46,0.71,-1.24,1.31,0.21,-20.28,2.75,13.65,0.05,-0.35,0.95,-0.7,-0.3,-0.82
692,1900-01-01 11:37:35.813,28.21,29.17,-6.46,0.48,0.46,0.72,-1.11,1.37,0.02,-20.36,2.94,13.68,0.05,-0.35,0.95,-0.52,-0.62,-0.75
693,1900-01-01 11:37:35.846,28.52,29.32,-6.47,0.48,0.47,0.71,-1.29,1.44,0.07,-19.87,2.85,13.73,0.05,-0.34,0.95,-0.62,-0.37,-0.79
694,1900-01-01 11:37:35.941,28.43,29.21,-6.47,0.48,0.47,0.71,-1.28,1.37,0.2,-20.24,2.9,13.77,0.05,-0.35,0.95,-0.75,-0.46,-0.76
695,1900-01-01 11:37:35.994,28.43,29.15,-6.44,0.47,0.46,0.71,-1.18,1.52,0.05,-20.1,2.77,13.81,0.05,-0.35,0.95,-0.68,-0.4,-0.68
696,1900-01-01 11:37:36.084,28.37,29.32,-6.45,0.48,0.46,0.71,-1.2,1.24,-0.05,-20.3,3.28,13.86,0.06,-0.35,0.95,-0.44,-0.31,-0.83
697,1900-01-01 11:37:36.172,28.48,29.1,-6.46,0.47,0.46,0.71,-1.34,1.37,0.05,-20.14,2.93,13.89,0.05,-0.35,0.95,-0.68,-0.25,-0.76
698,1900-01-01 11:37:36.258,28.51,29.17,-6.46,0.47,0.46,0.71,-1.38,1.3,0.18,-20.08,2.98,13.94,0.05,-0.35,0.95,-0.74,-0.15,-0.88
699,1900-01-01 11:37:36.316,28.45,29.27,-6.44,0.48,0.46,0.71,-1.11,1.35,-0.09,-20.04,2.94,13.96,0.05,-0.35,0.95,-0.34,-0.42,-0.76
700,1900-01-01 11:37:36.445,28.54,29.05,-6.47,0.47,0.46,0.71,-1.39,1.08,0.05,-20.2,2.91,14.0,0.05,-0.35,0.95,-0.46,0.08,-0.95
701,1900-01-01 11:37:36.445,28.36,29.24,-6.47,0.48,0.46,0.71,-1.11,1.27,-0.25,-20.35,2.8,14.01,0.05,-0.35,0.95,-0.63,-0.54,-0.9
702,1900-01-01 11:37:36.534,28.48,29.37,-6.51,0.48,0.46,0.71,-1.49,1.17,0.13,-20.07,3.12,14.03,0.06,-0.35,0.96,-0.68,-0.14,-1.02
703,1900-01-01 11:37:36.638,28.25,29.23,-6.5,0.48,0.46,0.71,-1.53,1.28,0.02,-20.37,2.98,14.04,0.05,-0.35,0.95,-0.9,-0.35,-0.93
704,1900-01-01 11:37:36.711,28.37,29.25,-6.51,0.48,0.46,0.71,-1.44,1.16,-0.13,-19.94,2.89,14.05,0.05,-0.35,0.95,-0.56,-0.1,-1.05
705,1900-01-01 11:37:36.781,28.31,29.16,-6.54,0.48,0.46,0.72,-1.42,1.31,-0.13,-20.26,2.99,14.05,0.05,-0.35,0.95,-0.81,-0.31,-1.05
706,1900-01-01 11:37:36.828,28.49,29.01,-6.57,0.47,0.47,0.71,-1.39,1.38,-0.03,-20.18,2.79,14.05,0.05,-0.35,0.95,-0.87,-0.35,-1.0
707,1900-01-01 11:37:36.982,28.37,29.12,-6.58,0.47,0.46,0.71,-1.36,1.32,-0.05,-20.1,2.91,14.05,0.05,-0.35,0.95,-0.72,-0.24,-0.92
708,1900-01-01 11:37:36.982,28.35,29.11,-6.59,0.47,0.46,0.71,-1.27,1.24,-0.24,-20.37,2.87,14.07,0.05,-0.35,0.95,-0.55,-0.16,-1.01
709,1900-01-01 11:37:37.092,28.29,29.31,-6.64,0.48,0.46,0.71,-1.48,1.18,0.07,-20.06,3.04,14.07,0.05,-0.35,0.95,-0.67,-0.11,-1.02
710,1900-01-01 11:37:37.140,28.32,29.09,-6.64,0.48,0.46,0.72,-1.1,1.3,-0.15,-20.36,2.88,14.08,0.05,-0.35,0.95,-0.41,-0.47,-0.87
711,1900-01-01 11:37:37.234,28.47,29.03,-6.67,0.47,0.46,0.71,-1.38,1.18,0.11,-20.0,2.73,14.1,0.05,-0.35,0.95,-0.53,-0.12,-0.92
712,1900-01-01 11:37:37.328,28.27,29.1,-6.66,0.48,0.46,0.72,-1.07,1.19,-0.16,-20.42,2.91,14.12,0.05,-0.35,0.95,-0.53,-0.47,-0.95
713,1900-01-01 11:37:37.375,28.3,29.31,-6.69,0.48,0.46,0.71,-1.44,1.28,0.19,-19.99,2.91,14.13,0.05,-0.35,0.95,-0.66,-0.18,-0.86
714,1900-01-01 11:37:37.467,28.48,29.01,-6.67,0.47,0.46,0.71,-1.08,1.26,-0.07,-20.31,2.73,14.16,0.05,-0.35,0.95,-0.4,-0.53,-0.81
715,1900-01-01 11:37:37.599,28.41,29.46,-6.69,0.48,0.46,0.71,-1.31,1.24,-0.01,-19.84,3.01,14.19,0.05,-0.35,0.96,-0.36,-0.2,-0.87
716,1900-01-01 11:37:37.599,28.41,29.05,-6.7,0.47,0.46,0.71,-1.34,1.18,-0.04,-20.38,2.85,14.22,0.05,-0.35,0.95,-0.59,-0.29,-0.95
717,1900-01-01 11:37:37.699,28.43,29.1,-6.71,0.47,0.46,0.71,-1.2,1.4,-0.05,-20.05,2.73,14.23,0.05,-0.35,0.95,-0.63,-0.4,-0.9
718,1900-01-01 11:37:37.786,28.24,29.38,-6.73,0.48,0.46,0.71,-1.32,1.28,-0.02,-20.12,3.02,14.25,0.05,-0.35,0.95,-0.56,-0.29,-0.85
719,1900-01-01 11:37:37.873,28.44,29.18,-6.74,0.48,0.47,0.72,-1.5,1.28,0.05,-20.09,2.86,14.28,0.05,-0.35,0.95,-0.74,-0.27,-0.91
720,1900-01-01 11:37:37.902,28.27,29.2,-6.74,0.48,0.46,0.71,-1.37,1.42,-0.02,-20.07,2.77,14.3,0.05,-0.35,0.95,-0.76,-0.26,-0.89
721,1900-01-01 11:37:37.983,28.59,29.08,-6.76,0.48,0.47,0.72,-1.19,1.24,-0.1,-20.03,2.84,14.32,0.05,-0.35,0.95,-0.55,-0.18,-0.86
722,1900-01-01 11:37:38.071,28.47,29.19,-6.78,0.47,0.46,0.71,-1.27,1.21,0.07,-20.22,2.85,14.34,0.05,-0.35,0.95,-0.52,-0.16,-0.92
723,1900-01-01 11:37:38.164,28.22,29.14,-6.78,0.47,0.46,0.72,-1.16,1.3,-0.05,-20.31,2.86,14.36,0.05,-0.35,0.95,-0.57,-0.38,-0.96
724,1900-01-01 11:37:38.212,28.44,29.17,-6.79,0.48,0.46,0.71,-1.34,1.45,0.12,-20.14,2.84,14.37,0.05,-0.35,0.95,-0.68,-0.37,-0.77
725,1900-01-01 11:37:38.307,28.43,29.08,-6.78,0.47,0.46,0.71,-1.15,1.41,0.15,-20.19,2.81,14.41,0.05,-0.35,0.95,-0.63,-0.47,-0.76
726,1900-01-01 11:37:38.409,28.14,29.24,-6.77,0.48,0.46,0.71,-1.16,1.25,-0.02,-20.48,2.98,14.46,0.05,-0.36,0.95,-0.46,-0.37,-0.82
727,1900-01-01 11:37:38.446,28.28,29.07,-6.78,0.47,0.46,0.71,-1.3,1.47,0.07,-20.38,2.91,14.49,0.05,-0.35,0.95,-0.74,-0.37,-0.81
728,1900-01-01 11:37:38.519,28.32,29.22,-6.78,0.48,0.46,0.71,-1.21,1.44,0.11,-20.3,2.97,14.52,0.05,-0.35,0.95,-0.7,-0.44,-0.76
729,1900-01-01 11:37:38.670,28.22,29.18,-6.77,0.47,0.46,0.71,-1.37,1.44,0.16,-20.46,2.92,14.56,0.05,-0.36,0.95,-0.8,-0.25,-0.78
730,1900-01-01 11:37:38.670,28.22,29.17,-6.75,0.47,0.46,0.71,-1.17,1.35,-0.02,-20.53,2.95,14.6,0.05,-0.36,0.95,-0.56,-0.3,-0.79
731,1900-01-01 11:37:38.755,28.22,29.11,-6.76,0.47,0.46,0.72,-1.27,1.35,0.03,-20.46,2.9,14.64,0.05,-0.36,0.95,-0.66,-0.29,-0.83
732,1900-01-01 11:37:38.846,28.27,29.04,-6.77,0.47,0.46,0.72,-1.27,1.37,0.12,-20.39,2.85,14.67,0.05,-0.35,0.95,-0.76,-0.29,-0.83
733,1900-01-01 11:37:38.939,27.95,29.56,-6.76,0.48,0.46,0.71,-1.29,1.4,-0.05,-20.38,2.98,14.7,0.05,-0.35,0.95,-0.48,-0.32,-0.71
734,1900-01-01 11:37:39.008,28.4,29.02,-6.77,0.47,0.46,0.71,-1.48,1.24,0.15,-20.24,2.85,14.75,0.05,-0.35,0.95,-0.55,-0.02,-0.85
735,1900-01-01 11:37:39.055,28.11,29.04,-6.76,0.47,0.46,0.72,-1.12,1.2,-0.15,-20.67,2.78,14.78,0.05,-0.36,0.95,-0.52,-0.34,-0.92
736,1900-01-01 11:37:39.148,28.06,29.27,-6.79,0.47,0.46,0.71,-1.16,1.29,0.0,-20.31,2.81,14.8,0.05,-0.35,0.95,-0.64,-0.37,-0.88
737,1900-01-01 11:37:39.287,28.11,29.27,-6.8,0.48,0.46,0.72,-1.15,1.09,-0.15,-20.4,2.93,14.82,0.05,-0.35,0.95,-0.31,-0.4,-0.98
738,1900-01-01 11:37:39.287,28.46,29.11,-6.83,0.47,0.46,0.71,-1.26,1.25,-0.18,-20.11,2.82,14.83,0.05,-0.35,0.95,-0.46,-0.32,-0.98
739,1900-01-01 11:37:39.379,28.19,29.07,-6.87,0.47,0.46,0.72,-1.22,1.37,-0.21,-20.18,2.82,14.84,0.05,-0.35,0.95,-0.73,-0.41,-1.03
740,1900-01-01 11:37:39.459,28.18,29.1,-6.91,0.47,0.46,0.72,-1.29,1.38,-0.04,-20.17,2.92,14.84,0.05,-0.35,0.95,-0.96,-0.24,-0.98
741,1900-01-01 11:37:39.571,28.24,29.19,-6.92,0.47,0.46,0.71,-1.46,1.29,0.04,-20.21,2.82,14.84,0.05,-0.35,0.95,-0.66,-0.07,-0.95
742,1900-01-01 11:37:39.640,28.37,28.87,-6.92,0.47,0.46,0.72,-1.26,1.25,-0.27,-20.56,2.69,14.86,0.05,-0.36,0.95,-0.53,-0.25,-1.02
743,1900-01-01 11:37:39.669,28.07,29.17,-6.98,0.47,0.46,0.72,-1.16,1.08,-0.05,-20.51,2.98,14.86,0.05,-0.36,0.95,-0.63,-0.31,-1.06
744,1900-01-01 11:37:39.755,28.33,29.24,-6.99,0.48,0.46,0.71,-1.49,1.27,0.07,-20.19,2.91,14.85,0.05,-0.35,0.95,-0.68,-0.22,-0.91
745,1900-01-01 11:37:39.850,28.18,29.0,-6.99,0.47,0.46,0.71,-1.14,1.17,-0.2,-20.58,2.75,14.87,0.05,-0.36,0.95,-0.46,-0.34,-0.98
746,1900-01-01 11:37:39.903,28.12,29.38,-7.03,0.48,0.46,0.72,-1.32,1.22,-0.02,-20.22,3.02,14.88,0.05,-0.35,0.96,-0.5,-0.24,-0.91
747,1900-01-01 11:37:39.991,28.19,28.88,-7.04,0.47,0.46,0.71,-1.13,1.24,0.04,-20.69,2.73,14.9,0.05,-0.36,0.95,-0.54,-0.36,-0.87
748,1900-01-01 11:37:40.085,28.35,29.01,-7.04,0.47,0.46,0.72,-1.07,1.12,-0.15,-20.42,2.92,14.92,0.05,-0.35,0.95,-0.21,-0.5,-0.85
749,1900-01-01 11:37:40.130,28.24,29.19,-7.07,0.48,0.46,0.72,-1.2,1.27,-0.08,-20.27,2.93,14.95,0.05,-0.35,0.95,-0.53,-0.37,-0.87
750,1900-01-01 11:37:40.225,28.29,29.09,-7.09,0.47,0.46,0.72,-1.28,1.26,0.01,-20.27,2.81,14.98,0.05,-0.35,0.95,-0.58,-0.3,-0.94
751,1900-01-01 11:37:40.343,28.17,29.25,-7.1,0.48,0.46,0.71,-1.28,1.23,-0.03,-20.4,2.93,14.99,0.05,-0.35,0.95,-0.52,-0.18,-0.84
752,1900-01-01 11:37:40.376,28.27,29.1,-7.11,0.47,0.46,0.72,-1.47,1.3,-0.05,-20.45,2.91,15.02,0.05,-0.35,0.95,-0.81,-0.23,-0.94
753,1900-01-01 11:37:40.449,28.28,29.12,-7.13,0.47,0.46,0.71,-1.37,1.31,-0.15,-20.33,2.85,15.04,0.05,-0.35,0.95,-0.6,-0.28,-0.96
754,1900-01-01 11:37:40.547,28.19,29.01,-7.16,0.47,0.46,0.72,-1.22,1.21,-0.09,-20.45,2.78,15.05,0.05,-0.35,0.95,-0.69,-0.31,-0.97
755,1900-01-01 11:37:40.620,28.33,29.36,-7.18,0.48,0.46,0.72,-1.53,1.31,0.15,-20.09,3.12,15.06,0.06,-0.35,0.96,-0.67,-0.18,-0.87
756,1900-01-01 11:37:40.690,28.29,28.89,-7.17,0.47,0.46,0.72,-1.25,1.36,0.03,-20.5,2.6,15.08,0.05,-0.35,0.94,-0.8,-0.29,-0.97
757,1900-01-01 11:37:40.736,28.15,29.39,-7.17,0.48,0.46,0.72,-1.45,1.42,0.1,-20.19,3.06,15.09,0.05,-0.35,0.96,-0.71,-0.22,-0.82
758,1900-01-01 11:37:40.895,28.18,28.92,-7.17,0.47,0.46,0.72,-1.28,1.5,0.18,-20.59,2.65,15.13,0.05,-0.36,0.95,-0.87,-0.31,-0.81
759,1900-01-01 11:37:40.895,28.28,29.21,-7.15,0.48,0.46,0.71,-1.27,1.27,0.01,-20.52,2.86,15.16,0.05,-0.36,0.95,-0.43,-0.4,-0.82
760,1900-01-01 11:37:40.982,28.14,29.19,-7.15,0.47,0.46,0.71,-1.27,1.49,0.11,-20.35,2.79,15.19,0.05,-0.35,0.95,-0.81,-0.3,-0.85
761,1900-01-01 11:37:41.076,28.25,29.16,-7.15,0.48,0.46,0.72,-1.27,1.38,0.13,-20.43,2.88,15.22,0.05,-0.35,0.95,-0.64,-0.41,-0.76
762,1900-01-01 11:37:41.157,28.1,29.03,-7.13,0.47,0.46,0.72,-1.27,1.31,0.15,-20.58,2.82,15.26,0.05,-0.36,0.95,-0.51,-0.4,-0.67
763,1900-01-01 11:37:41.205,28.32,29.12,-7.12,0.48,0.46,0.72,-1.53,1.18,-0.11,-20.29,2.77,15.32,0.05,-0.35,0.95,-0.36,0.13,-0.83
764,1900-01-01 11:37:41.299,27.87,29.28,-7.15,0.48,0.46,0.72,-1.34,1.21,-0.56,-20.58,2.96,15.35,0.05,-0.36,0.95,-0.32,0.11,-0.99
765,1900-01-01 11:37:41.440,28.45,28.85,-7.24,0.47,0.46,0.72,-1.42,1.08,-0.42,-19.93,2.5,15.36,0.04,-0.34,0.95,0.26,-0.15,-0.95
766,1900-01-01 11:37:41.440,28.34,29.21,-7.31,0.48,0.46,0.72,-1.93,1.6,-0.42,-19.9,2.67,15.37,0.05,-0.35,0.95,-0.2,0.14,-0.77
767,1900-01-01 11:37:41.532,28.27,28.7,-7.39,0.46,0.46,0.71,-1.34,1.33,-0.26,-20.23,2.31,15.41,0.04,-0.35,0.94,-0.72,-0.11,-1.03
768,1900-01-01 11:37:41.613,27.99,29.43,-7.43,0.48,0.46,0.72,-1.15,1.31,-0.27,-20.19,2.87,15.41,0.05,-0.35,0.96,-0.44,-0.58,-0.95
769,1900-01-01 11:37:41.700,28.22,28.9,-7.49,0.47,0.46,0.71,-1.67,1.34,0.5,-20.11,2.61,15.42,0.05,-0.35,0.95,-1.07,-0.24,-0.93
770,1900-01-01 11:37:41.729,28.06,28.57,-7.42,0.46,0.46,0.72,-1.13,1.34,-0.11,-20.8,2.22,15.44,0.04,-0.36,0.95,-1.01,-0.79,-1.02
771,1900-01-01 11:37:41.809,28.21,29.31,-7.44,0.48,0.46,0.72,-1.13,1.27,-0.08,-20.03,2.98,15.44,0.05,-0.35,0.96,-0.59,-0.5,-0.96
772,1900-01-01 11:37:41.902,28.25,29.02,-7.46,0.47,0.46,0.71,-1.42,1.38,0.31,-20.23,2.56,15.45,0.05,-0.35,0.95,-0.96,-0.36,-1.02
773,1900-01-01 11:37:41.994,28.1,28.83,-7.43,0.47,0.46,0.72,-1.29,1.17,-0.12,-20.79,2.68,15.45,0.05,-0.36,0.95,-0.95,-0.37,-1.12
774,1900-01-01 11:37:42.045,28.03,28.75,-7.45,0.47,0.46,0.72,-0.86,0.86,-0.09,-20.8,2.69,15.44,0.05,-0.36,0.95,-0.14,-0.34,-0.97
775,1900-01-01 11:37:42.134,27.93,29.27,-7.48,0.48,0.46,0.72,-1.18,1.29,-0.01,-20.24,3.03,15.45,0.05,-0.35,0.96,-0.2,-0.23,-0.68
776,1900-01-01 11:37:42.228,28.28,28.7,-7.49,0.47,0.46,0.72,-1.11,1.03,0.2,-20.63,2.51,15.5,0.04,-0.36,0.95,-0.51,-0.45,-0.77
777,1900-01-01 11:37:42.273,28.25,29.35,-7.46,0.48,0.46,0.71,-0.95,0.85,-0.18,-20.18,2.84,15.54,0.05,-0.35,0.96,0.11,-0.31,-0.88
778,1900-01-01 11:37:42.367,28.26,29.15,-7.5,0.47,0.46,0.71,-1.18,1.21,0.03,-20.11,2.76,15.57,0.05,-0.35,0.95,-0.41,-0.29,-0.95
779,1900-01-01 11:37:42.459,28.36,29.14,-7.5,0.48,0.46,0.72,-1.26,1.3,0.01,-20.17,2.82,15.58,0.05,-0.35,0.96,-0.5,-0.4,-0.85
780,1900-01-01 11:37:42.506,28.45,28.96,-7.51,0.47,0.46,0.71,-1.29,1.44,-0.01,-20.13,2.6,15.61,0.05,-0.35,0.95,-0.83,-0.3,-0.85
781,1900-01-01 11:37:42.600,28.12,29.35,-7.52,0.48,0.46,0.71,-1.32,1.25,-0.18,-20.32,2.94,15.64,0.05,-0.35,0.95,-0.66,-0.24,-0.98
782,1900-01-01 11:37:42.652,28.38,29.0,-7.55,0.47,0.46,0.72,-1.4,1.5,-0.04,-20.12,2.68,15.65,0.05,-0.35,0.95,-1.02,-0.3,-1.0
783,1900-01-01 11:37:42.759,28.29,29.07,-7.57,0.47,0.46,0.71,-1.21,1.58,0.22,-20.12,2.73,15.65,0.05,-0.35,0.95,-1.12,-0.4,-0.86
784,1900-01-01 11:37:42.836,28.03,29.06,-7.54,0.47,0.46,0.72,-1.27,1.53,0.15,-20.64,2.92,15.68,0.05,-0.36,0.95,-0.89,-0.4,-0.76
785,1900-01-01 11:37:42.915,28.32,28.91,-7.53,0.47,0.46,0.72,-1.18,1.31,0.3,-20.47,2.77,15.72,0.05,-0.36,0.95,-0.79,-0.47,-0.82
786,1900-01-01 11:37:43.002,28.1,29.03,-7.49,0.47,0.46,0.72,-0.99,1.22,0.15,-20.44,2.78,15.75,0.05,-0.35,0.95,-0.38,-0.46,-0.75
787,1900-01-01 11:37:43.067,28.3,28.95,-7.48,0.47,0.46,0.72,-0.99,1.28,0.29,-20.59,2.82,15.8,0.05,-0.36,0.95,-0.24,-0.53,-0.53
788,1900-01-01 11:37:43.115,28.52,29.02,-7.44,0.47,0.46,0.71,-1.07,1.08,0.37,-20.19,2.8,15.87,0.05,-0.35,0.95,-0.19,-0.38,-0.6
789,1900-01-01 11:37:43.207,28.37,28.91,-7.39,0.47,0.46,0.72,-0.75,1.22,0.02,-20.46,2.61,15.94,0.05,-0.35,0.95,-0.25,-0.72,-0.67
790,1900-01-01 11:37:43.341,28.33,29.46,-7.4,0.48,0.46,0.71,-1.23,1.17,0.34,-19.79,2.95,15.99,0.05,-0.34,0.96,-0.39,-0.31,-0.66
791,1900-01-01 11:37:43.341,28.32,29.09,-7.36,0.47,0.46,0.72,-1.24,1.24,0.22,-20.35,2.77,16.05,0.05,-0.35,0.95,-0.61,-0.43,-0.79
792,1900-01-01 11:37:43.420,28.17,29.34,-7.33,0.48,0.46,0.71,-1.24,1.2,0.05,-20.19,2.87,16.09,0.05,-0.35,0.95,-0.38,-0.24,-0.84
793,1900-01-01 11:37:43.536,28.26,28.98,-7.33,0.47,0.46,0.72,-1.31,1.4,-0.08,-20.39,2.77,16.12,0.05,-0.35,0.95,-0.73,-0.34,-0.99
794,1900-01-01 11:37:43.603,28.11,29.21,-7.35,0.48,0.46,0.72,-1.39,1.44,0.06,-20.28,2.99,16.12,0.05,-0.35,0.96,-0.84,-0.22,-0.85
795,1900-01-01 11:37:43.674,28.25,29.1,-7.35,0.47,0.46,0.72,-1.41,1.29,-0.02,-20.5,2.93,16.15,0.05,-0.36,0.95,-0.89,-0.15,-0.98
796,1900-01-01 11:37:43.773,28.15,29.04,-7.36,0.47,0.46,0.71,-1.4,1.27,-0.11,-20.28,2.65,16.16,0.05,-0.35,0.95,-0.95,-0.11,-1.08
797,1900-01-01 11:37:43.812,28.14,29.48,-7.39,0.48,0.46,0.72,-1.29,1.35,-0.31,-20.18,3.07,16.15,0.05,-0.35,0.96,-0.56,-0.31,-1.02
798,1900-01-01 11:37:43.907,28.19,28.9,-7.45,0.47,0.46,0.72,-1.53,1.27,0.02,-20.68,2.84,16.15,0.05,-0.36,0.95,-1.02,0.05,-1.07
799,1900-01-01 11:37:43.954,28.11,29.14,-7.45,0.48,0.46,0.72,-1.34,1.34,-0.21,-20.51,2.8,16.15,0.05,-0.36,0.95,-0.83,-0.37,-1.05
800,1900-01-01 11:37:44.030,28.11,29.12,-7.49,0.47,0.46,0.71,-1.57,1.38,0.03,-20.44,3.02,16.15,0.05,-0.35,0.95,-1.02,-0.05,-1.05
801,1900-01-01 11:37:44.115,28.11,29.1,-7.5,0.48,0.46,0.72,-1.26,1.24,-0.08,-20.7,2.75,16.15,0.05,-0.36,0.95,-0.49,-0.34,-0.91
802,1900-01-01 11:37:44.218,28.07,29.14,-7.52,0.47,0.46,0.72,-1.44,1.24,0.08,-20.49,2.87,16.16,0.05,-0.36,0.95,-0.59,-0.1,-0.89
803,1900-01-01 11:37:44.284,28.03,29.03,-7.51,0.47,0.46,0.72,-1.08,1.22,-0.15,-20.66,2.72,16.19,0.05,-0.36,0.95,-0.47,-0.35,-0.95
804,1900-01-01 11:37:44.369,28.16,29.02,-7.54,0.47,0.46,0.72,-1.11,1.27,-0.04,-20.52,2.94,16.2,0.05,-0.36,0.95,-0.44,-0.41,-0.89
805,1900-01-01 11:37:44.454,28.24,29.05,-7.56,0.47,0.46,0.72,-1.31,1.25,-0.08,-20.58,2.83,16.22,0.05,-0.36,0.95,-0.47,-0.25,-0.84
806,1900-01-01 11:37:44.517,28.21,29.06,-7.58,0.47,0.46,0.71,-1.17,1.18,0.0,-20.47,2.77,16.25,0.05,-0.36,0.95,-0.6,-0.37,-0.91
807,1900-01-01 11:37:44.562,28.27,29.45,-7.59,0.48,0.46,0.72,-1.24,1.23,-0.03,-20.17,2.95,16.27,0.05,-0.35,0.95,-0.41,-0.29,-0.83
808,1900-01-01 11:37:44.708,28.2,29.01,-7.6,0.47,0.46,0.71,-1.42,1.19,0.0,-20.61,2.7,16.3,0.05,-0.36,0.95,-0.67,0.0,-0.97
809,1900-01-01 11:37:44.749,28.06,29.31,-7.61,0.48,0.46,0.72,-1.21,1.29,-0.23,-20.35,2.88,16.31,0.05,-0.35,0.95,-0.63,-0.31,-0.92
810,1900-01-01 11:37:44.881,28.15,29.12,-7.65,0.47,0.46,0.71,-1.69,1.41,0.21,-20.32,2.91,16.33,0.05,-0.35,0.95,-0.91,-0.07,-0.93
811,1900-01-01 11:37:44.881,28.08,29.21,-7.63,0.48,0.46,0.72,-1.18,1.2,-0.14,-20.7,2.9,16.34,0.05,-0.36,0.95,-0.5,-0.29,-0.9
812,1900-01-01 11:37:44.958,28.15,28.96,-7.66,0.47,0.46,0.72,-1.48,1.3,-0.02,-20.44,2.82,16.36,0.05,-0.36,0.95,-0.67,-0.22,-0.97
813,1900-01-01 11:37:45.053,28.09,28.99,-7.67,0.47,0.46,0.72,-1.31,1.28,0.06,-20.49,2.76,16.37,0.05,-0.36,0.95,-0.74,-0.27,-0.94
814,1900-01-01 11:37:45.122,28.07,28.97,-7.67,0.47,0.46,0.72,-1.44,1.28,-0.02,-20.62,2.77,16.39,0.05,-0.36,0.95,-0.7,-0.31,-0.89
815,1900-01-01 11:37:45.226,28.1,29.21,-7.68,0.47,0.46,0.71,-1.41,1.31,0.08,-20.45,2.79,16.41,0.05,-0.35,0.95,-0.66,-0.13,-0.85
816,1900-01-01 11:37:45.294,28.1,29.02,-7.68,0.47,0.46,0.72,-1.08,1.22,-0.15,-20.56,2.72,16.44,0.05,-0.36,0.95,-0.45,-0.39,-0.9
817,1900-01-01 11:37:45.352,28.15,29.03,-7.71,0.47,0.46,0.72,-1.18,1.26,-0.01,-20.38,2.72,16.46,0.05,-0.35,0.95,-0.61,-0.37,-0.89
818,1900-01-01 11:37:45.446,28.25,29.23,-7.72,0.48,0.46,0.72,-1.38,1.32,0.15,-20.38,2.87,16.48,0.05,-0.35,0.95,-0.61,-0.31,-0.77
819,1900-01-01 11:37:45.491,28.14,28.77,-7.7,0.47,0.46,0.72,-1.03,1.37,0.2,-20.63,2.49,16.52,0.04,-0.36,0.94,-0.93,-0.56,-0.85
820,1900-01-01 11:37:45.585,28.12,29.22,-7.68,0.48,0.46,0.72,-1.43,1.25,0.14,-20.41,2.98,16.55,0.05,-0.36,0.96,-0.44,-0.31,-0.79
821,1900-01-01 11:37:45.717,28.13,28.75,-7.67,0.47,0.46,0.72,-1.35,1.55,0.12,-20.72,2.5,16.58,0.04,-0.36,0.95,-1.05,-0.27,-0.73
822,1900-01-01 11:37:45.717,28.06,29.4,-7.66,0.48,0.46,0.72,-1.3,1.27,0.05,-20.47,2.96,16.63,0.05,-0.36,0.95,-0.64,-0.38,-0.83
823,1900-01-01 11:37:45.801,27.95,28.98,-7.66,0.47,0.46,0.72,-1.41,1.34,0.15,-20.65,2.8,16.66,0.05,-0.36,0.95,-0.65,-0.28,-0.83
824,1900-01-01 11:37:45.906,28.23,28.9,-7.65,0.47,0.46,0.72,-1.17,1.44,0.15,-20.52,2.65,16.69,0.05,-0.35,0.95,-0.76,-0.51,-0.79
825,1900-01-01 11:37:45.972,28.08,29.24,-7.63,0.48,0.46,0.72,-1.34,1.5,0.03,-20.7,2.94,16.73,0.05,-0.36,0.95,-0.89,-0.31,-0.8
826,1900-01-01 11:37:46.055,28.23,28.88,-7.64,0.47,0.46,0.72,-1.45,1.41,0.14,-20.51,2.7,16.77,0.05,-0.36,0.95,-0.8,-0.21,-0.79
827,1900-01-01 11:37:46.137,27.99,29.07,-7.62,0.47,0.46,0.72,-1.54,1.37,0.05,-20.44,2.62,16.8,0.05,-0.35,0.95,-1.16,-0.37,-0.95
828,1900-01-01 11:37:46.191,28.2,28.92,-7.62,0.47,0.46,0.72,-1.3,1.33,0.09,-20.53,2.59,16.82,0.05,-0.36,0.95,-0.74,-0.26,-0.87
829,1900-01-01 11:37:46.284,27.98,29.2,-7.62,0.48,0.46,0.72,-1.14,1.25,-0.24,-20.82,2.8,16.84,0.05,-0.36,0.95,-0.32,-0.35,-0.8
830,1900-01-01 11:37:46.330,28.15,28.97,-7.66,0.47,0.46,0.71,-1.34,1.11,0.08,-20.4,2.72,16.88,0.05,-0.35,0.95,-0.54,-0.11,-1.0
831,1900-01-01 11:37:46.469,28.0,29.03,-7.66,0.47,0.46,0.72,-1.04,1.18,-0.33,-20.87,2.83,16.88,0.05,-0.36,0.95,-0.4,-0.51,-1.0
832,1900-01-01 11:37:46.495,28.06,29.05,-7.72,0.47,0.46,0.72,-1.46,1.37,0.09,-20.54,2.82,16.89,0.05,-0.36,0.95,-0.73,-0.26,-0.89
833,1900-01-01 11:37:46.554,28.27,28.95,-7.71,0.47,0.46,0.72,-1.31,1.18,0.05,-20.61,2.7,16.91,0.05,-0.36,0.95,-0.66,-0.4,-0.98
834,1900-01-01 11:37:46.635,27.97,29.13,-7.72,0.47,0.46,0.72,-1.29,1.17,-0.19,-20.79,2.78,16.92,0.05,-0.36,0.95,-0.58,-0.23,-1.0
835,1900-01-01 11:37:46.723,27.97,29.01,-7.75,0.47,0.46,0.72,-1.54,1.29,0.05,-20.6,2.85,16.92,0.05,-0.36,0.95,-0.9,-0.15,-1.05
836,1900-01-01 11:37:46.819,27.85,29.08,-7.75,0.47,0.45,0.72,-1.46,1.4,-0.12,-20.93,2.74,16.92,0.05,-0.36,0.95,-0.91,-0.19,-1.02
837,1900-01-01 11:37:46.889,27.88,28.98,-7.78,0.47,0.45,0.72,-1.4,1.31,-0.08,-20.94,2.83,16.92,0.05,-0.36,0.95,-0.66,-0.13,-0.98
838,1900-01-01 11:37:46.963,28.13,28.8,-7.8,0.47,0.46,0.72,-1.45,1.31,-0.06,-20.84,2.71,16.93,0.05,-0.36,0.95,-0.68,-0.18,-0.97
839,1900-01-01 11:37:47.034,27.9,28.99,-7.82,0.47,0.46,0.72,-1.25,1.22,-0.04,-20.91,2.81,16.94,0.05,-0.36,0.95,-0.59,-0.34,-0.92
840,1900-01-01 11:37:47.127,27.99,28.94,-7.83,0.47,0.46,0.72,-1.14,1.31,-0.13,-20.96,2.68,16.96,0.05,-0.36,0.95,-0.56,-0.48,-0.86
841,1900-01-01 11:37:47.174,28.0,28.89,-7.86,0.47,0.46,0.72,-1.21,1.06,0.04,-20.83,2.83,16.98,0.05,-0.36,0.95,-0.37,-0.25,-0.95
842,1900-01-01 11:37:47.268,27.87,28.89,-7.87,0.47,0.46,0.72,-0.99,1.17,-0.22,-21.02,2.77,16.99,0.05,-0.36,0.95,-0.44,-0.59,-0.94
843,1900-01-01 11:37:47.394,27.96,29.22,-7.91,0.48,0.46,0.72,-1.34,1.2,0.15,-20.51,2.99,17.01,0.05,-0.36,0.95,-0.45,-0.23,-0.86
844,1900-01-01 11:37:47.419,28.08,28.73,-7.89,0.47,0.46,0.73,-1.05,0.65,-0.35,-21.46,2.9,17.03,0.05,-0.37,0.95,0.71,-0.37,-0.73
845,1900-01-01 11:37:47.479,28.52,29.14,-7.96,0.47,0.47,0.71,-1.68,0.75,-0.79,-19.75,2.72,17.08,0.05,-0.34,0.95,1.41,0.73,-0.69
846,1900-01-01 11:37:47.566,28.35,28.64,-8.08,0.46,0.45,0.71,-1.31,1.47,-0.65,-20.31,2.22,17.13,0.04,-0.35,0.94,-0.67,0.18,-1.17
847,1900-01-01 11:37:47.650,27.91,29.24,-8.19,0.48,0.46,0.72,-0.99,1.04,-0.63,-20.2,2.71,17.11,0.05,-0.35,0.95,-0.57,-0.44,-1.37
848,1900-01-01 11:37:47.736,27.8,29.5,-8.3,0.48,0.45,0.72,-2.02,1.58,0.53,-19.78,2.98,17.06,0.05,-0.35,0.96,-0.82,-0.19,-0.8
849,1900-01-01 11:37:47.815,28.34,28.65,-8.22,0.46,0.46,0.71,-1.05,1.16,0.6,-20.68,2.25,17.1,0.04,-0.36,0.94,-1.08,-0.93,-0.89
850,1900-01-01 11:37:47.898,28.28,28.83,-8.14,0.47,0.46,0.72,-1.02,1.36,0.01,-20.37,2.59,17.12,0.05,-0.35,0.95,-0.99,-0.67,-0.98
851,1900-01-01 11:37:47.969,28.23,29.19,-8.15,0.48,0.46,0.72,-1.21,1.27,0.02,-20.13,2.72,17.13,0.05,-0.35,0.95,-0.89,-0.15,-0.93
852,1900-01-01 11:37:48.015,27.92,29.22,-8.16,0.48,0.46,0.72,-1.2,1.24,0.18,-20.55,2.94,17.14,0.05,-0.36,0.96,-0.68,-0.53,-0.91
853,1900-01-01 11:37:48.109,28.34,28.93,-8.14,0.47,0.46,0.72,-1.34,1.23,0.31,-20.24,2.59,17.16,0.05,-0.35,0.95,-0.59,-0.29,-0.72
854,1900-01-01 11:37:48.203,28.04,28.99,-8.1,0.47,0.46,0.72,-1.17,1.49,-0.03,-20.61,2.72,17.21,0.05,-0.36,0.95,-0.95,-0.3,-0.79
855,1900-01-01 11:37:48.249,28.27,29.25,-8.11,0.48,0.46,0.72,-1.36,1.52,0.29,-20.22,2.91,17.25,0.05,-0.35,0.95,-1.16,-0.34,-0.84
856,1900-01-01 11:37:48.343,28.04,29.05,-8.07,0.47,0.46,0.72,-1.3,1.46,0.27,-20.62,2.79,17.28,0.05,-0.36,0.95,-1.09,-0.56,-0.85
857,1900-01-01 11:37:48.408,28.23,28.82,-8.04,0.47,0.46,0.72,-1.35,1.37,0.09,-20.75,2.72,17.31,0.05,-0.36,0.95,-0.73,-0.4,-0.86
858,1900-01-01 11:37:48.500,27.97,29.02,-8.04,0.47,0.46,0.72,-1.39,1.53,0.15,-20.66,2.78,17.33,0.05,-0.36,0.95,-1.09,-0.3,-0.82
859,1900-01-01 11:37:48.578,27.82,29.23,-8.02,0.47,0.45,0.72,-1.44,1.51,0.18,-20.8,2.99,17.37,0.05,-0.36,0.95,-0.98,-0.2,-0.83
860,1900-01-01 11:37:48.653,28.18,28.85,-8.0,0.47,0.46,0.72,-1.38,1.51,0.24,-20.73,2.78,17.4,0.05,-0.36,0.95,-0.82,-0.34,-0.76
861,1900-01-01 11:37:48.751,27.91,28.9,-7.98,0.47,0.46,0.72,-1.06,1.39,-0.04,-21.0,2.73,17.44,0.05,-0.36,0.95,-0.6,-0.43,-0.83
862,1900-01-01 11:37:48.818,27.94,28.99,-7.99,0.47,0.46,0.72,-1.24,1.43,-0.01,-20.82,2.86,17.47,0.05,-0.36,0.95,-0.53,-0.21,-0.82
863,1900-01-01 11:37:48.857,27.89,28.72,-8.0,0.47,0.46,0.72,-1.13,1.29,0.03,-21.23,2.7,17.5,0.05,-0.37,0.94,-0.55,-0.43,-0.85
864,1900-01-01 11:37:48.951,27.78,29.22,-8.0,0.48,0.46,0.72,-1.15,1.18,0.18,-20.74,3.07,17.53,0.05,-0.36,0.95,-0.39,-0.33,-0.76
865,1900-01-01 11:37:49.069,27.94,28.88,-7.99,0.47,0.45,0.72,-1.22,1.26,-0.02,-21.03,2.65,17.57,0.05,-0.36,0.94,-0.56,-0.31,-0.91
866,1900-01-01 11:37:49.097,27.66,29.33,-8.0,0.48,0.45,0.72,-1.33,1.15,-0.01,-20.85,3.09,17.59,0.06,-0.36,0.96,-0.45,-0.17,-0.85
867,1900-01-01 11:37:49.183,27.95,28.83,-8.01,0.47,0.46,0.72,-1.29,1.21,-0.11,-20.94,2.64,17.62,0.05,-0.36,0.95,-0.61,-0.29,-0.92
868,1900-01-01 11:37:49.244,27.88,29.15,-8.03,0.48,0.46,0.72,-1.28,1.15,-0.15,-20.8,2.98,17.63,0.05,-0.36,0.95,-0.4,-0.24,-0.96
869,1900-01-01 11:37:49.333,27.93,29.02,-8.06,0.47,0.46,0.72,-1.46,1.31,-0.02,-20.71,2.81,17.65,0.05,-0.36,0.95,-0.75,-0.18,-1.03
870,1900-01-01 11:37:49.399,27.88,28.99,-8.08,0.47,0.46,0.72,-1.27,1.35,-0.08,-20.97,2.87,17.65,0.05,-0.36,0.95,-0.85,-0.32,-1.05
871,1900-01-01 11:37:49.483,27.97,28.84,-8.1,0.47,0.46,0.72,-1.31,1.48,-0.16,-21.04,2.76,17.64,0.05,-0.37,0.95,-0.85,-0.36,-0.93
872,1900-01-01 11:37:49.569,27.88,28.88,-8.13,0.47,0.46,0.72,-1.44,1.35,-0.17,-21.14,2.88,17.66,0.05,-0.37,0.95,-0.69,-0.18,-0.96
873,1900-01-01 11:37:49.653,27.76,28.94,-8.16,0.47,0.45,0.72,-1.4,1.27,0.08,-20.97,2.84,17.67,0.05,-0.36,0.95,-0.85,-0.18,-1.02
874,1900-01-01 11:37:49.733,27.85,28.81,-8.16,0.47,0.46,0.72,-1.11,1.34,-0.15,-21.2,2.72,17.67,0.05,-0.37,0.95,-0.61,-0.4,-0.94
875,1900-01-01 11:37:49.815,28.06,28.78,-8.19,0.47,0.46,0.72,-1.38,1.16,0.14,-20.84,2.86,17.69,0.05,-0.36,0.95,-0.49,-0.08,-0.92
876,1900-01-01 11:37:49.885,27.84,28.78,-8.18,0.47,0.46,0.72,-1.16,1.16,-0.09,-21.29,2.79,17.7,0.05,-0.37,0.94,-0.57,-0.39,-0.94
877,1900-01-01 11:37:49.932,27.9,28.93,-8.2,0.47,0.46,0.72,-1.38,1.27,0.11,-20.75,2.79,17.72,0.05,-0.36,0.95,-0.73,-0.31,-0.91
878,1900-01-01 11:37:50.024,27.76,28.99,-8.19,0.47,0.45,0.72,-1.14,1.36,0.1,-20.99,2.73,17.74,0.05,-0.36,0.94,-0.51,-0.55,-0.74
879,1900-01-01 11:37:50.143,28.16,28.88,-8.19,0.47,0.46,0.72,-1.03,1.04,-0.05,-20.98,2.69,17.78,0.05,-0.36,0.95,-0.02,-0.66,-0.8
880,1900-01-01 11:37:50.172,28.06,29.0,-8.2,0.47,0.46,0.72,-1.34,1.3,0.01,-20.76,2.81,17.82,0.05,-0.36,0.95,-0.47,-0.21,-0.84
881,1900-01-01 11:37:50.256,28.04,28.67,-8.21,0.47,0.46,0.72,-1.35,1.34,-0.13,-20.99,2.69,17.85,0.05,-0.36,0.94,-0.77,-0.15,-0.98
882,1900-01-01 11:37:50.330,27.77,28.99,-8.24,0.47,0.46,0.72,-1.31,1.29,-0.21,-20.92,2.82,17.86,0.05,-0.36,0.95,-0.53,-0.27,-0.91
883,1900-01-01 11:37:50.417,27.95,28.87,-8.28,0.47,0.46,0.72,-1.31,1.24,0.04,-20.77,2.73,17.88,0.05,-0.36,0.95,-0.49,-0.32,-0.9
884,1900-01-01 11:37:50.503,27.98,28.84,-8.28,0.47,0.46,0.72,-1.16,1.19,-0.02,-20.8,2.71,17.9,0.05,-0.36,0.95,-0.51,-0.4,-0.92
885,1900-01-01 11:37:50.598,27.88,28.99,-8.29,0.47,0.46,0.72,-1.18,1.43,-0.19,-20.94,2.81,17.91,0.05,-0.36,0.95,-0.61,-0.31,-0.9
886,1900-01-01 11:37:50.657,27.99,28.99,-8.33,0.47,0.46,0.72,-1.19,1.15,-0.02,-20.83,2.74,17.93,0.05,-0.36,0.95,-0.44,-0.2,-0.92
887,1900-01-01 11:37:50.725,27.92,28.92,-8.34,0.47,0.46,0.72,-1.15,1.18,-0.06,-21.03,2.9,17.95,0.05,-0.37,0.95,-0.44,-0.43,-0.9
888,1900-01-01 11:37:50.772,27.9,28.85,-8.36,0.47,0.45,0.72,-1.44,1.37,0.05,-20.99,2.67,17.97,0.05,-0.36,0.94,-0.76,-0.18,-0.85
889,1900-01-01 11:37:50.856,27.87,29.08,-8.36,0.48,0.46,0.72,-1.2,1.28,-0.01,-20.73,2.81,18.0,0.05,-0.36,0.95,-0.6,-0.34,-0.83
890,1900-01-01 11:37:50.923,27.94,28.92,-8.37,0.47,0.46,0.72,-1.4,1.25,0.17,-20.84,2.81,18.03,0.05,-0.36,0.95,-0.56,-0.22,-0.88
891,1900-01-01 11:37:51.008,27.99,28.76,-8.36,0.47,0.46,0.72,-1.23,1.4,0.2,-20.91,2.7,18.05,0.05,-0.36,0.95,-0.89,-0.41,-0.87
892,1900-01-01 11:37:51.114,27.88,28.87,-8.33,0.47,0.46,0.72,-1.27,1.47,0.18,-20.93,2.75,18.08,0.05,-0.36,0.95,-0.89,-0.44,-0.76
893,1900-01-01 11:37:51.182,27.83,29.11,-8.32,0.47,0.45,0.72,-1.25,1.47,0.31,-20.95,2.82,18.12,0.05,-0.36,0.95,-0.84,-0.3,-0.72
894,1900-01-01 11:37:51.270,27.84,28.95,-8.28,0.47,0.45,0.72,-1.26,1.21,0.18,-21.11,2.82,18.17,0.05,-0.37,0.95,-0.5,-0.35,-0.78
895,1900-01-01 11:37:51.353,27.71,29.03,-8.26,0.47,0.45,0.72,-1.25,1.33,0.17,-20.89,2.76,18.21,0.05,-0.36,0.95,-0.56,-0.19,-0.69
896,1900-01-01 11:37:51.424,27.78,28.71,-8.24,0.47,0.45,0.72,-1.03,1.25,0.0,-21.12,2.63,18.26,0.05,-0.37,0.95,-0.44,-0.4,-0.73
897,1900-01-01 11:37:51.470,27.89,29.13,-8.25,0.47,0.46,0.72,-1.19,1.25,0.16,-20.75,3.0,18.31,0.05,-0.36,0.95,-0.43,-0.28,-0.69
898,1900-01-01 11:37:51.563,27.84,28.95,-8.23,0.47,0.45,0.72,-1.14,1.22,-0.08,-21.0,2.66,18.36,0.05,-0.36,0.95,-0.56,-0.35,-0.87
899,1900-01-01 11:37:51.635,27.92,29.14,-8.25,0.48,0.46,0.72,-1.4,1.3,0.15,-20.76,2.89,18.39,0.05,-0.36,0.95,-0.61,-0.1,-0.82
900,1900-01-01 11:37:51.713,27.85,28.69,-8.24,0.47,0.45,0.72,-1.16,1.24,-0.15,-21.2,2.49,18.42,0.04,-0.37,0.95,-0.55,-0.35,-0.92
901,1900-01-01 11:37:51.786,27.88,29.18,-8.27,0.48,0.46,0.72,-1.3,1.02,-0.16,-20.78,2.92,18.44,0.05,-0.36,0.95,-0.25,-0.17,-0.96
902,1900-01-01 11:37:51.883,28.03,28.83,-8.3,0.47,0.46,0.72,-1.46,1.27,0.02,-20.9,2.66,18.45,0.05,-0.36,0.95,-0.85,-0.21,-1.05
903,1900-01-01 11:37:51.947,27.94,28.85,-8.31,0.47,0.46,0.72,-1.27,1.46,-0.05,-20.95,2.78,18.45,0.05,-0.36,0.95,-0.8,-0.42,-0.9
904,1900-01-01 11:37:52.029,27.88,28.91,-8.33,0.47,0.46,0.72,-1.61,1.47,0.05,-20.83,2.79,18.47,0.05,-0.36,0.95,-0.77,-0.18,-0.86
905,1900-01-01 11:37:52.115,28.02,28.61,-8.33,0.47,0.46,0.72,-1.28,1.11,-0.28,-21.18,2.49,18.49,0.04,-0.37,0.95,-0.33,-0.22,-1.01
906,1900-01-01 11:37:52.171,27.72,28.99,-8.38,0.47,0.45,0.72,-1.25,1.18,-0.02,-21.0,2.86,18.5,0.05,-0.36,0.95,-0.63,-0.28,-1.02
907,1900-01-01 11:37:52.277,27.77,29.06,-8.39,0.47,0.45,0.72,-1.15,1.28,-0.15,-20.89,2.72,18.5,0.05,-0.36,0.95,-0.37,-0.37,-0.88
908,1900-01-01 11:37:52.309,28.06,28.8,-8.42,0.47,0.46,0.72,-1.29,1.09,-0.05,-20.85,2.63,18.52,0.05,-0.36,0.95,-0.37,-0.19,-0.99
909,1900-01-01 11:37:52.403,27.86,28.87,-8.44,0.47,0.46,0.72,-1.21,1.19,-0.21,-21.02,2.75,18.53,0.05,-0.36,0.95,-0.42,-0.39,-0.98
910,1900-01-01 11:37:52.454,27.7,29.06,-8.48,0.47,0.45,0.72,-1.37,1.33,0.03,-20.89,2.77,18.54,0.05,-0.36,0.95,-0.73,-0.23,-0.92
911,1900-01-01 11:37:52.530,27.85,28.86,-8.48,0.47,0.46,0.72,-1.16,1.17,-0.15,-21.09,2.7,18.56,0.05,-0.37,0.95,-0.42,-0.5,-0.95
912,1900-01-01 11:37:52.615,27.94,29.08,-8.51,0.47,0.46,0.72,-1.3,1.31,-0.05,-20.73,2.8,18.57,0.05,-0.36,0.95,-0.38,-0.29,-0.85
913,1900-01-01 11:37:52.712,27.82,28.78,-8.53,0.47,0.45,0.72,-1.15,1.21,-0.07,-21.08,2.72,18.59,0.05,-0.36,0.95,-0.52,-0.46,-0.95
914,1900-01-01 11:37:52.788,27.84,29.02,-8.55,0.47,0.46,0.72,-1.34,1.31,0.04,-20.85,2.81,18.61,0.05,-0.36,0.95,-0.69,-0.31,-0.91
915,1900-01-01 11:37:52.883,27.88,28.95,-8.55,0.47,0.46,0.72,-1.18,1.21,-0.03,-20.97,2.74,18.63,0.05,-0.36,0.95,-0.45,-0.3,-0.89
916,1900-01-01 11:37:52.947,27.77,29.11,-8.56,0.47,0.45,0.72,-1.11,1.34,-0.02,-20.88,2.82,18.65,0.05,-0.36,0.95,-0.47,-0.4,-0.86
917,1900-01-01 11:37:53.010,27.89,28.78,-8.57,0.47,0.46,0.72,-1.05,1.15,0.02,-21.12,2.79,18.68,0.05,-0.37,0.95,-0.4,-0.37,-0.87
918,1900-01-01 11:37:53.103,27.92,28.95,-8.58,0.47,0.45,0.72,-1.08,0.92,-0.01,-20.98,2.65,18.7,0.05,-0.36,0.95,-0.08,-0.31,-0.88
919,1900-01-01 11:37:53.150,28.01,28.81,-8.59,0.47,0.46,0.72,-0.68,1.05,0.09,-20.77,2.5,18.72,0.04,-0.36,0.95,0.08,-0.62,-0.7
920,1900-01-01 11:37:53.244,28.03,29.2,-8.58,0.48,0.46,0.72,-1.21,1.27,0.31,-20.42,2.9,18.78,0.05,-0.36,0.95,-0.16,-0.27,-0.47
921,1900-01-01 11:37:53.361,28.14,28.91,-8.54,0.47,0.46,0.72,-0.98,1.13,0.2,-20.69,2.45,18.86,0.04,-0.36,0.94,-0.18,-0.47,-0.59
922,1900-01-01 11:37:53.384,28.16,29.34,-8.52,0.48,0.46,0.72,-1.08,0.85,-0.08,-20.53,2.85,18.93,0.05,-0.36,0.95,0.16,-0.32,-0.87
923,1900-01-01 11:37:53.478,27.9,29.26,-8.54,0.47,0.45,0.71,-1.34,1.44,0.12,-20.21,2.66,18.96,0.05,-0.35,0.95,-0.76,-0.42,-0.9
924,1900-01-01 11:37:53.540,28.36,29.24,-8.53,0.49,0.47,0.73,-0.26,0.17,-0.33,-20.87,3.16,18.98,0.06,-0.37,0.96,1.37,-1.27,-0.87
925,1900-01-01 11:37:53.635,28.8,29.03,-8.59,0.48,0.47,0.72,-2.02,1.6,-0.18,-19.51,2.74,19.0,0.05,-0.34,0.96,0.08,0.91,-0.57
926,1900-01-01 11:37:53.697,28.44,28.71,-8.63,0.46,0.46,0.71,-1.43,1.69,-0.85,-20.68,2.18,19.07,0.04,-0.36,0.94,-1.22,0.75,-1.23
927,1900-01-01 11:37:53.780,27.75,29.43,-8.77,0.48,0.46,0.72,-1.17,1.36,-0.87,-20.09,2.66,19.04,0.05,-0.35,0.96,-0.74,0.11,-1.34
928,1900-01-01 11:37:53.861,27.46,29.51,-8.91,0.48,0.44,0.71,-1.4,1.31,0.37,-20.17,2.82,19.0,0.05,-0.35,0.96,-0.72,-0.09,-0.89
929,1900-01-01 11:37:53.944,28.24,28.81,-8.86,0.47,0.46,0.72,-0.78,0.79,0.46,-20.34,2.29,19.02,0.04,-0.35,0.95,0.13,-1.15,-0.71
930,1900-01-01 11:37:54.028,28.55,28.99,-8.8,0.47,0.47,0.72,-1.23,1.52,0.31,-20.03,2.53,19.07,0.04,-0.35,0.95,-0.63,-0.64,-0.56
931,1900-01-01 11:37:54.089,28.45,28.97,-8.76,0.47,0.46,0.71,-1.53,1.54,-0.69,-20.15,2.42,19.14,0.04,-0.35,0.95,-0.91,0.3,-1.02
932,1900-01-01 11:37:54.194,27.78,29.51,-8.88,0.48,0.45,0.72,-1.37,1.3,-0.37,-20.16,2.73,19.14,0.05,-0.35,0.96,-0.62,0.2,-1.17
933,1900-01-01 11:37:54.232,27.78,29.18,-8.94,0.47,0.45,0.71,-1.45,1.31,-0.1,-20.24,2.62,19.12,0.05,-0.35,0.95,-0.66,-0.02,-1.05
934,1900-01-01 11:37:54.325,28.09,28.74,-8.96,0.47,0.46,0.72,-0.78,0.88,0.42,-20.45,2.48,19.12,0.04,-0.36,0.95,-0.11,-0.93,-0.79
935,1900-01-01 11:37:54.371,28.69,29.03,-8.91,0.48,0.47,0.72,-1.82,1.56,0.0,-19.82,2.6,19.16,0.05,-0.35,0.96,-0.78,-0.14,-0.82
936,1900-01-01 11:37:54.466,28.31,28.8,-8.92,0.47,0.46,0.71,-1.67,1.6,-0.34,-20.38,2.11,19.19,0.04,-0.35,0.94,-1.38,0.21,-1.11
937,1900-01-01 11:37:54.559,27.45,29.27,-8.98,0.48,0.45,0.72,-1.05,1.04,-0.31,-20.57,2.91,19.18,0.05,-0.36,0.95,-0.56,-0.29,-1.24
938,1900-01-01 11:37:54.606,28.02,29.06,-9.03,0.48,0.46,0.72,-1.58,1.21,-0.06,-20.16,2.68,19.15,0.05,-0.35,0.96,-0.09,-0.02,-0.82
