Time,Roll2,Pitch2,Yaw2,AccX2,AccY2,AccZ2,RotX2,RotY2,RotZ2,Roll1,Pitch1,Yaw1,AccX1,AccY1,AccZ1,RotX1,RotY1,RotZ1
1900-01-01 19:53:28.505,20.01,4.88,0.99,0.09,0.35,0.95,0.22,-0.03,-1.22,25.93,22.08,1.56,0.37,0.43,0.8,0.05,0.66,0.45
1900-01-01 19:53:28.560,21.98,5.87,0.96,0.1,0.38,0.93,-0.87,0.15,-0.78,28.08,21.23,1.62,0.35,0.46,0.78,-1.9,1.65,0.18
1900-01-01 19:53:28.655,20.79,4.78,1.0,0.08,0.36,0.93,-1.07,-0.09,-0.85,26.29,21.25,1.64,0.35,0.43,0.79,-1.8,1.21,0.18
1900-01-01 19:53:28.703,21.24,5.64,1.03,0.1,0.36,0.93,-0.45,-0.42,-1.27,27.62,21.45,1.66,0.35,0.45,0.78,-1.5,1.26,0.14
1900-01-01 19:53:28.795,21.06,5.3,1.0,0.09,0.36,0.93,-1.14,-0.22,-0.85,26.62,21.19,1.67,0.35,0.43,0.79,-1.76,1.26,0.03
1900-01-01 19:53:28.889,20.66,5.14,1.03,0.09,0.36,0.94,-0.56,-0.08,-1.1,26.79,21.18,1.67,0.35,0.43,0.79,-1.63,1.7,0.06
1900-01-01 19:53:28.936,20.79,5.35,1.02,0.09,0.35,0.93,-0.53,0.47,-1.11,26.67,21.16,1.67,0.35,0.43,0.79,-1.25,1.18,0.11
1900-01-01 19:53:29.030,21.51,5.35,1.01,0.09,0.37,0.93,-0.02,-0.65,-1.21,27.1,20.94,1.68,0.34,0.44,0.78,-0.73,0.85,-0.6
1900-01-01 19:53:29.096,20.5,4.95,0.98,0.09,0.35,0.94,-0.36,-0.26,-1.02,26.58,21.57,1.58,0.36,0.44,0.79,-1.25,1.28,0.11
1900-01-01 19:53:29.234,21.71,5.28,0.99,0.09,0.37,0.93,-0.83,-0.24,-1.13,27.43,20.94,1.59,0.35,0.45,0.79,-1.75,1.47,-0.08
1900-01-01 19:53:29.234,20.65,4.96,0.97,0.09,0.35,0.93,-0.47,-0.36,-1.0,26.56,21.26,1.57,0.35,0.43,0.79,-1.43,1.29,-0.05
1900-01-01 19:53:29.310,20.93,5.33,0.98,0.09,0.36,0.93,-0.39,-0.24,-0.92,26.69,21.34,1.55,0.35,0.44,0.79,-1.34,1.25,0.02
1900-01-01 19:53:29.403,20.79,5.1,1.0,0.09,0.36,0.93,-0.64,-0.48,-0.86,26.75,21.35,1.54,0.35,0.43,0.79,-1.31,1.37,0.04
1900-01-01 19:53:29.522,20.93,5.3,1.03,0.09,0.36,0.93,-0.6,-0.53,-1.06,26.8,21.24,1.54,0.35,0.44,0.79,-1.52,1.52,0.08
1900-01-01 19:53:29.542,21.02,5.22,1.02,0.09,0.36,0.93,-0.44,0.24,-1.15,26.76,21.01,1.54,0.35,0.43,0.79,-1.73,1.82,0.18
1900-01-01 19:53:29.647,20.91,5.33,1.01,0.09,0.36,0.93,-0.77,0.35,-1.05,26.69,21.08,1.56,0.35,0.43,0.79,-1.68,1.79,0.28
1900-01-01 19:53:29.685,21.2,5.13,1.01,0.09,0.36,0.93,-0.72,-0.59,-1.27,27.01,20.89,1.6,0.35,0.44,0.79,-1.31,0.78,0.2
1900-01-01 19:53:29.778,20.73,4.73,0.98,0.08,0.35,0.93,-0.71,-0.15,-1.1,25.83,21.12,1.62,0.35,0.42,0.8,-2.04,-0.27,0.21
1900-01-01 19:53:29.923,21.22,5.41,0.97,0.09,0.36,0.93,-2.85,-0.47,-1.47,26.18,21.24,1.64,0.35,0.43,0.8,-2.14,0.4,-0.6
1900-01-01 19:53:29.923,20.85,4.39,0.9,0.08,0.36,0.94,-2.4,0.72,-0.24,26.87,22.55,1.54,0.36,0.43,0.77,-3.12,-0.34,0.21
1900-01-01 19:53:30.043,21.29,5.38,1.02,0.09,0.36,0.92,-2.16,1.11,-0.48,26.63,21.2,1.56,0.35,0.43,0.79,-3.18,0.03,-1.26
1900-01-01 19:53:30.066,19.82,4.43,1.11,0.08,0.34,0.95,-2.39,-0.31,-0.38,25.07,22.24,1.37,0.37,0.41,0.8,-2.07,1.27,-0.04
1900-01-01 19:53:30.154,19.63,4.1,1.21,0.07,0.34,0.96,-1.66,-2.14,-1.0,25.05,21.01,1.35,0.35,0.42,0.82,-0.83,6.3,3.0
1900-01-01 19:53:30.332,22.52,5.75,1.22,0.1,0.38,0.9,-0.1,-0.25,-0.26,27.98,19.76,1.8,0.32,0.44,0.76,2.11,4.77,3.61
1900-01-01 19:53:30.332,18.53,4.59,1.34,0.08,0.32,0.95,-1.83,1.55,-0.81,24.77,21.29,2.34,0.36,0.41,0.82,1.73,2.42,6.44
1900-01-01 19:53:30.375,18.92,4.83,1.37,0.08,0.33,0.95,-1.01,0.08,-1.24,26.38,21.72,3.3,0.36,0.43,0.8,0.59,1.31,0.5
1900-01-01 19:53:30.485,20.11,4.61,1.34,0.08,0.34,0.93,-1.18,0.88,-0.37,26.56,21.62,3.37,0.36,0.43,0.79,-1.18,-0.06,3.93
1900-01-01 19:53:30.580,20.07,6.18,1.45,0.11,0.34,0.93,0.37,0.44,-1.53,26.28,23.5,3.96,0.39,0.43,0.78,1.15,-1.24,1.02
1900-01-01 19:53:30.621,19.47,4.3,1.37,0.08,0.34,0.94,1.51,0.12,-0.76,27.13,22.34,4.1,0.37,0.44,0.78,2.08,-0.02,1.89
1900-01-01 19:53:30.670,18.59,4.17,1.42,0.07,0.32,0.95,-1.56,1.07,-0.23,24.11,24.08,4.38,0.39,0.39,0.78,-0.02,-0.29,1.36
1900-01-01 19:53:30.756,20.59,5.28,1.54,0.1,0.36,0.96,-1.07,-0.92,-1.24,26.47,24.79,4.58,0.42,0.45,0.79,-1.62,-3.63,3.21
1900-01-01 19:53:30.834,19.9,5.79,1.51,0.1,0.34,0.93,2.31,-1.57,-1.96,27.16,25.92,5.06,0.41,0.43,0.73,0.38,1.76,-7.12
1900-01-01 19:53:30.899,20.11,4.51,1.37,0.08,0.34,0.92,0.7,-0.84,-0.74,26.66,21.72,3.97,0.36,0.44,0.79,-3.13,4.05,-10.31
1900-01-01 19:53:31.052,20.77,4.67,1.42,0.08,0.36,0.93,-1.27,-2.27,-1.02,26.76,22.18,2.39,0.35,0.42,0.75,-4.58,4.7,-10.3
1900-01-01 19:53:31.052,21.91,3.81,1.42,0.07,0.38,0.93,1.49,-0.25,-1.78,29.62,18.61,0.81,0.31,0.48,0.79,-0.67,5.68,-7.09
1900-01-01 19:53:31.177,21.19,3.57,1.31,0.06,0.37,0.95,-1.22,0.78,-0.28,26.88,18.11,-0.27,0.31,0.45,0.82,-0.93,-1.58,1.82
1900-01-01 19:53:31.213,22.23,3.52,1.42,0.06,0.38,0.92,-0.69,1.66,0.64,29.22,18.81,0.0,0.31,0.47,0.78,-0.22,-2.91,7.73
1900-01-01 19:53:31.304,19.59,5.31,1.68,0.09,0.34,0.95,-3.7,2.03,1.02,25.76,23.4,1.16,0.38,0.42,0.78,0.45,-1.89,7.21
1900-01-01 19:53:31.471,20.52,5.46,1.99,0.1,0.35,0.94,-2.65,1.47,-0.16,26.81,23.4,2.24,0.38,0.44,0.77,-0.18,-0.01,2.05
1900-01-01 19:53:31.471,20.8,4.77,2.13,0.08,0.36,0.93,-1.05,0.37,-0.28,28.57,22.56,2.55,0.37,0.46,0.76,-1.06,-1.35,0.63
1900-01-01 19:53:31.586,18.92,3.85,2.24,0.07,0.33,0.95,-1.54,-0.1,0.06,25.48,24.1,2.64,0.4,0.42,0.78,-1.73,0.79,0.42
1900-01-01 19:53:31.586,21.08,3.81,2.41,0.07,0.36,0.93,0.6,-0.72,-0.58,28.07,22.15,2.69,0.37,0.46,0.78,-0.66,-0.34,0.3
1900-01-01 19:53:31.708,19.97,3.82,2.48,0.07,0.34,0.94,-1.83,0.37,-0.49,27.62,23.11,2.73,0.38,0.45,0.77,-1.05,0.28,-0.46
1900-01-01 19:53:31.749,19.83,4.27,2.56,0.07,0.34,0.94,-0.48,0.3,-0.75,27.08,23.94,2.65,0.39,0.44,0.77,-1.37,1.23,-0.21
1900-01-01 19:53:31.874,19.64,5.14,2.61,0.09,0.34,0.94,-0.54,0.46,-1.35,27.37,24.48,2.61,0.4,0.45,0.76,-1.0,0.99,0.32
1900-01-01 19:53:32.007,20.5,4.26,2.56,0.07,0.35,0.94,-0.36,1.05,-1.33,27.83,23.65,2.65,0.39,0.45,0.77,-1.93,0.98,0.1
1900-01-01 19:53:32.007,20.74,4.05,2.52,0.07,0.36,0.94,-0.18,-0.31,-1.15,27.54,23.28,2.66,0.38,0.45,0.77,-1.44,1.13,-1.03
1900-01-01 19:53:32.147,20.09,3.27,2.5,0.06,0.34,0.94,1.16,-0.15,-1.36,27.09,23.51,2.49,0.39,0.44,0.77,-0.16,-0.25,0.54
1900-01-01 19:53:32.147,20.43,4.15,2.46,0.07,0.35,0.94,-0.4,-0.12,-1.32,27.44,24.09,2.56,0.4,0.45,0.77,-0.6,0.74,-0.02
1900-01-01 19:53:32.205,20.4,3.72,2.41,0.07,0.35,0.94,-0.99,-0.02,-1.04,27.33,23.83,2.55,0.39,0.44,0.76,-1.67,1.9,-0.53
1900-01-01 19:53:32.287,20.6,4.03,2.41,0.07,0.35,0.94,-1.14,-0.05,-0.81,27.91,23.74,2.47,0.39,0.45,0.76,-2.92,2.37,-0.5
1900-01-01 19:53:32.355,20.35,3.8,2.45,0.07,0.35,0.93,-1.05,-0.52,-1.13,27.79,23.42,2.38,0.39,0.45,0.77,-1.28,1.92,-0.05
1900-01-01 19:53:32.580,20.08,4.09,2.44,0.07,0.35,0.95,-0.98,-0.6,-1.1,26.66,23.96,2.37,0.4,0.44,0.77,-1.63,2.52,-0.17
1900-01-01 19:53:32.580,20.37,3.7,2.43,0.06,0.35,0.94,-1.01,-0.34,-1.03,27.02,23.53,2.33,0.39,0.44,0.77,-2.37,3.03,-0.24
1900-01-01 19:53:32.580,19.62,4.69,2.43,0.08,0.34,0.94,-1.29,-1.04,-0.77,28.06,23.53,2.29,0.39,0.45,0.76,-4.04,4.99,-1.89
1900-01-01 19:53:32.694,19.94,4.56,2.47,0.08,0.35,0.95,-1.74,-1.12,-0.2,26.92,23.75,1.99,0.39,0.44,0.77,-2.95,5.52,1.98
1900-01-01 19:53:32.755,18.82,1.32,2.6,0.02,0.33,0.98,-3.37,-3.4,-2.3,20.27,19.78,2.28,0.34,0.35,0.88,3.14,13.23,1.05
1900-01-01 19:53:32.835,15.62,-1.82,2.41,-0.04,0.3,1.08,2.49,-12.16,-7.08,18.25,16.61,2.43,0.35,0.38,1.1,4.6,-3.98,-9.56
1900-01-01 19:53:32.962,13.72,3.73,1.49,0.07,0.25,1.01,-4.02,-27.83,-18.28,19.9,18.36,0.97,0.34,0.37,0.96,-6.46,-40.61,-16.64
1900-01-01 19:53:32.962,19.67,9.23,-1.17,0.17,0.35,0.97,-4.71,-30.18,-21.73,32.22,25.74,-1.6,0.41,0.5,0.68,-12.61,-41.53,-23.44
1900-01-01 19:53:33.106,24.34,18.06,-4.37,0.3,0.4,0.83,-9.82,-18.71,-18.92,48.4,29.66,-5.24,0.43,0.66,0.39,-1.7,-12.72,-9.09
1900-01-01 19:53:33.106,31.17,23.31,-7.14,0.35,0.46,0.67,5.41,-0.45,-2.79,58.13,24.34,-6.65,0.32,0.66,0.26,19.1,40.89,7.94
1900-01-01 19:53:33.242,28.8,19.63,-7.41,0.3,0.43,0.73,4.08,19.68,11.53,48.75,21.65,-5.45,0.31,0.64,0.46,5.82,60.14,22.14
1900-01-01 19:53:33.285,18.68,10.69,-5.49,0.18,0.31,0.91,0.78,21.4,14.15,28.1,13.8,-2.07,0.25,0.5,0.9,3.65,47.31,20.17
1900-01-01 19:53:33.366,17.31,5.77,-3.16,0.11,0.32,1.01,-2.95,10.87,10.85,23.42,11.14,1.0,0.21,0.43,0.98,-2.66,14.53,12.59
1900-01-01 19:53:33.411,16.93,3.25,-1.35,0.06,0.3,0.98,4.53,7.11,4.74,25.3,10.19,2.92,0.17,0.42,0.87,-0.81,10.14,5.65
1900-01-01 19:53:33.508,18.81,3.54,-0.47,0.06,0.33,0.98,-9.59,7.11,3.42,24.48,11.27,3.76,0.2,0.42,0.9,-25.98,-2.87,7.92
1900-01-01 19:53:33.670,18.11,4.36,0.21,0.08,0.33,1.02,1.88,4.19,-2.63,27.8,16.13,4.96,0.28,0.47,0.85,0.24,-2.28,-0.86
1900-01-01 19:53:33.670,18.29,6.99,-0.03,0.12,0.32,0.95,1.21,0.63,-0.63,28.1,16.09,4.82,0.27,0.45,0.8,-0.34,0.24,-1.06
1900-01-01 19:53:33.794,19.25,5.66,0.03,0.1,0.32,0.92,-1.5,1.99,-0.97,27.18,15.96,4.65,0.26,0.43,0.79,-0.58,-0.49,0.68
1900-01-01 19:53:33.794,19.55,5.56,0.04,0.1,0.35,0.99,-1.19,0.11,-0.22,28.26,15.61,4.75,0.27,0.48,0.85,-1.22,2.08,-0.93
1900-01-01 19:53:33.886,19.77,6.57,0.17,0.11,0.33,0.91,-0.51,-0.18,0.14,28.32,16.15,4.6,0.25,0.43,0.76,-1.95,0.76,1.59
1900-01-01 19:53:33.957,19.14,4.76,0.35,0.09,0.34,0.99,-2.15,0.47,-0.45,27.37,15.97,4.83,0.28,0.48,0.87,-2.37,2.2,-1.74
1900-01-01 19:53:34.113,19.41,6.81,0.44,0.11,0.32,0.91,0.72,-1.74,0.05,29.66,16.29,4.56,0.26,0.45,0.75,-2.85,-1.5,2.29
1900-01-01 19:53:34.113,18.93,5.13,0.6,0.09,0.33,0.96,-1.26,1.26,-1.11,27.46,15.63,4.89,0.27,0.46,0.85,-1.5,1.53,-1.49
1900-01-01 19:53:34.251,19.24,6.47,0.59,0.11,0.33,0.93,-0.5,-1.43,-0.2,28.36,15.59,4.66,0.25,0.45,0.79,-3.08,0.74,0.23
1900-01-01 19:53:34.251,19.25,5.54,0.72,0.1,0.33,0.95,-2.94,0.97,-0.72,27.05,15.53,4.69,0.26,0.44,0.82,-2.23,3.07,-0.75
1900-01-01 19:53:34.358,18.8,6.41,0.77,0.11,0.32,0.93,0.4,-1.51,-0.88,28.05,14.85,4.56,0.24,0.45,0.8,-1.69,-0.62,0.73
1900-01-01 19:53:34.499,18.5,5.94,0.79,0.1,0.31,0.93,-2.19,2.3,-1.44,26.29,15.94,4.67,0.26,0.42,0.81,-0.73,3.21,-0.95
1900-01-01 19:53:34.499,19.41,5.91,0.74,0.11,0.34,0.96,-0.11,-1.82,-1.08,27.82,14.6,4.51,0.25,0.46,0.84,-1.24,0.15,-0.14
1900-01-01 19:53:34.555,18.65,6.39,0.73,0.11,0.31,0.92,-1.34,1.2,-1.05,27.03,16.37,4.48,0.26,0.41,0.77,-2.07,3.01,0.54
1900-01-01 19:53:34.626,18.97,4.76,0.73,0.09,0.34,0.99,-1.08,-0.23,-1.36,26.34,15.05,4.56,0.26,0.45,0.87,-1.43,1.65,-1.13
1900-01-01 19:53:34.769,18.92,6.57,0.68,0.11,0.32,0.91,-1.98,0.18,-0.38,26.6,16.42,4.38,0.26,0.4,0.77,-3.2,1.68,0.86
1900-01-01 19:53:34.769,19.11,4.67,0.78,0.08,0.34,0.97,-1.22,0.01,-0.91,27.07,14.25,4.5,0.25,0.46,0.86,-0.53,2.4,-0.75
1900-01-01 19:53:34.908,18.32,6.31,0.8,0.11,0.31,0.92,-0.23,-1.08,-0.94,26.57,16.86,4.38,0.26,0.4,0.76,-1.82,-0.23,0.52
1900-01-01 19:53:34.946,18.57,4.95,0.82,0.09,0.33,0.98,-1.12,0.46,-1.08,26.98,15.19,4.45,0.27,0.46,0.87,-1.93,1.69,-0.68
1900-01-01 19:53:35.067,18.57,6.42,0.81,0.11,0.31,0.93,-0.1,-1.18,-0.63,27.67,16.25,4.34,0.26,0.43,0.77,-2.89,0.49,0.73
1900-01-01 19:53:35.181,19.43,5.06,0.87,0.09,0.34,0.96,-2.12,1.07,-0.88,27.74,14.73,4.44,0.25,0.47,0.85,-3.23,1.66,-0.32
1900-01-01 19:53:35.181,17.93,5.87,0.9,0.1,0.3,0.93,0.32,-1.24,-0.85,27.06,15.45,4.38,0.25,0.42,0.78,-1.08,-1.08,1.56
1900-01-01 19:53:35.220,18.21,4.92,0.93,0.09,0.32,0.96,-2.45,1.85,-1.44,26.03,15.41,4.61,0.26,0.43,0.85,-1.67,2.69,-0.03
1900-01-01 19:53:35.314,18.62,6.44,0.87,0.11,0.33,0.96,1.4,-2.74,-0.89,27.81,15.31,4.6,0.25,0.45,0.81,0.26,0.11,-0.47
1900-01-01 19:53:35.455,18.24,5.42,0.89,0.09,0.31,0.93,-2.27,1.61,-0.54,25.76,15.6,4.52,0.25,0.41,0.81,-2.79,2.11,0.55
1900-01-01 19:53:35.455,18.04,4.91,0.97,0.09,0.32,0.99,0.59,-2.05,-1.14,25.82,15.3,4.59,0.27,0.44,0.87,0.98,2.14,-1.18
1900-01-01 19:53:35.592,19.05,6.33,0.96,0.11,0.32,0.91,-1.5,0.05,-0.8,27.26,16.6,4.4,0.25,0.41,0.75,-3.75,0.41,0.83
1900-01-01 19:53:35.630,18.93,4.44,0.99,0.08,0.34,0.99,-1.74,1.06,-0.29,25.92,15.63,4.52,0.28,0.45,0.88,-2.55,2.14,-0.64
1900-01-01 19:53:35.885,18.56,6.27,1.11,0.11,0.31,0.91,1.2,-1.02,-1.58,27.85,16.28,4.42,0.25,0.42,0.76,-1.37,-0.44,0.47
1900-01-01 19:53:35.885,18.89,4.76,1.03,0.09,0.34,0.98,-1.44,1.7,-1.06,26.32,15.62,4.48,0.28,0.45,0.87,-2.18,1.72,-0.47
1900-01-01 19:53:35.885,18.2,6.38,1.02,0.11,0.31,0.93,0.79,-1.6,-0.92,27.85,15.64,4.4,0.25,0.43,0.78,-1.41,-0.32,0.64
1900-01-01 19:53:36.015,18.28,4.33,1.04,0.07,0.31,0.94,-1.6,2.07,-1.57,26.26,14.79,4.49,0.25,0.43,0.84,-1.51,2.38,-0.33
1900-01-01 19:53:36.015,18.75,6.15,0.96,0.11,0.33,0.96,0.37,-2.17,-1.08,27.22,15.53,4.43,0.26,0.44,0.82,-0.11,1.17,-1.92
1900-01-01 19:53:36.127,18.91,5.28,0.96,0.09,0.32,0.92,-3.95,0.68,-0.29,26.06,15.35,4.13,0.25,0.41,0.8,-4.43,-0.07,0.23
1900-01-01 19:53:36.163,17.54,4.64,1.07,0.08,0.31,0.99,-1.25,-0.34,-0.1,24.61,16.13,4.16,0.28,0.42,0.87,-1.23,2.21,-0.7
1900-01-01 19:53:36.267,18.2,6.0,1.22,0.1,0.3,0.91,1.37,-1.62,-1.41,26.82,16.04,4.04,0.25,0.41,0.77,-1.15,-0.84,1.68
1900-01-01 19:53:36.300,18.84,4.93,1.16,0.09,0.33,0.97,-0.31,-0.05,-1.31,26.77,16.0,4.29,0.28,0.46,0.86,-0.11,0.3,-1.25
1900-01-01 19:53:36.389,18.61,6.5,1.12,0.11,0.31,0.93,2.36,-2.45,-0.73,28.28,14.48,4.09,0.23,0.43,0.77,-0.88,-1.24,-0.08
1900-01-01 19:53:36.528,17.49,4.36,1.17,0.07,0.29,0.93,-2.88,6.27,-0.63,24.84,15.73,4.07,0.26,0.4,0.83,-3.75,2.46,0.79
1900-01-01 19:53:36.528,17.61,6.12,1.23,0.11,0.32,0.99,1.03,0.2,-0.78,25.36,17.06,4.18,0.29,0.42,0.84,-3.23,6.4,-2.47
1900-01-01 19:53:36.685,18.27,4.67,1.27,0.08,0.31,0.94,-3.13,3.27,-1.04,25.06,16.08,3.8,0.27,0.41,0.83,-5.17,0.31,3.05
1900-01-01 19:53:36.685,18.75,4.57,1.27,0.08,0.34,0.99,0.07,-1.09,-0.1,25.31,16.59,4.25,0.28,0.42,0.85,-0.56,2.15,-2.01
1900-01-01 19:53:36.834,17.83,4.78,1.41,0.08,0.3,0.92,-1.02,0.04,0.11,24.81,15.72,3.93,0.25,0.38,0.79,-2.73,0.95,0.79
1900-01-01 19:53:36.834,18.0,3.81,1.59,0.07,0.32,0.99,-1.89,0.02,-0.79,24.72,16.3,4.05,0.28,0.42,0.87,-1.03,1.82,-1.5
1900-01-01 19:53:36.956,18.5,5.12,1.63,0.09,0.31,0.91,0.99,-1.36,-0.45,26.91,15.02,3.81,0.23,0.41,0.77,-0.72,0.93,0.51
1900-01-01 19:53:37.082,17.88,3.28,1.72,0.06,0.31,0.96,-2.99,2.03,-1.11,23.58,15.78,3.88,0.27,0.39,0.86,-3.13,0.66,0.91
1900-01-01 19:53:37.082,18.95,6.2,1.71,0.11,0.33,0.96,0.82,-2.24,-0.75,25.47,16.5,4.01,0.27,0.41,0.82,-0.76,2.52,-0.6
1900-01-01 19:53:37.195,17.98,3.25,1.75,0.06,0.3,0.93,-2.37,0.86,-1.0,24.49,15.15,3.91,0.25,0.39,0.83,-4.86,2.56,1.14
1900-01-01 19:53:37.195,17.66,4.94,1.76,0.09,0.31,0.98,0.3,-2.13,-0.92,24.35,16.15,4.07,0.27,0.4,0.85,-1.3,3.37,-1.85
1900-01-01 19:53:37.329,18.71,4.7,1.78,0.08,0.31,0.91,-1.39,1.18,-0.63,24.93,14.98,3.78,0.24,0.39,0.8,-3.6,0.58,1.53
1900-01-01 19:53:37.369,17.91,3.77,1.84,0.07,0.32,1.0,-0.95,1.12,-1.37,23.69,16.52,4.01,0.29,0.41,0.88,-0.56,1.47,-0.44
1900-01-01 19:53:37.479,18.82,5.41,1.79,0.09,0.32,0.93,1.14,-1.86,-1.1,25.21,15.38,3.93,0.25,0.4,0.8,0.37,1.43,-0.68
1900-01-01 19:53:37.596,18.32,3.09,1.78,0.05,0.31,0.93,-2.42,0.95,-1.47,23.45,14.59,3.82,0.24,0.38,0.84,-2.11,-0.39,0.75
1900-01-01 19:53:37.596,18.52,4.42,1.72,0.08,0.34,1.0,-0.97,-1.91,-0.97,24.23,16.34,3.92,0.28,0.41,0.87,-2.65,3.69,-1.52
1900-01-01 19:53:37.732,18.56,4.28,1.73,0.07,0.31,0.91,0.66,0.23,-0.82,24.46,14.4,3.68,0.23,0.38,0.8,-1.89,1.4,0.66
1900-01-01 19:53:37.732,17.73,4.15,1.77,0.07,0.31,0.98,-0.49,1.44,-1.6,23.56,16.43,3.77,0.28,0.4,0.87,-0.09,0.98,0.0
1900-01-01 19:53:37.887,19.08,5.33,1.68,0.09,0.33,0.95,-0.4,-1.66,-0.47,25.6,15.45,3.77,0.26,0.41,0.83,-0.94,1.59,0.11
1900-01-01 19:53:37.887,18.18,3.39,1.77,0.06,0.31,0.94,-1.03,-0.25,-0.72,23.76,14.76,3.77,0.24,0.38,0.83,-1.12,0.62,0.84
1900-01-01 19:53:38.000,18.63,4.76,1.82,0.08,0.33,0.96,-0.69,-0.47,-1.19,24.82,16.29,3.89,0.27,0.41,0.84,-0.79,1.19,-0.37
1900-01-01 19:53:38.034,18.43,5.01,1.8,0.09,0.32,0.95,0.27,-1.61,-0.45,24.77,15.62,3.83,0.26,0.4,0.83,-1.08,1.36,-0.04
1900-01-01 19:53:38.123,18.28,4.18,1.89,0.07,0.31,0.94,-1.37,0.98,-0.97,23.71,15.26,3.81,0.25,0.38,0.84,-2.25,1.0,1.05
1900-01-01 19:53:38.269,18.31,5.01,1.9,0.09,0.32,0.98,-1.37,-0.56,-0.63,24.68,16.58,3.96,0.28,0.41,0.85,-1.22,2.38,-0.72
1900-01-01 19:53:38.269,18.31,4.53,1.96,0.08,0.31,0.92,0.25,-1.57,-0.53,25.23,14.52,3.85,0.23,0.4,0.81,-0.91,1.1,0.41
1900-01-01 19:53:38.395,17.55,4.25,2.04,0.08,0.31,0.96,-0.88,0.28,-1.42,23.5,16.36,3.9,0.27,0.39,0.85,-0.92,0.44,0.08
1900-01-01 19:53:38.431,19.73,5.56,1.99,0.1,0.34,0.94,0.79,-1.16,-0.84,26.34,15.33,3.9,0.25,0.42,0.81,-0.95,0.02,0.09
1900-01-01 19:53:38.545,17.83,3.51,2.02,0.06,0.3,0.94,-1.68,1.33,-0.93,23.49,15.51,3.91,0.26,0.39,0.85,-2.57,-0.11,0.89
1900-01-01 19:53:38.660,18.15,5.04,2.03,0.09,0.33,0.99,-1.1,-1.72,-0.58,24.69,17.12,4.04,0.29,0.42,0.86,0.27,2.47,-1.54
1900-01-01 19:53:38.660,18.67,4.73,2.1,0.08,0.31,0.91,-0.21,-0.15,-0.51,25.69,15.09,3.79,0.23,0.39,0.78,-2.74,1.35,0.95
1900-01-01 19:53:38.794,17.96,3.61,2.18,0.06,0.32,0.98,-1.64,0.77,-1.31,23.47,16.33,3.93,0.28,0.4,0.87,-1.05,1.15,-0.21
1900-01-01 19:53:38.794,19.22,6.25,2.14,0.11,0.33,0.94,1.65,-2.56,-1.09,26.03,15.88,3.89,0.26,0.41,0.81,1.18,1.08,-1.05
1900-01-01 19:53:38.932,18.05,3.49,2.14,0.06,0.31,0.93,-2.05,1.68,-0.67,23.43,15.2,3.72,0.25,0.38,0.84,-3.28,0.79,1.48
1900-01-01 19:53:39.055,18.12,4.85,2.19,0.09,0.32,0.98,-0.89,-0.83,-0.96,24.91,17.11,3.94,0.29,0.42,0.85,-0.27,2.17,-1.0
1900-01-01 19:53:39.055,18.96,5.06,2.21,0.08,0.31,0.91,0.08,-0.93,-0.7,26.61,15.03,3.78,0.24,0.41,0.78,-2.06,0.21,0.8
1900-01-01 19:53:39.094,17.84,3.92,2.26,0.07,0.31,0.96,-2.81,0.77,-0.69,22.02,16.63,3.89,0.28,0.37,0.87,-2.4,-0.29,0.48
1900-01-01 19:53:39.179,19.06,5.71,2.31,0.1,0.34,0.97,0.62,-2.88,-0.82,25.55,16.31,3.96,0.27,0.42,0.83,-0.15,1.54,-1.4
1900-01-01 19:53:39.315,17.63,4.1,2.35,0.07,0.3,0.94,-1.44,1.42,-0.72,23.18,15.92,3.73,0.26,0.37,0.82,-2.7,1.73,1.18
1900-01-01 19:53:39.315,18.3,4.96,2.4,0.09,0.32,0.97,-0.99,1.07,-1.18,24.79,16.82,3.9,0.29,0.41,0.85,-1.21,2.83,-0.15
1900-01-01 19:53:39.456,18.93,5.17,2.37,0.09,0.32,0.93,-0.32,-1.71,-0.45,25.25,15.22,3.87,0.24,0.4,0.81,-0.92,1.56,-0.02
1900-01-01 19:53:39.500,17.95,3.59,2.46,0.06,0.3,0.93,-1.21,1.15,-1.6,23.44,15.4,3.86,0.25,0.38,0.83,-1.25,-0.59,0.95
1900-01-01 19:53:39.587,18.08,5.35,2.38,0.1,0.32,0.99,-1.13,-0.39,-1.39,24.81,17.45,4.0,0.3,0.42,0.86,-0.82,1.8,-0.84
1900-01-01 19:53:39.623,18.16,4.66,2.33,0.08,0.3,0.92,-0.06,-0.78,-0.74,24.9,15.58,3.86,0.25,0.39,0.8,-1.81,0.74,0.62
1900-01-01 19:53:39.715,17.79,3.67,2.37,0.06,0.31,0.96,-1.21,0.49,-1.34,23.62,16.25,3.95,0.27,0.39,0.85,-1.12,0.89,-0.16
1900-01-01 19:53:39.848,18.32,5.67,2.33,0.1,0.32,0.97,-0.31,-1.62,-0.89,24.86,16.72,3.91,0.28,0.41,0.84,-0.37,2.08,-1.01
1900-01-01 19:53:39.848,18.13,4.09,2.35,0.07,0.3,0.92,0.02,0.54,-0.77,23.42,15.31,3.75,0.24,0.37,0.81,-1.52,-0.73,1.62
1900-01-01 19:53:39.996,18.17,4.52,2.39,0.08,0.32,0.98,-1.2,1.28,-1.24,24.41,17.48,3.99,0.3,0.41,0.86,-1.28,1.13,0.15
1900-01-01 19:53:39.996,18.13,5.16,2.36,0.09,0.31,0.96,0.44,-1.36,-0.68,25.15,16.25,4.0,0.27,0.41,0.82,-0.56,2.11,-0.64
1900-01-01 19:53:40.128,18.1,3.42,2.42,0.06,0.3,0.93,-1.11,0.96,-0.7,23.84,15.34,3.9,0.25,0.38,0.82,-1.82,1.13,0.95
1900-01-01 19:53:40.162,18.1,4.71,2.47,0.08,0.32,0.97,-0.81,0.12,-1.11,24.39,17.46,4.03,0.3,0.41,0.85,-0.53,1.91,-0.4
1900-01-01 19:53:40.244,18.45,4.96,2.46,0.09,0.32,0.95,-0.34,-1.13,-0.24,24.87,16.34,3.96,0.27,0.4,0.82,-1.27,2.31,-0.16
1900-01-01 19:53:40.383,18.15,3.63,2.58,0.06,0.31,0.94,-0.65,-0.15,-0.98,24.68,15.76,3.93,0.26,0.4,0.83,-1.19,1.56,0.47
1900-01-01 19:53:40.383,18.47,4.34,2.59,0.08,0.32,0.95,-0.36,0.02,-0.75,24.39,15.87,3.99,0.26,0.4,0.83,-1.77,1.05,0.67
1900-01-01 19:53:40.517,17.88,4.45,2.64,0.08,0.31,0.96,0.18,-0.47,-1.18,23.64,16.56,4.09,0.28,0.39,0.85,-0.22,1.38,1.03
1900-01-01 19:53:40.551,18.54,4.24,2.62,0.08,0.32,0.96,-0.89,-0.95,-1.6,25.04,16.11,4.23,0.27,0.41,0.84,1.85,2.47,0.17
1900-01-01 19:53:40.662,18.83,4.55,2.53,0.08,0.33,0.95,-1.73,-1.51,-0.87,25.1,16.04,4.25,0.27,0.41,0.83,-2.2,1.53,-1.7
1900-01-01 19:53:40.778,18.51,4.99,2.56,0.09,0.32,0.94,-1.13,-1.42,-1.02,24.96,16.23,3.98,0.26,0.4,0.81,-2.7,0.75,-0.93
1900-01-01 19:53:40.778,18.29,5.03,2.56,0.09,0.31,0.95,-0.56,0.24,-1.23,24.62,15.91,3.83,0.26,0.4,0.83,-1.5,2.75,-0.21
1900-01-01 19:53:40.909,17.83,5.25,2.53,0.09,0.31,0.96,-0.35,-0.6,-1.49,24.53,16.68,3.79,0.28,0.4,0.83,-0.72,1.85,-1.99
1900-01-01 19:53:40.909,19.32,5.46,2.47,0.1,0.33,0.95,-0.37,-0.92,-0.51,26.0,15.4,3.48,0.26,0.43,0.83,-1.38,0.83,-0.27
1900-01-01 19:53:41.053,18.21,4.28,2.55,0.07,0.31,0.94,0.05,-0.36,-0.6,24.92,15.57,3.43,0.25,0.39,0.81,-1.15,-0.11,1.45
1900-01-01 19:53:41.090,18.01,4.08,2.61,0.07,0.31,0.95,-0.95,0.16,-0.99,24.32,15.14,3.64,0.25,0.4,0.85,-2.13,2.02,0.19
1900-01-01 19:53:41.137,18.44,5.05,2.62,0.09,0.32,0.95,0.45,-1.57,-1.5,24.8,16.25,3.66,0.27,0.4,0.83,-0.56,-0.49,0.18
1900-01-01 19:53:41.230,18.27,5.32,2.55,0.09,0.31,0.94,0.36,-0.74,-1.53,24.82,16.42,3.68,0.27,0.4,0.82,0.03,0.61,0.24
1900-01-01 19:53:41.290,18.82,5.04,2.48,0.09,0.33,0.95,-1.02,0.06,-1.02,24.67,16.11,3.71,0.27,0.41,0.84,-1.93,0.63,1.01
1900-01-01 19:53:41.429,18.55,5.11,2.48,0.09,0.32,0.95,-0.83,-0.09,-1.31,24.83,16.71,3.86,0.28,0.4,0.83,-1.33,1.85,-0.43
1900-01-01 19:53:41.467,18.71,5.16,2.44,0.09,0.32,0.96,-1.56,-0.08,-0.67,25.24,16.32,3.78,0.27,0.41,0.84,-2.05,2.34,-1.08
1900-01-01 19:53:41.567,18.25,4.94,2.5,0.09,0.32,0.96,-0.95,-0.66,-0.32,24.56,16.48,3.61,0.28,0.4,0.84,-1.72,2.0,-0.61
1900-01-01 19:53:41.726,18.75,5.42,2.61,0.09,0.32,0.94,0.42,-1.21,-0.73,25.18,15.99,3.51,0.26,0.41,0.82,-0.65,0.6,-0.21
1900-01-01 19:53:41.726,18.59,4.72,2.66,0.08,0.32,0.94,-1.41,0.01,-0.58,25.03,16.05,3.47,0.26,0.4,0.81,-2.36,0.89,1.21
1900-01-01 19:53:41.819,18.52,4.57,2.73,0.08,0.32,0.95,-0.87,0.69,-1.28,24.63,15.92,3.64,0.26,0.4,0.84,-1.55,1.48,-0.15
1900-01-01 19:53:41.819,18.73,5.24,2.69,0.09,0.33,0.96,-0.89,-0.21,-1.16,25.73,15.62,3.61,0.26,0.42,0.84,-1.14,1.86,-0.76
1900-01-01 19:53:41.955,18.51,4.95,2.67,0.09,0.32,0.94,-0.16,-0.32,-0.82,24.85,16.02,3.49,0.26,0.4,0.81,-1.71,1.5,0.78
1900-01-01 19:53:41.991,18.19,4.53,2.71,0.08,0.31,0.94,-0.82,0.63,-1.36,24.26,15.95,3.6,0.26,0.39,0.83,-1.44,1.31,-0.22
1900-01-01 19:53:42.099,18.62,5.12,2.66,0.09,0.33,0.96,-0.92,0.02,-0.84,25.16,16.38,3.56,0.28,0.42,0.85,-1.97,1.67,-0.31
1900-01-01 19:53:42.217,18.18,5.18,2.69,0.09,0.32,0.96,-0.53,-1.46,-0.56,24.73,16.06,3.5,0.27,0.41,0.84,-0.37,1.38,-0.44
1900-01-01 19:53:42.217,18.69,4.89,2.76,0.08,0.32,0.94,0.18,-0.87,-0.97,25.38,15.37,3.42,0.25,0.41,0.82,-0.56,0.53,0.54
1900-01-01 19:53:42.347,18.17,4.48,2.78,0.08,0.31,0.95,-1.02,0.23,-1.08,24.02,15.97,3.5,0.26,0.39,0.83,-1.33,1.59,-0.09
1900-01-01 19:53:42.461,18.97,5.6,2.77,0.1,0.33,0.95,-0.93,-0.02,-1.33,25.28,16.59,3.47,0.28,0.42,0.84,-1.22,1.51,-0.42
1900-01-01 19:53:42.461,18.38,5.28,2.73,0.09,0.32,0.96,-1.05,-0.47,-0.57,25.18,15.88,3.4,0.26,0.41,0.83,-1.48,1.92,-0.34
1900-01-01 19:53:42.504,18.14,4.83,2.8,0.08,0.31,0.94,0.08,-0.4,-0.69,24.67,15.62,3.34,0.26,0.4,0.83,-1.06,1.5,0.92
1900-01-01 19:53:42.594,18.37,4.77,2.85,0.08,0.32,0.95,-0.95,0.23,-1.18,24.58,15.88,3.47,0.26,0.4,0.83,-1.43,1.17,0.06
1900-01-01 19:53:42.733,18.68,5.48,2.83,0.1,0.32,0.95,-1.18,0.28,-0.73,24.97,16.53,3.47,0.28,0.41,0.83,-1.91,1.93,-0.21
1900-01-01 19:53:42.733,19.21,5.24,2.88,0.09,0.33,0.95,0.08,-1.29,-0.98,25.02,15.5,3.43,0.26,0.41,0.83,-0.55,1.1,-0.05
1900-01-01 19:53:42.869,18.11,4.34,2.89,0.08,0.31,0.94,-0.17,-0.27,-1.18,23.99,15.7,3.42,0.26,0.38,0.82,-1.14,1.23,0.36
1900-01-01 19:53:42.912,18.38,5.18,2.87,0.09,0.32,0.95,-1.42,0.35,-1.37,24.49,16.66,3.46,0.28,0.4,0.84,-1.69,1.56,-0.4
1900-01-01 19:53:43.023,18.76,5.83,2.82,0.1,0.33,0.96,-1.37,0.02,-0.8,25.35,16.61,3.39,0.28,0.42,0.83,-1.81,1.98,-0.39
1900-01-01 19:53:43.161,18.54,4.7,2.85,0.08,0.32,0.96,-0.63,-0.97,-0.38,24.41,15.39,3.32,0.26,0.4,0.84,-0.82,1.88,0.07
1900-01-01 19:53:43.161,18.41,4.51,2.96,0.08,0.31,0.93,0.04,-0.11,-1.1,24.76,15.31,3.33,0.25,0.39,0.81,-1.3,1.41,0.6
1900-01-01 19:53:43.269,17.96,4.75,2.95,0.08,0.32,0.97,-1.38,0.02,-1.05,23.97,16.32,3.41,0.28,0.4,0.85,-1.56,1.69,-0.38
1900-01-01 19:53:43.269,18.99,5.53,2.95,0.1,0.33,0.94,-1.14,-0.17,-0.79,25.65,15.86,3.34,0.26,0.41,0.82,-1.74,2.04,-0.37
1900-01-01 19:53:43.394,18.13,4.57,2.98,0.08,0.31,0.95,-0.82,-0.15,-0.7,23.98,15.28,3.28,0.25,0.39,0.84,-1.21,1.68,-0.11
1900-01-01 19:53:43.443,18.6,4.91,3.04,0.09,0.32,0.95,0.89,-1.02,-1.31,24.75,15.48,3.25,0.25,0.4,0.83,-0.79,1.0,0.4
1900-01-01 19:53:43.536,18.17,4.71,3.0,0.08,0.31,0.95,-1.08,0.64,-1.14,24.39,15.55,3.3,0.26,0.4,0.84,-1.22,1.37,0.42
1900-01-01 19:53:43.577,18.53,4.99,2.98,0.09,0.32,0.95,-0.32,-0.25,-1.19,25.25,16.05,3.36,0.27,0.41,0.83,-1.13,0.91,0.02
1900-01-01 19:53:43.646,18.1,4.82,2.96,0.08,0.31,0.95,-1.05,-0.15,-0.8,24.27,16.09,3.35,0.27,0.4,0.84,-1.43,1.66,-0.2
1900-01-01 19:53:43.783,18.41,5.01,3.0,0.09,0.32,0.95,-1.15,-0.05,-0.85,24.94,15.71,3.31,0.26,0.41,0.83,-1.34,1.79,-0.52
1900-01-01 19:53:43.847,18.85,4.49,3.03,0.08,0.32,0.94,0.57,-0.77,-0.93,24.67,14.65,3.23,0.24,0.4,0.83,-0.51,0.98,0.4
1900-01-01 19:53:43.917,17.99,4.28,3.04,0.07,0.31,0.95,-0.35,0.34,-1.48,24.39,15.33,3.28,0.25,0.4,0.83,-0.95,1.36,0.0
1900-01-01 19:53:43.955,18.7,5.34,2.98,0.09,0.32,0.95,-0.76,-0.34,-1.08,25.02,16.05,3.27,0.27,0.41,0.83,-1.34,1.22,-0.09
1900-01-01 19:53:44.037,18.48,4.72,2.97,0.08,0.32,0.95,-0.84,-0.2,-1.02,24.64,15.62,3.25,0.26,0.4,0.83,-1.44,1.21,0.17
1900-01-01 19:53:44.172,18.35,4.75,2.98,0.08,0.32,0.95,-0.73,0.01,-1.05,24.83,15.8,3.27,0.26,0.4,0.83,-1.34,1.46,-0.3
1900-01-01 19:53:44.172,18.31,4.87,2.98,0.09,0.32,0.96,-1.31,-0.71,-0.55,25.12,15.52,3.21,0.26,0.41,0.84,-1.29,1.64,-0.5
1900-01-01 19:53:44.306,18.65,4.57,3.05,0.08,0.32,0.93,0.71,-0.98,-1.37,25.12,15.13,3.13,0.24,0.4,0.81,-0.62,0.44,0.57
1900-01-01 19:53:44.348,18.13,4.42,3.0,0.08,0.31,0.96,-0.93,0.25,-1.29,24.04,15.96,3.21,0.27,0.4,0.85,-1.44,1.66,0.17
1900-01-01 19:53:44.453,18.88,5.45,2.97,0.1,0.33,0.95,-1.15,-0.73,-1.05,25.25,15.9,3.22,0.26,0.41,0.83,-1.85,1.57,0.29
1900-01-01 19:53:44.566,18.46,4.78,2.96,0.08,0.32,0.94,-0.65,-0.52,-0.92,24.3,15.48,3.26,0.25,0.39,0.83,-1.23,1.13,0.44
1900-01-01 19:53:44.566,18.44,4.55,2.98,0.08,0.32,0.95,-0.71,-0.38,-1.07,24.45,15.6,3.32,0.26,0.4,0.84,-1.06,1.05,0.25
1900-01-01 19:53:44.716,18.71,5.26,2.98,0.09,0.32,0.95,-1.03,-0.45,-0.87,24.77,16.13,3.35,0.27,0.41,0.84,-1.34,1.15,-0.27
1900-01-01 19:53:44.716,18.61,4.98,3.0,0.09,0.33,0.96,-0.86,-0.98,-0.44,24.79,15.51,3.3,0.26,0.41,0.84,-1.41,1.81,-0.46
1900-01-01 19:53:44.805,18.48,4.32,3.1,0.07,0.31,0.93,0.17,-0.03,-1.0,24.48,14.82,3.22,0.24,0.39,0.82,-1.64,0.73,0.89
1900-01-01 19:53:44.857,17.97,4.76,3.1,0.08,0.31,0.96,-0.91,-0.06,-1.31,23.89,16.21,3.34,0.27,0.39,0.85,-1.39,1.33,-0.23
1900-01-01 19:53:44.947,19.3,5.94,3.06,0.1,0.33,0.94,-0.61,0.06,-0.66,26.28,15.93,3.3,0.26,0.42,0.82,-2.31,0.63,0.67
1900-01-01 19:53:45.087,17.07,4.43,3.12,0.08,0.3,0.97,-3.66,-0.3,-0.09,21.12,16.75,3.39,0.28,0.35,0.87,-3.4,1.3,0.58
1900-01-01 19:53:45.087,19.23,5.6,3.26,0.1,0.33,0.94,0.65,-1.7,-1.22,25.2,15.31,3.47,0.25,0.4,0.81,-0.23,1.03,-0.24
1900-01-01 19:53:45.222,17.81,4.52,3.24,0.08,0.31,0.96,-1.33,0.64,-0.85,23.04,16.07,3.43,0.27,0.38,0.85,-1.82,1.66,0.52
1900-01-01 19:53:45.260,18.46,5.71,3.27,0.1,0.32,0.95,-1.29,-0.03,-0.66,24.92,16.64,3.5,0.28,0.41,0.83,-2.05,2.02,-0.05
1900-01-01 19:53:45.368,18.19,4.83,3.33,0.08,0.31,0.95,-0.89,-0.1,-0.51,23.78,15.49,3.48,0.26,0.39,0.84,-1.18,1.6,0.05
1900-01-01 19:53:45.495,18.34,4.64,3.41,0.08,0.31,0.94,-0.09,-0.05,-1.34,23.61,15.58,3.48,0.26,0.38,0.83,-1.31,0.79,0.6
1900-01-01 19:53:45.495,18.47,5.25,3.36,0.09,0.32,0.96,-0.46,-0.16,-1.21,24.19,16.28,3.56,0.27,0.4,0.84,-1.12,1.83,0.06
1900-01-01 19:53:45.593,18.04,5.02,3.34,0.09,0.31,0.95,-1.18,-0.73,-1.06,24.01,15.82,3.56,0.26,0.39,0.84,-1.02,1.5,-0.37
1900-01-01 19:53:45.630,18.2,4.84,3.33,0.08,0.31,0.95,-1.15,-0.21,-0.59,24.13,15.58,3.5,0.26,0.39,0.84,-1.33,1.69,-0.37
1900-01-01 19:53:45.722,18.06,4.69,3.4,0.08,0.31,0.94,0.31,-0.56,-1.35,23.93,15.13,3.44,0.25,0.38,0.83,-0.37,0.56,0.44
1900-01-01 19:53:45.765,18.46,4.65,3.36,0.08,0.32,0.95,-0.32,0.56,-1.6,24.41,16.05,3.49,0.27,0.4,0.84,-1.51,0.04,0.68
1900-01-01 19:53:45.849,17.66,5.45,3.27,0.1,0.31,0.98,-1.12,-0.67,-0.96,23.66,17.18,3.59,0.29,0.39,0.85,-1.12,1.82,-0.77
1900-01-01 19:53:45.993,18.55,5.45,3.29,0.1,0.32,0.95,-1.33,-0.81,-0.03,24.49,15.78,3.46,0.26,0.4,0.84,-1.79,2.21,-0.59
1900-01-01 19:53:45.993,18.15,4.57,3.44,0.08,0.31,0.93,0.18,-0.37,-1.02,24.24,15.04,3.36,0.24,0.38,0.82,-0.92,1.19,0.48
1900-01-01 19:53:46.118,18.09,4.43,3.44,0.08,0.31,0.95,-0.98,1.07,-1.38,23.25,15.81,3.43,0.26,0.38,0.85,-1.78,0.65,0.96
1900-01-01 19:53:46.161,18.37,5.21,3.39,0.09,0.32,0.97,0.52,-0.15,-1.79,23.91,16.75,3.57,0.28,0.4,0.85,-0.74,1.79,0.15
1900-01-01 19:53:46.259,18.58,4.99,3.28,0.09,0.32,0.94,-0.8,-0.46,-1.1,24.89,15.99,3.58,0.26,0.4,0.82,-1.42,1.33,-0.17
1900-01-01 19:53:46.356,18.02,4.49,3.27,0.08,0.31,0.95,-1.08,-0.15,-0.47,23.42,16.07,3.55,0.27,0.38,0.84,-1.77,1.6,-0.11
1900-01-01 19:53:46.390,18.24,5.09,3.36,0.09,0.32,0.95,-1.05,-0.39,-0.61,24.34,15.99,3.52,0.27,0.4,0.84,-1.45,2.02,-0.31
1900-01-01 19:53:46.519,18.04,4.63,3.42,0.08,0.31,0.95,-1.03,-0.32,-0.69,23.59,15.56,3.47,0.26,0.38,0.84,-1.36,1.7,-0.16
1900-01-01 19:53:46.633,18.37,4.76,3.48,0.08,0.32,0.95,-1.06,-0.12,-0.69,23.9,15.72,3.43,0.26,0.39,0.84,-1.67,1.77,-0.01
1900-01-01 19:53:46.633,17.95,4.91,3.53,0.09,0.31,0.96,-0.85,-0.4,-0.7,23.75,15.87,3.42,0.26,0.39,0.84,-1.34,2.34,-0.35
1900-01-01 19:53:46.687,18.59,4.95,3.58,0.09,0.32,0.94,0.34,-0.62,-1.18,24.0,14.96,3.36,0.24,0.39,0.83,-0.71,1.11,0.44
1900-01-01 19:53:46.749,18.01,4.54,3.56,0.08,0.31,0.95,-0.66,0.35,-1.36,23.47,15.59,3.42,0.26,0.38,0.85,-1.41,0.84,0.57
1900-01-01 19:53:46.867,18.23,5.24,3.51,0.09,0.32,0.96,-0.81,-0.35,-0.91,24.27,16.03,3.5,0.27,0.4,0.84,-1.2,1.4,-0.01
1900-01-01 19:53:46.912,17.83,4.72,3.53,0.08,0.31,0.96,-0.73,-0.01,-0.84,23.7,16.01,3.49,0.27,0.39,0.84,-1.25,1.55,0.09
1900-01-01 19:53:47.129,18.2,5.02,3.56,0.09,0.31,0.95,-0.45,-0.25,-0.9,24.18,15.78,3.49,0.26,0.39,0.83,-1.19,1.63,0.04
1900-01-01 19:53:47.129,18.27,4.43,3.59,0.08,0.32,0.95,-0.99,-0.11,-0.76,23.59,15.26,3.49,0.25,0.39,0.84,-1.47,1.62,0.01
1900-01-01 19:53:47.175,18.34,4.92,3.63,0.09,0.31,0.94,-0.73,-0.21,-0.99,24.06,15.49,3.48,0.26,0.39,0.83,-1.49,1.14,0.15
1900-01-01 19:53:47.260,17.86,4.99,3.64,0.09,0.31,0.96,-1.04,-0.36,-0.85,23.63,16.07,3.5,0.27,0.39,0.84,-1.37,1.79,-0.26
1900-01-01 19:53:47.301,18.49,4.93,3.67,0.09,0.32,0.95,-0.86,-0.54,-0.66,24.21,15.18,3.45,0.25,0.39,0.84,-1.31,1.73,-0.08
1900-01-01 19:53:47.378,17.64,4.15,3.73,0.07,0.3,0.94,-0.14,0.1,-1.37,23.62,15.31,3.43,0.25,0.38,0.83,-1.31,0.15,0.86
1900-01-01 19:53:47.431,18.14,5.1,3.68,0.09,0.32,0.96,-0.73,-0.23,-1.11,23.9,16.37,3.55,0.28,0.4,0.85,-1.08,1.24,-0.22
1900-01-01 19:53:47.531,18.34,5.07,3.67,0.09,0.32,0.95,-0.85,-0.55,-0.68,23.95,15.69,3.51,0.26,0.39,0.84,-1.43,1.44,0.05
1900-01-01 19:53:47.643,18.3,4.21,3.72,0.07,0.31,0.95,-0.63,-0.24,-0.94,23.54,15.34,3.51,0.25,0.38,0.84,-1.31,1.26,0.11
1900-01-01 19:53:47.770,18.31,5.03,3.74,0.09,0.32,0.95,-0.39,-0.31,-1.17,24.33,15.92,3.52,0.26,0.4,0.84,-1.05,1.11,-0.11
1900-01-01 19:53:47.770,17.9,4.79,3.72,0.08,0.31,0.96,-0.67,-0.37,-0.95,23.8,15.8,3.49,0.26,0.39,0.84,-1.15,1.42,-0.11
1900-01-01 19:53:47.809,18.19,4.53,3.73,0.08,0.31,0.95,-0.86,-0.25,-0.9,23.81,15.51,3.46,0.26,0.39,0.84,-1.55,1.59,-0.09
1900-01-01 19:53:47.888,18.1,4.81,3.75,0.08,0.31,0.94,-0.67,-0.07,-1.05,23.81,15.71,3.44,0.26,0.39,0.83,-1.48,1.23,0.14
1900-01-01 19:53:48.038,17.95,5.02,3.75,0.09,0.31,0.96,-0.66,-0.43,-0.92,24.16,15.92,3.45,0.26,0.4,0.84,-1.1,1.37,-0.18
1900-01-01 19:53:48.038,18.22,4.7,3.77,0.08,0.31,0.95,-0.72,-0.43,-0.85,23.66,15.51,3.42,0.26,0.38,0.84,-1.17,1.33,-0.08
1900-01-01 19:53:48.170,18.29,4.73,3.8,0.08,0.32,0.95,-0.39,-0.37,-0.99,24.18,15.52,3.4,0.26,0.39,0.84,-1.2,1.56,-0.02
1900-01-01 19:53:48.205,17.67,4.97,3.81,0.09,0.31,0.95,-0.94,-0.27,-1.02,23.74,15.74,3.39,0.26,0.39,0.84,-1.13,1.24,-0.19
1900-01-01 19:53:48.296,18.15,4.94,3.81,0.09,0.32,0.96,-1.28,-0.09,-0.65,23.76,15.7,3.35,0.26,0.39,0.84,-1.57,1.76,-0.2
1900-01-01 19:53:48.419,18.67,4.77,3.87,0.08,0.32,0.93,0.82,-0.78,-1.42,24.41,15.12,3.31,0.24,0.39,0.82,-0.56,0.69,0.36
1900-01-01 19:53:48.550,17.89,4.53,3.81,0.08,0.31,0.96,-0.76,-0.05,-1.13,23.48,15.84,3.35,0.26,0.39,0.85,-1.21,1.0,0.02
1900-01-01 19:53:48.634,18.2,5.23,3.8,0.09,0.32,0.96,-1.2,-0.54,-0.53,24.06,15.93,3.35,0.27,0.4,0.85,-1.63,1.93,-0.32
1900-01-01 19:53:48.634,17.96,4.68,3.88,0.08,0.31,0.95,-0.82,-0.39,-0.86,23.77,14.97,3.29,0.25,0.38,0.84,-1.4,1.46,-0.03
1900-01-01 19:53:48.677,18.03,4.66,3.9,0.08,0.31,0.95,-0.73,-0.16,-0.87,23.65,15.41,3.28,0.26,0.39,0.85,-1.47,1.22,-0.05
1900-01-01 19:53:48.774,18.18,4.97,3.93,0.09,0.31,0.95,-0.62,-0.3,-1.05,23.94,15.42,3.26,0.25,0.39,0.84,-1.44,1.33,0.11
1900-01-01 19:53:48.811,17.98,4.83,3.93,0.08,0.31,0.96,-0.79,-0.06,-0.81,23.65,15.65,3.27,0.26,0.39,0.84,-1.47,1.4,-0.12
1900-01-01 19:53:48.903,18.34,5.08,3.96,0.09,0.32,0.95,0.13,-0.11,-0.67,23.88,15.51,3.24,0.26,0.39,0.84,-0.73,1.68,-0.7
1900-01-01 19:53:48.955,18.19,4.72,4.02,0.08,0.31,0.95,-0.76,-0.43,-0.78,23.91,15.16,3.13,0.25,0.39,0.84,-1.47,1.45,-0.18
1900-01-01 19:53:49.023,18.22,4.98,4.06,0.09,0.31,0.95,-1.08,-0.19,-0.78,23.68,15.25,3.09,0.25,0.39,0.84,-1.65,1.23,0.05
1900-01-01 19:53:49.160,18.68,4.92,4.1,0.09,0.32,0.95,-0.14,-1.05,-1.18,24.11,15.28,3.09,0.25,0.39,0.83,-0.43,1.45,0.11
1900-01-01 19:53:49.198,18.1,4.44,4.08,0.08,0.31,0.95,-0.3,-0.11,-1.23,23.76,15.07,3.1,0.25,0.39,0.84,-1.24,1.09,0.55
1900-01-01 19:53:49.270,18.25,5.07,4.05,0.09,0.32,0.95,-0.72,-0.41,-1.1,24.09,15.75,3.18,0.26,0.39,0.84,-1.24,1.25,-0.3
1900-01-01 19:53:49.403,18.02,5.14,4.04,0.09,0.31,0.96,-1.06,-0.16,-0.8,23.79,15.46,3.12,0.26,0.39,0.85,-1.44,1.63,-0.34
1900-01-01 19:53:49.443,18.45,4.78,4.08,0.08,0.31,0.94,0.04,-0.99,-1.01,23.93,14.75,3.06,0.24,0.38,0.83,-0.77,1.15,0.3
1900-01-01 19:53:49.527,18.0,4.53,4.09,0.08,0.31,0.95,-1.02,0.7,-1.24,23.41,15.34,3.1,0.26,0.39,0.85,-1.82,1.18,0.5
1900-01-01 19:53:49.564,18.01,5.42,4.06,0.1,0.31,0.96,-0.44,-0.12,-0.84,24.66,15.85,3.17,0.26,0.4,0.84,-1.27,1.84,-0.63
1900-01-01 19:53:49.646,17.98,4.55,4.09,0.08,0.31,0.94,-1.19,-0.47,-0.51,23.63,15.09,3.06,0.25,0.38,0.83,-1.61,1.48,0.32
1900-01-01 19:53:49.782,18.41,4.58,4.17,0.08,0.32,0.95,-0.56,-0.05,-1.18,23.96,15.04,3.1,0.25,0.39,0.84,-1.18,1.33,0.52
1900-01-01 19:53:49.819,18.19,4.84,4.15,0.09,0.32,0.96,-0.58,-0.18,-1.02,23.81,15.38,3.17,0.26,0.39,0.85,-1.06,1.11,-0.06
1900-01-01 19:53:49.904,18.11,4.69,4.15,0.08,0.31,0.95,-0.73,-0.24,-0.91,23.59,15.18,3.15,0.25,0.39,0.85,-1.08,1.37,0.25
1900-01-01 19:53:49.939,18.23,4.8,4.17,0.08,0.31,0.95,-0.69,-0.05,-0.94,24.0,15.51,3.18,0.26,0.39,0.84,-1.34,1.11,0.17
1900-01-01 19:53:50.048,18.12,4.96,4.19,0.09,0.31,0.96,-0.91,-0.05,-0.73,23.97,15.69,3.2,0.26,0.39,0.84,-1.41,1.56,-0.15
1900-01-01 19:53:50.147,18.45,4.7,4.24,0.08,0.32,0.95,-0.89,-0.33,-0.53,23.94,15.17,3.17,0.25,0.39,0.84,-1.46,2.1,0.0
1900-01-01 19:53:50.190,18.43,4.59,4.31,0.08,0.31,0.93,-0.27,-0.73,-1.52,24.33,14.56,3.16,0.24,0.39,0.83,-0.45,0.53,0.48
1900-01-01 19:53:50.294,17.42,4.81,4.24,0.09,0.31,0.97,-0.92,0.1,-1.0,23.2,16.09,3.23,0.27,0.39,0.86,-1.21,0.96,0.04
1900-01-01 19:53:50.403,19.0,5.57,4.25,0.1,0.33,0.95,-0.34,-0.77,-0.85,25.13,15.32,3.22,0.25,0.41,0.83,-0.82,1.53,-0.5
1900-01-01 19:53:50.403,17.94,4.08,4.28,0.07,0.31,0.94,-0.79,-0.41,-0.99,23.59,14.62,3.14,0.24,0.38,0.83,-1.08,1.41,0.29
1900-01-01 19:53:50.530,18.21,4.7,4.29,0.08,0.31,0.95,-0.19,0.28,-1.56,24.07,15.43,3.18,0.26,0.39,0.84,-1.36,0.63,0.52
1900-01-01 19:53:50.566,18.12,5.18,4.21,0.09,0.31,0.96,-0.85,-0.27,-1.18,24.37,15.92,3.25,0.27,0.4,0.84,-1.26,1.19,-0.12
1900-01-01 19:53:50.665,18.1,4.78,4.19,0.08,0.32,0.96,-1.43,-0.79,-0.55,24.16,15.67,3.22,0.26,0.4,0.84,-1.79,1.79,-0.74
1900-01-01 19:53:50.774,17.95,4.51,4.26,0.08,0.31,0.94,-0.69,-0.95,-0.83,24.19,14.84,3.1,0.24,0.39,0.82,-0.91,1.15,0.12
1900-01-01 19:53:50.774,18.3,4.59,4.29,0.08,0.31,0.94,0.1,0.27,-1.47,23.73,15.11,3.11,0.25,0.38,0.84,-0.98,0.58,0.58
1900-01-01 19:53:50.900,18.34,4.98,4.23,0.09,0.32,0.96,-0.27,-0.25,-1.25,24.11,15.81,3.19,0.26,0.4,0.85,-1.1,0.89,-0.15
1900-01-01 19:53:50.941,18.25,4.72,4.2,0.08,0.32,0.95,-0.56,-0.5,-0.98,23.8,15.54,3.16,0.26,0.39,0.84,-1.23,1.29,-0.12
1900-01-01 19:53:51.017,18.24,4.7,4.21,0.08,0.31,0.95,-0.4,-0.19,-1.2,24.14,15.49,3.13,0.26,0.39,0.84,-1.17,0.98,0.05
1900-01-01 19:53:51.137,17.99,5.01,4.18,0.09,0.31,0.96,-0.56,-0.66,-1.08,24.16,15.64,3.13,0.26,0.4,0.84,-1.01,1.18,-0.14
1900-01-01 19:53:51.176,18.29,4.46,4.18,0.08,0.31,0.95,-0.75,-0.23,-0.92,23.72,15.38,3.1,0.25,0.39,0.84,-1.37,1.33,0.01
1900-01-01 19:53:51.275,17.9,4.75,4.2,0.08,0.31,0.95,-1.36,-0.24,-0.92,23.99,15.83,3.09,0.26,0.39,0.84,-1.6,1.96,-0.27
1900-01-01 19:53:51.389,18.32,5.07,4.21,0.09,0.32,0.96,-0.8,-0.5,-0.36,24.29,15.7,3.04,0.26,0.4,0.84,-1.47,2.37,-0.44
1900-01-01 19:53:51.389,18.35,4.69,4.32,0.08,0.31,0.94,-0.57,-0.76,-0.7,23.93,14.79,2.97,0.24,0.39,0.83,-1.19,1.4,-0.05
1900-01-01 19:53:51.507,18.22,4.72,4.37,0.08,0.31,0.95,-0.39,-0.01,-1.08,24.11,15.09,2.95,0.25,0.39,0.84,-1.32,1.37,-0.21
1900-01-01 19:53:51.548,18.06,5.05,4.36,0.09,0.31,0.96,-0.51,-0.55,-0.93,23.87,15.33,2.91,0.25,0.39,0.84,-0.71,1.02,-0.09
1900-01-01 19:53:51.626,17.96,4.53,4.38,0.08,0.31,0.94,-0.43,0.09,-1.24,24.03,15.01,2.89,0.25,0.39,0.83,-1.21,1.02,0.86
1900-01-01 19:53:51.756,17.11,5.26,4.35,0.09,0.3,0.97,0.39,0.16,-0.69,23.67,16.38,3.01,0.27,0.39,0.84,-0.91,1.63,0.46
1900-01-01 19:53:51.756,18.13,4.77,4.41,0.08,0.32,0.96,-2.34,1.32,0.4,23.8,15.46,3.07,0.26,0.39,0.86,-2.53,2.95,1.76
1900-01-01 19:53:51.907,18.5,4.01,4.63,0.07,0.31,0.93,-0.63,0.13,-0.01,23.64,14.39,3.33,0.23,0.38,0.83,-1.52,2.5,0.54
1900-01-01 19:53:51.907,18.41,5.09,4.78,0.09,0.32,0.96,-0.37,0.37,-0.33,24.5,15.65,3.4,0.26,0.4,0.85,-1.84,2.18,0.33
1900-01-01 19:53:52.017,18.06,5.0,4.89,0.09,0.31,0.95,-0.94,0.17,0.5,23.58,15.52,3.44,0.26,0.38,0.84,-2.24,3.05,0.22
1900-01-01 19:53:52.059,17.85,3.82,5.13,0.07,0.31,0.96,-1.79,0.66,-0.49,22.01,14.43,3.47,0.24,0.36,0.86,-2.46,2.98,0.34
1900-01-01 19:53:52.154,18.83,4.58,5.21,0.08,0.32,0.94,-0.53,0.18,-2.14,24.42,14.22,3.51,0.23,0.39,0.83,-1.31,1.61,-0.53
1900-01-01 19:53:52.232,18.01,4.6,5.05,0.08,0.31,0.94,-0.33,1.73,-1.02,23.21,15.26,3.42,0.25,0.37,0.83,-1.75,2.02,0.53
1900-01-01 19:53:52.348,17.83,3.84,5.05,0.07,0.32,1.0,-0.02,0.83,-2.0,22.75,14.45,3.5,0.25,0.39,0.89,-0.79,3.82,-1.39
1900-01-01 19:53:52.389,17.41,3.26,4.9,0.06,0.3,0.96,-1.85,0.64,-1.95,22.64,13.39,3.28,0.22,0.36,0.84,-1.53,5.27,-1.56
1900-01-01 19:53:52.510,18.36,2.47,4.77,0.04,0.32,0.96,-2.9,0.91,-1.39,23.02,12.36,3.03,0.21,0.38,0.86,-1.69,4.3,-0.25
1900-01-01 19:53:52.605,16.43,4.9,4.72,0.08,0.28,0.95,0.42,1.92,-0.7,23.58,14.6,2.98,0.24,0.37,0.83,-0.67,5.1,0.3
1900-01-01 19:53:52.605,18.35,4.12,4.77,0.07,0.32,0.95,-1.98,2.28,-0.01,24.6,12.74,3.02,0.21,0.4,0.86,-2.27,4.21,1.5
1900-01-01 19:53:52.717,17.47,2.57,4.92,0.04,0.3,0.95,-1.3,1.03,0.85,22.52,11.84,3.24,0.19,0.36,0.85,-2.8,3.97,1.48
1900-01-01 19:53:52.749,17.37,2.87,5.21,0.05,0.3,0.96,-0.98,1.89,0.07,22.66,12.35,3.45,0.2,0.37,0.86,-1.98,4.01,1.21
1900-01-01 19:53:52.840,18.49,2.75,5.38,0.05,0.32,0.96,0.37,-0.18,-0.21,23.75,10.96,3.63,0.19,0.4,0.88,-0.18,3.69,0.65
1900-01-01 19:53:52.965,18.49,3.18,5.51,0.05,0.31,0.94,-0.12,0.33,-0.5,24.14,10.56,3.72,0.17,0.38,0.84,-1.03,3.57,0.4
1900-01-01 19:53:52.965,18.39,2.03,5.59,0.04,0.32,0.96,-1.22,2.25,-0.91,23.44,10.23,3.77,0.17,0.39,0.87,-2.97,3.74,0.52
1900-01-01 19:53:53.085,17.45,1.87,5.61,0.03,0.3,0.96,-0.65,1.6,-1.02,22.79,10.58,3.84,0.18,0.37,0.87,-2.36,1.66,1.56
1900-01-01 19:53:53.203,17.62,2.19,5.61,0.04,0.3,0.95,-0.27,-0.24,-1.42,22.49,10.18,4.07,0.17,0.37,0.87,-1.76,2.19,-0.71
1900-01-01 19:53:53.203,17.12,2.15,5.56,0.04,0.29,0.96,-1.37,0.98,-0.13,21.86,11.11,3.95,0.18,0.35,0.86,-2.93,2.35,0.8
1900-01-01 19:53:53.321,17.97,0.88,5.7,0.02,0.31,0.96,-1.31,-0.77,-0.4,21.94,9.24,4.07,0.16,0.37,0.9,-1.28,2.58,0.38
1900-01-01 19:53:53.366,17.41,2.58,5.79,0.04,0.29,0.94,0.6,-1.12,-0.53,23.05,10.59,4.12,0.17,0.37,0.84,-1.82,1.79,0.4
1900-01-01 19:53:53.454,17.7,2.83,5.87,0.05,0.31,0.95,-0.63,-0.27,-0.24,22.34,10.95,4.17,0.18,0.36,0.87,-2.9,-0.56,1.11
1900-01-01 19:53:53.560,16.21,1.99,5.99,0.03,0.28,0.96,-2.41,1.28,0.39,19.41,11.02,4.33,0.18,0.32,0.89,-3.75,2.01,0.6
1900-01-01 19:53:53.683,17.66,2.23,6.21,0.04,0.3,0.96,-0.21,0.34,-0.67,22.26,10.65,4.41,0.18,0.36,0.87,0.35,0.75,-0.78
1900-01-01 19:53:53.683,18.34,1.71,6.27,0.03,0.32,0.96,-1.91,-0.27,-0.18,22.34,10.7,4.29,0.18,0.37,0.87,-1.47,0.04,0.19
1900-01-01 19:53:53.724,17.98,2.1,6.4,0.04,0.3,0.93,1.08,-1.87,-1.19,22.8,10.7,4.31,0.17,0.36,0.83,-0.44,0.93,0.53
1900-01-01 19:53:53.831,17.98,1.94,6.38,0.03,0.31,0.94,-0.36,-0.2,-0.98,21.76,10.36,4.38,0.18,0.36,0.89,-1.42,0.36,0.28
1900-01-01 19:53:53.930,17.63,2.35,6.39,0.04,0.31,0.96,1.67,-4.12,-1.82,22.49,11.36,4.41,0.19,0.37,0.87,1.97,-1.29,-1.14
1900-01-01 19:53:54.037,18.61,2.87,6.27,0.05,0.33,0.96,0.5,-1.5,-1.92,23.35,11.95,4.23,0.2,0.38,0.85,0.69,-1.56,-2.63
1900-01-01 19:53:54.037,18.53,2.66,6.13,0.05,0.32,0.96,-0.48,0.64,-2.12,23.86,10.83,3.82,0.18,0.39,0.87,0.05,-0.02,-2.08
1900-01-01 19:53:54.154,18.49,2.38,5.97,0.04,0.32,0.96,-2.49,0.24,-0.01,22.76,11.63,3.5,0.19,0.37,0.87,-4.37,1.49,-1.02
1900-01-01 19:53:54.193,16.96,2.44,6.13,0.04,0.29,0.96,-1.64,-1.06,-1.02,21.45,11.49,3.34,0.19,0.36,0.88,-2.51,1.52,-2.4
1900-01-01 19:53:54.263,17.42,2.79,6.13,0.05,0.3,0.95,-1.18,-1.44,-1.89,22.38,11.04,2.96,0.18,0.36,0.86,-1.62,0.97,-2.35
1900-01-01 19:53:54.395,18.4,2.54,6.0,0.04,0.32,0.95,-0.69,-1.88,-2.36,23.03,9.88,2.6,0.16,0.37,0.86,-0.54,2.24,-1.73
1900-01-01 19:53:54.433,18.25,2.31,5.8,0.04,0.31,0.93,-1.6,1.05,-1.97,22.47,10.29,2.32,0.17,0.36,0.85,-3.76,1.34,-0.11
1900-01-01 19:53:54.531,15.6,2.75,5.66,0.05,0.28,0.99,-1.55,0.9,-4.27,21.31,12.35,2.3,0.21,0.36,0.9,1.09,1.05,-1.42
1900-01-01 19:53:54.631,19.3,3.31,5.18,0.06,0.33,0.93,0.69,-2.66,-2.11,24.69,9.82,2.08,0.16,0.39,0.83,-1.29,1.47,0.15
1900-01-01 19:53:54.667,16.51,1.67,5.01,0.03,0.28,0.93,-2.77,1.81,-2.46,20.7,10.39,2.09,0.17,0.34,0.87,-2.5,-0.85,0.63
1900-01-01 19:53:54.754,17.68,2.13,4.8,0.04,0.32,0.99,-1.03,-0.86,-2.15,23.34,11.33,2.18,0.19,0.39,0.88,-1.15,0.56,-0.89
1900-01-01 19:53:54.794,17.4,2.72,4.63,0.05,0.3,0.95,-0.04,-1.76,-1.31,22.52,10.76,2.03,0.18,0.36,0.86,-1.4,1.6,0.21
1900-01-01 19:53:54.863,17.14,1.76,4.59,0.03,0.29,0.95,-1.07,0.69,-1.5,22.49,10.64,2.06,0.18,0.36,0.86,-2.03,0.61,0.95
1900-01-01 19:53:54.985,17.16,2.49,4.52,0.04,0.29,0.95,-0.52,-0.11,-1.26,22.3,11.58,2.19,0.19,0.36,0.86,-1.28,0.09,0.37
1900-01-01 19:53:55.025,17.36,2.23,4.49,0.04,0.3,0.95,-0.68,-0.05,-1.17,22.29,11.6,2.24,0.19,0.36,0.86,-1.06,0.02,0.37
1900-01-01 19:53:55.097,17.1,2.29,4.47,0.04,0.3,0.97,-0.98,-0.72,-0.79,22.19,11.88,2.29,0.2,0.37,0.88,-1.25,1.29,-0.42
1900-01-01 19:53:55.220,17.45,2.52,4.51,0.04,0.3,0.95,0.13,-1.79,-0.93,22.85,11.41,2.22,0.19,0.37,0.85,-0.6,0.11,-0.15
1900-01-01 19:53:55.258,17.07,2.1,4.53,0.04,0.3,0.96,-0.33,-0.7,-0.8,21.92,11.67,2.18,0.19,0.36,0.87,-1.21,0.02,0.01
1900-01-01 19:53:55.333,17.33,2.69,4.56,0.05,0.3,0.96,-0.56,-0.64,-0.85,22.51,11.94,2.18,0.2,0.37,0.87,-1.45,0.94,0.01
1900-01-01 19:53:55.469,17.33,2.74,4.59,0.05,0.3,0.96,-1.08,0.02,-0.76,22.14,12.49,2.17,0.21,0.36,0.87,-1.11,-0.05,0.34
1900-01-01 19:53:55.469,17.82,2.57,4.64,0.04,0.3,0.94,1.07,-1.29,-0.88,23.28,11.81,2.21,0.19,0.37,0.83,-0.46,1.21,0.76
1900-01-01 19:53:55.577,16.91,2.29,4.66,0.04,0.29,0.96,-1.79,0.86,-1.05,21.14,12.59,2.32,0.21,0.35,0.89,-1.52,0.63,0.4
1900-01-01 19:53:55.629,17.67,3.28,4.66,0.06,0.31,0.97,-0.35,-0.95,-1.01,23.68,12.67,2.37,0.21,0.39,0.86,-0.44,2.02,-0.73
1900-01-01 19:53:55.742,17.82,2.34,4.67,0.04,0.3,0.92,-0.94,-0.12,-0.67,22.46,11.17,2.25,0.18,0.35,0.84,-2.21,0.86,0.59
1900-01-01 19:53:55.817,16.87,2.7,4.72,0.05,0.3,0.97,-0.56,0.08,-1.36,21.88,13.0,2.33,0.22,0.37,0.88,-0.66,-0.31,-0.3
1900-01-01 19:53:55.853,17.57,3.1,4.67,0.06,0.31,0.97,-1.21,-1.24,-0.32,22.55,12.68,2.28,0.21,0.37,0.87,-1.12,1.95,-0.53
1900-01-01 19:53:55.926,17.34,2.67,4.78,0.05,0.29,0.93,0.46,-0.53,-1.09,22.54,11.79,2.19,0.19,0.35,0.83,-1.15,1.4,0.41
1900-01-01 19:53:56.054,17.16,2.75,4.78,0.05,0.3,0.97,-1.23,0.63,-1.21,22.09,12.93,2.24,0.22,0.37,0.88,-1.61,1.21,0.09
1900-01-01 19:53:56.087,18.12,3.35,4.75,0.06,0.32,0.97,-0.15,-1.44,-0.4,22.98,12.27,2.25,0.2,0.37,0.86,-0.9,2.24,-0.47
1900-01-01 19:53:56.158,17.21,1.96,4.85,0.03,0.29,0.94,0.66,-0.36,-0.89,21.96,11.39,2.17,0.19,0.35,0.85,-0.98,1.08,0.45
1900-01-01 19:53:56.286,17.2,2.86,4.87,0.05,0.3,0.97,-0.07,-1.37,-0.61,21.76,12.67,2.23,0.21,0.36,0.88,1.38,2.08,-0.27
1900-01-01 19:53:56.321,17.91,3.92,4.94,0.07,0.31,0.94,-2.02,-0.46,0.51,23.59,12.43,2.18,0.2,0.37,0.83,-1.92,4.36,-0.01
1900-01-01 19:53:56.396,17.72,2.85,5.18,0.05,0.3,0.93,-0.89,-1.45,-0.31,21.73,11.46,2.17,0.19,0.35,0.86,0.34,1.78,-0.1
1900-01-01 19:53:56.516,18.64,3.83,5.29,0.07,0.33,0.97,0.17,-2.48,-1.73,25.05,11.36,2.15,0.19,0.41,0.86,-0.34,1.76,-1.74
1900-01-01 19:53:56.557,18.24,3.37,5.18,0.06,0.32,0.97,-1.83,-2.67,-0.31,23.62,11.15,1.87,0.19,0.39,0.86,-4.45,2.08,0.11
1900-01-01 19:53:56.647,16.57,3.88,5.3,0.07,0.29,0.96,-2.27,-1.24,-0.44,21.54,11.61,1.88,0.19,0.35,0.86,-4.27,4.73,-1.48
1900-01-01 19:53:56.752,17.05,5.01,5.39,0.09,0.3,0.97,-3.05,-2.05,-0.67,22.88,11.24,1.65,0.19,0.38,0.88,-4.31,2.54,-1.0
1900-01-01 19:53:56.790,15.58,3.22,5.44,0.05,0.26,0.94,0.3,-2.65,0.61,20.0,9.06,1.49,0.15,0.32,0.86,-1.37,3.32,-1.55
1900-01-01 19:53:56.863,15.7,4.04,5.69,0.07,0.27,0.96,-0.33,-0.47,0.0,21.13,9.58,1.24,0.16,0.34,0.88,-0.95,2.79,0.1
1900-01-01 19:53:56.930,17.33,5.4,5.85,0.1,0.3,0.97,-0.57,0.34,0.21,22.18,11.42,1.25,0.19,0.36,0.86,-0.1,0.08,2.7
1900-01-01 19:53:56.993,17.92,5.07,6.04,0.09,0.31,0.95,-0.08,-0.73,-0.85,22.76,9.52,1.65,0.16,0.38,0.88,-0.53,1.23,-0.05
1900-01-01 19:53:57.119,17.03,5.55,6.07,0.1,0.29,0.95,0.19,-1.86,-0.64,22.56,11.53,1.63,0.19,0.36,0.85,-0.01,0.24,0.05
1900-01-01 19:53:57.215,17.12,4.58,6.13,0.08,0.3,0.97,-0.84,-1.41,-0.27,22.1,9.81,1.63,0.16,0.36,0.88,-1.61,2.03,0.0
1900-01-01 19:53:57.215,16.98,5.0,6.25,0.09,0.29,0.95,-0.44,-1.21,-0.87,22.11,10.73,1.62,0.18,0.36,0.86,-0.67,0.76,-0.05
1900-01-01 19:53:57.334,17.61,5.56,6.28,0.1,0.31,0.96,-0.27,-1.2,-0.87,22.9,10.47,1.61,0.18,0.38,0.87,-1.24,1.34,-0.32
1900-01-01 19:53:57.370,17.42,5.7,6.3,0.1,0.3,0.96,-0.33,-1.27,-0.62,22.87,11.02,1.55,0.18,0.37,0.86,-0.55,0.47,0.31
1900-01-01 19:53:57.443,17.33,5.49,6.37,0.1,0.3,0.96,-1.01,-0.61,-0.45,22.22,10.87,1.59,0.18,0.36,0.86,-2.68,1.58,0.24
1900-01-01 19:53:57.570,18.08,5.7,6.46,0.1,0.31,0.95,0.01,-0.44,-0.98,23.99,10.82,1.62,0.18,0.38,0.84,-1.37,-1.66,1.82
1900-01-01 19:53:57.606,16.76,5.44,6.47,0.1,0.29,0.97,-1.79,0.74,-0.68,20.81,11.74,1.89,0.2,0.35,0.89,-0.46,-0.28,-0.5
1900-01-01 19:53:57.680,17.76,6.05,6.52,0.11,0.31,0.96,1.98,-1.19,-1.36,23.88,11.27,1.8,0.19,0.39,0.86,1.07,0.95,-0.79
1900-01-01 19:53:57.799,17.83,5.1,6.47,0.09,0.3,0.93,1.0,-1.1,-1.4,22.67,10.47,1.67,0.17,0.36,0.83,-0.17,0.68,0.25
1900-01-01 19:53:57.836,17.86,6.12,6.42,0.11,0.31,0.95,0.01,1.58,-1.99,22.63,12.16,1.7,0.21,0.37,0.87,-0.15,-2.38,0.56
1900-01-01 19:53:57.915,18.11,5.77,6.28,0.1,0.32,0.98,-0.44,-1.44,-1.37,22.88,12.46,1.78,0.21,0.38,0.88,0.33,1.08,-1.37
1900-01-01 19:53:58.038,17.96,5.93,6.23,0.1,0.3,0.91,2.32,-3.32,-2.31,23.43,11.14,1.56,0.18,0.36,0.82,3.34,0.21,-1.01
1900-01-01 19:53:58.078,18.74,6.25,6.04,0.11,0.32,0.93,2.6,-0.78,-2.77,24.59,12.1,1.4,0.2,0.4,0.84,1.4,-4.31,0.77
1900-01-01 19:53:58.164,18.65,6.11,5.78,0.11,0.34,0.99,0.19,-0.76,-1.5,24.07,14.04,1.51,0.24,0.41,0.88,0.79,-2.18,0.27
1900-01-01 19:53:58.207,19.4,6.56,5.71,0.12,0.34,0.95,-1.52,-1.39,-0.62,25.16,13.37,1.54,0.22,0.41,0.84,-1.3,1.18,-0.19
1900-01-01 19:53:58.294,19.9,5.95,5.77,0.1,0.33,0.91,1.6,-1.59,-1.8,25.05,12.75,1.51,0.2,0.39,0.81,-0.22,-1.17,-0.63
1900-01-01 19:53:58.412,19.04,6.58,5.65,0.12,0.33,0.95,-0.13,0.95,-1.74,24.66,14.53,1.4,0.25,0.41,0.86,0.36,-2.53,0.16
1900-01-01 19:53:58.511,19.27,6.01,5.55,0.11,0.35,0.98,-1.51,-0.34,-0.5,24.25,14.47,1.42,0.25,0.41,0.87,-1.87,2.63,0.04
1900-01-01 19:53:58.511,20.39,6.33,5.63,0.11,0.34,0.9,-0.54,0.66,-1.64,26.72,13.28,1.41,0.21,0.41,0.8,-2.24,1.95,0.08
1900-01-01 19:53:58.630,18.97,5.64,5.54,0.1,0.33,0.95,-1.37,0.94,-1.61,23.47,14.37,1.42,0.24,0.39,0.86,-1.9,0.41,-0.61
1900-01-01 19:53:58.674,19.61,6.12,5.46,0.11,0.34,0.96,-1.23,-0.29,-1.31,25.54,13.91,1.32,0.23,0.42,0.84,-2.02,2.26,-0.64
1900-01-01 19:53:58.761,19.07,5.84,5.41,0.1,0.33,0.95,-0.82,0.49,-1.63,24.03,13.35,1.21,0.22,0.39,0.85,-1.55,1.19,-0.28
1900-01-01 19:53:58.976,19.4,5.09,5.33,0.09,0.33,0.92,-2.89,2.85,-1.07,24.25,13.29,1.16,0.22,0.39,0.83,-4.98,2.07,1.41
1900-01-01 19:53:58.976,18.35,5.94,5.32,0.11,0.32,0.96,-1.71,0.66,-1.11,24.15,14.93,1.37,0.25,0.4,0.86,-1.56,1.79,-0.35
1900-01-01 19:53:59.011,19.33,5.21,5.31,0.09,0.33,0.94,-1.12,0.27,-0.11,23.94,13.27,1.3,0.22,0.39,0.84,-1.93,3.01,0.76
1900-01-01 19:53:59.121,18.64,4.45,5.45,0.08,0.32,0.93,-1.01,1.43,-1.04,24.21,12.87,1.41,0.21,0.39,0.84,-2.01,2.73,0.94
1900-01-01 19:53:59.251,18.71,5.13,5.46,0.09,0.32,0.95,-0.89,0.32,-1.26,24.0,13.69,1.54,0.23,0.39,0.85,-1.4,1.41,-0.16
1900-01-01 19:53:59.251,17.91,4.9,5.42,0.09,0.32,0.97,-2.43,1.22,-0.54,23.15,13.7,1.51,0.23,0.38,0.86,-2.76,2.61,0.45
1900-01-01 19:53:59.334,18.38,4.76,5.5,0.08,0.32,0.95,-0.98,1.12,-1.14,24.5,12.84,1.57,0.21,0.4,0.85,-0.69,2.66,0.06
1900-01-01 19:53:59.334,18.51,4.43,5.49,0.08,0.31,0.93,-0.34,-0.04,-0.9,23.37,12.69,1.57,0.21,0.38,0.84,-1.21,1.43,0.44
1900-01-01 19:53:59.428,18.29,4.13,5.51,0.07,0.31,0.95,-0.49,-0.28,-1.21,23.34,12.98,1.63,0.22,0.38,0.86,-0.89,1.23,-0.08
1900-01-01 19:53:59.679,18.05,4.79,5.48,0.08,0.31,0.96,-0.42,-0.56,-0.75,23.26,13.46,1.61,0.22,0.38,0.85,-0.96,1.8,0.1
1900-01-01 19:53:59.679,18.63,4.67,5.53,0.08,0.32,0.94,-0.16,-0.08,-1.21,23.71,13.06,1.62,0.22,0.38,0.85,-0.69,0.54,0.3
1900-01-01 19:53:59.679,18.62,4.5,5.5,0.08,0.32,0.95,0.12,-0.45,-1.23,23.79,13.24,1.65,0.22,0.38,0.84,-0.51,0.21,0.21
1900-01-01 19:53:59.719,18.68,4.27,5.47,0.08,0.32,0.96,-0.52,-0.46,-1.05,23.44,13.4,1.68,0.22,0.39,0.86,-1.11,0.83,0.0
1900-01-01 19:53:59.816,18.65,4.84,5.47,0.08,0.32,0.95,-0.86,-0.82,-0.89,24.39,13.63,1.67,0.23,0.39,0.84,-1.14,0.34,-0.31
1900-01-01 19:53:59.907,18.55,4.61,5.49,0.08,0.32,0.96,0.14,-1.19,-0.66,23.54,13.14,1.61,0.22,0.38,0.85,-0.37,1.07,-0.01
1900-01-01 19:54:00.042,18.35,4.11,5.55,0.07,0.31,0.94,-0.46,0.47,-0.79,23.11,13.08,1.6,0.22,0.38,0.86,-1.76,1.57,0.64
1900-01-01 19:54:00.042,18.55,4.73,5.59,0.08,0.32,0.95,-0.27,-0.18,-1.37,24.07,13.63,1.69,0.22,0.39,0.84,-1.14,1.22,-0.19
1900-01-01 19:54:00.158,18.74,4.72,5.54,0.08,0.33,0.96,-0.66,-0.05,-0.96,23.58,13.65,1.65,0.23,0.39,0.86,-2.04,1.18,0.08
1900-01-01 19:54:00.272,18.8,4.47,5.55,0.08,0.32,0.95,-0.49,-0.08,-1.09,23.92,13.22,1.66,0.22,0.39,0.85,-1.98,0.78,0.14
1900-01-01 19:54:00.272,18.57,4.43,5.55,0.08,0.32,0.95,-0.61,0.26,-0.97,23.09,13.74,1.67,0.23,0.38,0.85,-1.97,0.97,0.4
1900-01-01 19:54:00.339,18.56,4.8,5.56,0.08,0.32,0.95,-0.78,-0.11,-1.02,23.67,13.85,1.72,0.23,0.39,0.85,-1.43,1.59,0.04
1900-01-01 19:54:00.421,18.57,4.34,5.56,0.08,0.32,0.95,-0.54,0.38,-0.89,23.27,13.47,1.72,0.22,0.38,0.85,-1.24,1.44,0.44
1900-01-01 19:54:00.510,18.44,4.03,5.59,0.07,0.32,0.95,-0.45,0.37,-0.95,23.54,12.94,1.78,0.22,0.38,0.85,-0.55,1.31,0.67
1900-01-01 19:54:00.591,18.95,3.61,5.6,0.06,0.32,0.94,-1.01,0.4,-0.82,23.44,13.05,1.87,0.22,0.38,0.85,-0.76,1.14,0.84
1900-01-01 19:54:00.627,18.94,3.75,5.64,0.07,0.33,0.95,0.11,-0.21,-0.98,23.78,13.26,1.99,0.22,0.39,0.85,1.52,0.58,0.85
1900-01-01 19:54:00.714,18.4,4.14,5.65,0.07,0.32,0.95,-0.88,0.36,-1.31,23.3,14.38,2.11,0.24,0.38,0.84,-0.26,0.87,0.87
1900-01-01 19:54:00.814,18.55,4.04,5.61,0.07,0.32,0.95,-0.5,0.38,-1.52,23.79,14.31,2.23,0.24,0.39,0.84,-0.37,-0.02,0.43
1900-01-01 19:54:00.860,18.57,4.66,5.54,0.08,0.32,0.95,-0.83,0.32,-1.92,24.12,15.0,2.29,0.25,0.39,0.84,-1.41,0.3,-0.24
1900-01-01 19:54:00.952,19.22,5.24,5.4,0.09,0.33,0.94,-1.56,-0.79,-1.11,25.72,14.76,2.24,0.25,0.42,0.84,-3.63,1.39,-0.96
1900-01-01 19:54:01.061,16.92,3.17,5.39,0.06,0.29,0.95,-1.03,-0.51,-0.73,21.64,13.78,2.09,0.23,0.35,0.86,-2.67,1.52,-0.34
1900-01-01 19:54:01.128,18.07,3.72,5.44,0.06,0.31,0.95,-1.07,-0.11,-1.73,23.95,13.9,2.03,0.23,0.39,0.85,-1.79,1.31,-0.48
1900-01-01 19:54:01.168,18.21,4.56,5.33,0.08,0.31,0.95,-1.73,-0.29,-0.79,22.94,14.89,1.95,0.25,0.37,0.85,-3.66,1.06,0.04
1900-01-01 19:54:01.258,18.21,3.69,5.37,0.07,0.32,0.97,-3.63,-0.62,-0.46,23.74,13.61,1.94,0.23,0.4,0.87,-5.73,2.41,0.66
1900-01-01 19:54:01.319,16.21,3.88,5.46,0.07,0.28,0.96,-2.86,0.29,-0.42,20.68,14.46,2.03,0.24,0.34,0.87,-2.29,3.24,0.09
1900-01-01 19:54:01.426,18.08,3.87,5.56,0.07,0.31,0.94,1.14,-0.88,-1.15,22.83,12.75,2.04,0.21,0.36,0.84,-0.09,0.69,0.21
1900-01-01 19:54:01.476,17.21,3.45,5.54,0.06,0.3,0.97,0.57,-0.05,-1.67,21.31,14.22,2.06,0.24,0.35,0.88,0.39,1.29,-0.13
1900-01-01 19:54:01.579,18.32,4.59,5.45,0.08,0.31,0.94,0.63,-0.58,-1.24,23.42,13.79,2.03,0.22,0.37,0.84,-0.84,0.98,-0.08
1900-01-01 19:54:01.621,17.38,3.48,5.42,0.06,0.3,0.97,-0.52,-0.07,-1.33,21.89,13.9,2.01,0.23,0.36,0.87,-0.85,1.05,-0.14
1900-01-01 19:54:01.709,17.81,4.06,5.37,0.07,0.31,0.96,-0.76,-0.13,-1.14,22.23,14.26,1.99,0.24,0.36,0.86,-1.57,1.5,0.09
1900-01-01 19:54:01.783,17.87,3.96,5.36,0.07,0.31,0.95,-1.67,0.05,-1.34,22.45,14.37,1.99,0.24,0.37,0.85,-2.6,1.4,-0.63
1900-01-01 19:54:01.901,17.5,2.45,5.31,0.04,0.31,0.98,0.97,-0.74,-2.18,17.8,12.1,1.89,0.21,0.3,0.92,4.04,3.52,-0.76
1900-01-01 19:54:01.938,15.41,-0.92,5.14,-0.02,0.29,1.04,12.34,-7.11,-6.6,20.27,8.45,1.76,0.17,0.41,1.1,26.11,-11.15,-6.12
1900-01-01 19:54:01.987,13.38,2.03,4.29,0.04,0.24,1.0,-4.36,-21.57,-13.44,15.03,15.28,0.82,0.27,0.27,0.96,-4.65,-52.56,-13.69
1900-01-01 19:54:02.147,17.33,8.86,2.39,0.16,0.3,0.95,-16.98,-26.11,-20.12,29.84,22.27,-1.29,0.37,0.49,0.76,-43.83,-70.93,-16.4
1900-01-01 19:54:02.147,19.46,11.8,-0.57,0.21,0.35,0.97,-18.73,-23.3,-18.14,27.41,32.05,-3.84,0.52,0.45,0.7,-29.09,-60.87,-14.73
1900-01-01 19:54:02.281,13.45,19.13,-3.24,0.33,0.23,0.91,-18.66,-19.13,-15.4,17.8,49.79,-6.14,0.68,0.27,0.51,-35.86,-46.82,-18.46
1900-01-01 19:54:02.315,8.82,19.24,-5.47,0.31,0.15,0.89,-9.92,-13.52,-22.37,15.69,53.17,-9.02,0.68,0.23,0.45,-32.78,-13.89,-43.28
1900-01-01 19:54:02.418,13.01,14.62,-8.78,0.24,0.21,0.89,10.39,-7.51,-22.32,23.28,36.92,-15.73,0.53,0.35,0.61,-3.32,15.05,-48.44
1900-01-01 19:54:02.462,22.42,14.52,-12.07,0.24,0.37,0.87,14.41,-0.23,-14.09,36.95,25.58,-23.23,0.43,0.6,0.67,3.02,11.24,-25.27
1900-01-01 19:54:02.579,20.23,14.42,-14.09,0.26,0.37,0.96,-2.56,1.4,-6.22,30.06,29.13,-27.14,0.51,0.53,0.76,3.04,-4.07,1.91
1900-01-01 19:54:02.625,14.98,15.05,-14.89,0.27,0.27,0.96,0.66,-2.98,-4.44,24.14,39.26,-26.86,0.61,0.4,0.64,5.08,-6.2,-1.34
1900-01-01 19:54:02.689,14.73,15.75,-15.41,0.27,0.25,0.93,9.73,-0.76,-8.33,25.58,39.09,-27.07,0.6,0.41,0.61,14.42,3.47,-6.53
1900-01-01 19:54:02.810,22.66,12.85,-16.53,0.23,0.4,0.94,12.67,-4.19,-7.3,30.21,31.78,-28.08,0.54,0.52,0.7,16.36,1.0,-9.56
1900-01-01 19:54:02.857,25.31,12.97,-17.49,0.23,0.43,0.88,8.48,-6.82,-2.12,39.45,30.52,-29.56,0.49,0.61,0.56,12.5,0.69,-5.55
1900-01-01 19:54:02.936,21.62,16.2,-17.66,0.27,0.36,0.87,-2.79,-0.62,-2.06,35.65,33.78,-30.42,0.53,0.55,0.56,-1.03,1.27,0.24
1900-01-01 19:54:03.000,22.15,14.37,-17.82,0.26,0.39,0.93,-2.81,-0.38,-2.09,33.76,33.97,-30.39,0.56,0.56,0.62,-1.13,0.26,0.69
1900-01-01 19:54:03.114,22.09,14.78,-17.98,0.26,0.38,0.91,-2.18,-1.5,-2.27,34.65,34.71,-30.3,0.56,0.56,0.58,-0.99,-0.19,0.69
1900-01-01 19:54:03.159,21.01,15.84,-18.17,0.27,0.36,0.9,-1.8,-0.59,-3.15,35.01,35.13,-30.2,0.56,0.56,0.57,-0.47,1.06,-1.24
1900-01-01 19:54:03.256,21.2,15.48,-18.5,0.27,0.36,0.89,-1.35,-1.72,-3.76,34.98,34.65,-30.4,0.55,0.55,0.57,-0.02,0.62,-1.61
1900-01-01 19:54:03.346,22.57,15.86,-18.92,0.27,0.38,0.88,-0.41,-1.63,-4.48,37.52,33.61,-30.65,0.54,0.59,0.55,1.1,-0.4,-1.31
1900-01-01 19:54:03.388,22.62,15.53,-19.45,0.27,0.39,0.89,0.48,-2.81,-3.05,35.56,34.18,-30.86,0.55,0.57,0.57,-0.3,0.01,-2.89
1900-01-01 19:54:03.479,22.54,16.4,-19.76,0.28,0.38,0.88,0.93,-4.27,-3.96,37.75,33.6,-31.32,0.54,0.6,0.55,0.6,-0.18,-3.66
1900-01-01 19:54:03.536,21.96,17.05,-20.21,0.3,0.38,0.89,0.96,-3.76,-4.44,36.7,34.86,-31.89,0.56,0.58,0.55,0.4,-0.98,-3.73
1900-01-01 19:54:03.650,23.4,17.02,-20.73,0.3,0.4,0.88,0.57,-3.96,-5.31,38.6,33.56,-32.47,0.54,0.61,0.54,0.86,-0.48,-4.01
1900-01-01 19:54:03.702,23.08,16.73,-21.39,0.29,0.4,0.88,1.66,-3.58,-6.02,38.69,32.96,-33.09,0.53,0.61,0.54,1.26,-1.11,-6.41
1900-01-01 19:54:03.787,26.15,16.98,-22.15,0.29,0.44,0.85,1.45,-2.41,-5.66,43.44,30.02,-34.08,0.49,0.68,0.52,0.65,-0.66,-2.4
1900-01-01 19:54:03.865,27.44,17.4,-22.86,0.3,0.47,0.85,1.44,-1.4,-2.37,43.98,29.37,-34.46,0.49,0.7,0.53,1.35,4.12,-0.4
1900-01-01 19:54:03.924,26.31,18.38,-23.07,0.31,0.44,0.83,2.55,0.15,-0.73,42.84,31.26,-34.53,0.5,0.65,0.5,2.9,2.82,2.83
1900-01-01 19:54:04.089,27.43,16.29,-23.02,0.28,0.47,0.85,1.08,2.36,0.05,42.15,31.33,-34.11,0.5,0.64,0.51,0.08,7.44,4.18
1900-01-01 19:54:04.089,25.23,15.61,-22.85,0.27,0.43,0.87,-0.84,4.31,0.53,40.22,32.32,-33.48,0.53,0.64,0.54,-4.48,6.51,5.01
1900-01-01 19:54:04.223,25.53,15.87,-22.62,0.28,0.44,0.89,-1.71,4.86,1.24,39.38,32.43,-32.72,0.55,0.65,0.57,-5.72,2.73,7.63
1900-01-01 19:54:04.272,26.11,16.43,-22.27,0.29,0.46,0.88,2.24,2.89,3.12,39.8,32.08,-31.57,0.54,0.66,0.57,2.66,6.05,6.21
1900-01-01 19:54:04.309,26.26,16.59,-21.63,0.29,0.45,0.86,-3.42,3.42,4.56,38.44,33.71,-30.63,0.54,0.61,0.54,0.06,3.6,11.02
1900-01-01 19:54:04.427,24.32,16.7,-20.78,0.28,0.41,0.85,-0.95,4.27,4.95,38.45,33.75,-28.95,0.54,0.6,0.54,0.53,4.8,7.32
1900-01-01 19:54:04.471,24.78,15.98,-19.86,0.28,0.42,0.87,-12.84,5.9,6.85,33.18,37.21,-27.85,0.58,0.52,0.55,-8.08,5.27,17.88
1900-01-01 19:54:04.542,23.15,14.78,-18.65,0.26,0.41,0.91,-0.43,5.17,6.7,32.74,38.09,-25.11,0.62,0.54,0.57,2.64,4.82,10.5
1900-01-01 19:54:04.665,21.4,13.81,-17.47,0.24,0.37,0.92,1.25,6.87,5.99,29.7,37.3,-23.52,0.61,0.5,0.63,-1.96,-1.05,4.47
1900-01-01 19:54:04.717,18.6,12.12,-16.4,0.21,0.31,0.9,0.45,1.87,3.17,29.36,39.67,-22.84,0.6,0.46,0.56,1.66,-0.7,-0.51
1900-01-01 19:54:04.760,22.45,13.01,-15.75,0.22,0.38,0.89,-4.98,0.91,2.21,33.5,36.1,-22.93,0.58,0.54,0.58,-3.6,5.3,12.17
1900-01-01 19:54:04.849,21.06,12.86,-15.26,0.23,0.38,0.95,0.68,4.79,2.02,31.17,37.93,-21.07,0.63,0.53,0.61,0.59,8.4,7.27
1900-01-01 19:54:04.928,18.84,11.4,-14.79,0.2,0.32,0.92,-0.93,4.37,0.66,28.7,37.71,-19.97,0.6,0.47,0.61,1.02,5.43,3.63
1900-01-01 19:54:05.018,20.28,12.11,-14.53,0.2,0.33,0.88,-4.84,2.53,-1.06,28.33,38.03,-19.43,0.58,0.45,0.59,-4.5,1.28,5.41
1900-01-01 19:54:05.114,21.55,11.93,-14.54,0.2,0.36,0.9,-4.53,1.31,-1.28,29.75,37.62,-18.61,0.6,0.49,0.61,-5.14,-4.55,2.16
1900-01-01 19:54:05.155,19.64,13.23,-14.57,0.23,0.34,0.93,0.15,-2.59,-2.01,29.02,41.08,-18.29,0.65,0.48,0.57,0.79,0.54,-2.61
1900-01-01 19:54:05.222,22.02,13.02,-14.72,0.23,0.39,0.92,3.37,-2.33,-0.85,30.06,39.63,-18.69,0.62,0.49,0.57,-2.07,0.5,-4.96
1900-01-01 19:54:05.320,20.69,12.17,-14.7,0.21,0.36,0.92,2.33,-3.48,-0.72,29.65,37.91,-19.46,0.6,0.48,0.6,0.86,1.77,-5.97
1900-01-01 19:54:05.370,20.7,13.75,-14.65,0.25,0.37,0.94,0.46,-2.39,-0.11,30.19,40.58,-20.39,0.65,0.5,0.57,-0.3,2.8,-3.75
1900-01-01 19:54:05.455,23.41,14.28,-14.51,0.26,0.42,0.93,-0.21,-2.92,0.22,33.01,38.06,-20.97,0.62,0.55,0.57,-1.37,-0.05,-0.56
1900-01-01 19:54:05.534,20.41,16.47,-14.31,0.28,0.35,0.89,-0.47,-2.87,-0.05,31.57,39.09,-21.07,0.61,0.51,0.55,-1.37,0.27,-1.89
1900-01-01 19:54:05.629,21.03,16.42,-14.16,0.28,0.36,0.89,-2.91,-1.43,-0.37,32.21,40.0,-21.37,0.63,0.52,0.53,-2.36,1.55,-0.02
1900-01-01 19:54:05.677,21.18,17.61,-14.06,0.3,0.36,0.88,-1.27,0.66,-0.35,31.8,40.7,-21.38,0.63,0.51,0.53,0.34,0.0,1.45
1900-01-01 19:54:05.769,20.28,17.99,-13.95,0.32,0.36,0.91,-6.45,0.68,-3.1,28.91,45.76,-21.16,0.7,0.47,0.49,-8.79,0.26,-1.39
1900-01-01 19:54:05.907,18.21,17.98,-14.27,0.32,0.32,0.93,2.56,1.34,-8.47,30.63,42.25,-21.39,0.69,0.52,0.55,-6.82,1.62,-6.8
1900-01-01 19:54:05.907,23.94,12.08,-15.41,0.21,0.41,0.9,-1.98,1.67,-5.63,35.25,33.53,-22.44,0.56,0.58,0.61,-3.72,0.44,0.86
1900-01-01 19:54:06.000,23.81,8.79,-16.11,0.15,0.4,0.9,-4.81,2.73,-2.63,31.75,35.97,-22.31,0.56,0.5,0.59,-7.16,-0.46,3.29
1900-01-01 19:54:06.056,15.9,10.05,-16.36,0.17,0.27,0.92,-3.93,2.34,-4.24,27.45,38.06,-21.82,0.59,0.44,0.61,-5.24,-2.39,-1.12
1900-01-01 19:54:06.179,20.53,10.97,-16.85,0.2,0.37,0.96,-5.24,1.47,-3.92,27.69,39.32,-22.0,0.64,0.47,0.63,-11.37,0.65,2.92
1900-01-01 19:54:06.219,19.71,10.97,-17.3,0.2,0.35,0.96,-3.21,0.65,-2.67,27.28,39.18,-21.56,0.64,0.47,0.64,-6.55,2.12,1.17
1900-01-01 19:54:06.304,19.11,9.37,-17.55,0.16,0.32,0.91,-1.76,0.87,-2.91,28.06,36.08,-21.39,0.56,0.45,0.62,-1.94,2.91,-0.37
1900-01-01 19:54:06.373,18.86,9.47,-17.83,0.16,0.31,0.9,1.05,1.95,-1.75,25.48,37.11,-21.45,0.56,0.4,0.63,7.37,6.89,-3.69
1900-01-01 19:54:06.477,23.21,7.54,-17.94,0.13,0.4,0.91,3.39,-1.49,-0.03,32.98,31.38,-22.02,0.52,0.55,0.66,7.87,0.75,-3.02
1900-01-01 19:54:06.524,21.97,10.32,-17.79,0.18,0.37,0.9,-0.05,-2.22,4.0,30.2,36.53,-22.49,0.57,0.48,0.6,-3.91,-4.32,1.08
1900-01-01 19:54:06.643,17.97,12.45,-17.01,0.22,0.31,0.93,0.55,-3.43,1.6,25.79,41.62,-22.34,0.65,0.43,0.6,-2.05,-0.75,-2.61
1900-01-01 19:54:06.684,18.82,15.99,-16.61,0.29,0.34,0.94,3.56,-3.59,-1.43,30.34,42.32,-22.74,0.68,0.51,0.54,-0.7,-0.76,-4.05
1900-01-01 19:54:06.751,19.97,14.61,-16.67,0.26,0.35,0.93,-1.46,-1.31,-1.43,30.19,40.07,-23.38,0.64,0.5,0.58,-2.8,-1.38,-1.7
1900-01-01 19:54:06.864,20.66,13.22,-16.73,0.23,0.35,0.91,-1.98,0.09,-1.15,30.28,39.47,-23.65,0.61,0.49,0.56,-1.23,-1.16,-0.29
1900-01-01 19:54:06.924,19.74,12.4,-16.75,0.22,0.34,0.92,-2.95,0.8,-0.28,28.59,38.71,-23.7,0.63,0.48,0.62,-0.5,-1.4,3.14
1900-01-01 19:54:06.995,19.86,12.14,-16.64,0.21,0.34,0.92,0.76,0.26,-1.98,29.51,39.47,-23.23,0.62,0.48,0.58,0.15,-0.22,-0.04
1900-01-01 19:54:07.106,19.43,11.79,-16.78,0.2,0.33,0.92,1.91,-0.47,-3.24,29.01,39.72,-23.24,0.63,0.48,0.58,0.66,-0.63,-2.35
1900-01-01 19:54:07.150,21.46,12.49,-17.12,0.22,0.37,0.91,1.0,-0.4,-3.21,31.46,39.66,-23.61,0.63,0.51,0.56,-1.4,-0.05,-0.99
1900-01-01 19:54:07.297,21.12,11.65,-17.46,0.21,0.37,0.94,-1.21,-0.45,-1.31,29.34,41.15,-23.77,0.67,0.5,0.58,-6.56,-0.19,6.06
1900-01-01 19:54:07.297,21.44,11.71,-17.5,0.21,0.37,0.92,1.22,-2.67,-1.38,27.42,41.17,-22.85,0.64,0.45,0.58,1.4,0.44,-2.86
1900-01-01 19:54:07.383,21.36,12.77,-17.55,0.22,0.36,0.91,-1.5,-1.26,-1.23,30.3,41.15,-23.29,0.64,0.49,0.54,-0.45,0.78,-4.78
1900-01-01 19:54:07.464,21.51,12.11,-17.59,0.21,0.36,0.9,-0.53,0.68,-1.55,30.87,39.47,-24.04,0.62,0.5,0.56,0.46,2.13,-0.82
1900-01-01 19:54:07.530,21.29,12.2,-17.66,0.22,0.37,0.93,-0.42,-0.31,-1.66,31.15,39.64,-24.17,0.65,0.52,0.58,1.54,2.19,-0.15
1900-01-01 19:54:07.621,21.74,12.71,-17.76,0.22,0.38,0.92,-0.27,-0.93,-1.24,31.72,39.7,-24.2,0.63,0.52,0.56,-0.19,0.89,-0.5
1900-01-01 19:54:07.714,21.48,12.16,-17.79,0.21,0.37,0.92,-1.7,-0.47,-0.91,30.36,40.22,-24.29,0.64,0.5,0.57,-3.35,0.69,0.73
1900-01-01 19:54:07.749,20.62,11.37,-17.77,0.2,0.36,0.94,-0.98,-1.74,-2.11,28.88,40.56,-24.18,0.65,0.48,0.58,-1.42,-1.31,-0.38
1900-01-01 19:54:07.819,21.88,12.94,-17.94,0.23,0.38,0.91,1.44,-1.24,-2.45,34.58,38.79,-24.25,0.63,0.57,0.53,-0.47,0.22,1.26
1900-01-01 19:54:07.901,21.53,12.81,-18.16,0.23,0.37,0.92,-1.91,-0.07,-0.09,30.12,41.42,-24.07,0.65,0.49,0.55,-2.4,1.74,3.4
1900-01-01 19:54:07.993,20.58,12.96,-18.01,0.22,0.35,0.91,-1.34,-0.13,-1.36,29.14,41.53,-23.55,0.66,0.48,0.56,-1.27,2.08,1.04
1900-01-01 19:54:08.062,21.22,12.64,-18.06,0.22,0.37,0.92,-1.58,-1.41,-2.08,29.38,41.27,-23.4,0.65,0.49,0.56,-0.83,1.33,-0.15
1900-01-01 19:54:08.216,22.16,12.16,-18.23,0.21,0.38,0.91,0.28,-1.82,-1.92,31.19,39.89,-23.44,0.63,0.51,0.56,0.24,0.34,-0.89
1900-01-01 19:54:08.216,21.19,12.57,-18.36,0.22,0.37,0.93,-1.05,-1.28,-1.29,30.67,40.53,-23.58,0.66,0.52,0.57,-0.53,0.22,0.48
1900-01-01 19:54:08.303,21.14,13.4,-18.4,0.24,0.38,0.94,-2.18,-1.34,-0.7,30.49,41.17,-23.52,0.66,0.51,0.56,-1.68,0.54,0.45
1900-01-01 19:54:08.357,20.93,13.95,-18.35,0.24,0.36,0.91,-2.52,-0.86,-0.5,30.38,42.2,-23.45,0.67,0.5,0.54,-1.65,-0.86,1.46
1900-01-01 19:54:08.456,21.03,13.92,-18.27,0.24,0.36,0.9,-1.84,-1.87,-0.33,30.88,41.69,-23.24,0.65,0.5,0.53,-0.04,-1.13,0.44
1900-01-01 19:54:08.510,22.03,14.67,-18.16,0.26,0.38,0.9,0.23,-2.75,1.27,31.8,41.95,-23.18,0.66,0.52,0.52,1.58,0.75,-0.34
1900-01-01 19:54:08.644,21.7,14.57,-17.81,0.25,0.37,0.9,0.12,-2.92,2.47,31.63,42.18,-23.24,0.65,0.51,0.51,1.88,0.91,1.26
1900-01-01 19:54:08.713,22.46,14.27,-17.27,0.24,0.38,0.88,-2.62,-0.08,3.12,32.77,40.64,-23.06,0.63,0.53,0.52,-0.73,-0.31,7.04
1900-01-01 19:54:08.752,20.95,14.31,-16.63,0.25,0.36,0.9,-2.18,0.04,3.82,30.41,42.61,-21.98,0.66,0.5,0.52,-0.73,1.51,5.92
1900-01-01 19:54:08.850,21.06,15.54,-15.89,0.27,0.36,0.9,-1.17,-0.37,4.12,30.45,43.41,-21.09,0.67,0.5,0.51,0.34,1.56,5.73
1900-01-01 19:54:08.895,19.99,14.99,-15.1,0.26,0.35,0.92,-1.51,-0.04,4.49,28.84,44.55,-20.22,0.69,0.48,0.52,0.76,1.87,5.44
1900-01-01 19:54:08.982,19.71,15.92,-14.26,0.28,0.35,0.93,-1.48,0.92,3.83,28.46,45.26,-19.4,0.72,0.48,0.52,0.17,1.79,4.56
1900-01-01 19:54:09.083,19.66,14.03,-13.51,0.24,0.33,0.89,0.3,-0.79,2.92,29.52,43.12,-18.71,0.65,0.47,0.51,1.76,1.88,1.83
1900-01-01 19:54:09.135,16.12,12.47,-12.91,0.21,0.27,0.92,-2.4,0.24,2.15,20.28,48.03,-18.44,0.72,0.34,0.55,-0.31,0.15,-0.48
1900-01-01 19:54:09.226,20.95,15.89,-12.42,0.27,0.36,0.89,-0.89,-0.86,-1.54,32.88,43.07,-18.52,0.66,0.52,0.47,-0.82,0.9,1.06
1900-01-01 19:54:09.281,19.41,15.02,-12.5,0.26,0.34,0.93,-3.98,2.87,1.31,26.37,46.59,-18.37,0.72,0.44,0.52,-4.67,4.11,3.12
1900-01-01 19:54:09.377,18.01,14.71,-12.14,0.25,0.31,0.92,-0.53,2.16,-0.59,27.12,45.46,-17.9,0.7,0.45,0.53,-0.53,1.9,1.44
1900-01-01 19:54:09.449,18.26,15.74,-12.07,0.28,0.32,0.92,-0.53,1.82,-0.83,26.6,46.87,-17.68,0.72,0.44,0.51,-1.51,2.56,1.1
1900-01-01 19:54:09.498,20.07,14.86,-12.04,0.26,0.35,0.91,0.35,1.36,-0.31,28.93,45.04,-17.52,0.69,0.47,0.51,-1.56,2.6,0.82
1900-01-01 19:54:09.578,17.26,13.7,-11.93,0.24,0.3,0.92,-0.8,0.97,-0.74,25.07,45.8,-17.41,0.7,0.41,0.54,-1.54,1.85,0.31
1900-01-01 19:54:09.685,19.06,14.11,-11.89,0.24,0.32,0.9,0.11,2.88,-2.32,28.55,44.67,-17.37,0.68,0.46,0.51,-1.26,2.53,1.24
1900-01-01 19:54:09.746,18.3,12.98,-12.08,0.23,0.32,0.95,-2.05,3.22,-1.93,25.88,44.93,-17.19,0.71,0.44,0.56,-2.37,4.71,0.51
1900-01-01 19:54:09.848,17.5,13.43,-12.22,0.24,0.31,0.94,1.44,1.4,-2.66,26.03,45.36,-17.12,0.7,0.43,0.54,-1.87,4.64,-2.49
1900-01-01 19:54:09.891,19.88,12.95,-12.47,0.22,0.34,0.91,-0.24,1.73,-3.07,27.11,44.5,-17.51,0.67,0.43,0.52,-2.71,4.31,-1.73
1900-01-01 19:54:09.980,18.69,12.46,-12.78,0.22,0.33,0.94,-0.75,2.81,-4.1,26.14,44.49,-17.78,0.71,0.44,0.57,-3.44,3.26,-1.57
1900-01-01 19:54:10.041,19.67,11.0,-13.25,0.19,0.34,0.94,2.42,0.66,-3.95,27.65,42.49,-18.03,0.68,0.47,0.58,-1.76,2.44,-3.37
1900-01-01 19:54:10.153,19.74,11.54,-13.7,0.2,0.34,0.93,1.33,-0.74,-4.25,27.64,42.52,-18.56,0.67,0.46,0.57,-1.65,1.27,-3.63
1900-01-01 19:54:10.203,20.15,11.83,-14.19,0.21,0.35,0.93,0.94,-0.89,-3.98,28.97,42.32,-19.12,0.67,0.48,0.56,-1.27,0.66,-1.58
1900-01-01 19:54:10.295,21.16,11.97,-14.65,0.21,0.37,0.93,0.95,-2.36,-3.32,28.38,42.74,-19.37,0.68,0.48,0.56,-1.63,1.07,-3.51
1900-01-01 19:54:10.347,21.33,12.46,-15.0,0.22,0.37,0.93,1.39,-2.42,-2.83,29.7,42.19,-19.92,0.67,0.49,0.55,-1.12,0.85,-3.12
1900-01-01 19:54:10.445,21.36,11.26,-15.27,0.2,0.38,0.94,-0.05,-0.56,-2.08,28.38,41.8,-20.41,0.67,0.48,0.58,-2.03,2.22,-2.03
1900-01-01 19:54:10.552,21.26,10.88,-15.43,0.19,0.37,0.94,-0.17,-1.66,-2.77,28.4,41.39,-20.73,0.67,0.48,0.59,-1.68,2.43,-2.91
1900-01-01 19:54:10.648,22.24,11.85,-15.7,0.21,0.38,0.92,-0.66,-1.81,-2.61,31.06,39.62,-21.18,0.63,0.51,0.57,-2.36,4.42,-1.78
1900-01-01 19:54:10.684,21.3,13.04,-15.94,0.23,0.36,0.91,-2.63,-0.4,-1.95,29.97,41.05,-21.47,0.64,0.49,0.55,-3.21,3.5,-0.89
1900-01-01 19:54:10.732,21.52,11.85,-16.09,0.21,0.37,0.92,-1.93,-1.36,-1.56,28.8,39.82,-21.61,0.65,0.49,0.61,-2.39,1.42,-0.4
1900-01-01 19:54:10.822,20.97,11.89,-16.17,0.2,0.35,0.9,-0.55,-4.22,-2.48,28.12,41.66,-21.68,0.62,0.44,0.54,-1.53,-0.85,-2.51
1900-01-01 19:54:10.924,20.98,13.35,-16.39,0.23,0.36,0.9,-1.76,-1.81,-2.89,30.47,40.75,-22.08,0.64,0.49,0.55,-1.26,-0.5,-1.43
1900-01-01 19:54:10.968,20.87,14.01,-16.68,0.24,0.36,0.91,0.19,-0.69,-1.47,31.15,40.64,-22.31,0.65,0.51,0.55,-0.84,-0.41,-0.21
1900-01-01 19:54:11.060,19.9,12.16,-16.75,0.21,0.34,0.91,-0.98,-1.82,1.2,29.14,40.47,-22.35,0.64,0.48,0.57,0.4,0.42,0.98
1900-01-01 19:54:11.119,21.13,13.16,-16.41,0.22,0.35,0.89,0.82,-1.66,6.06,31.89,39.25,-22.21,0.61,0.51,0.55,2.36,1.28,2.8
1900-01-01 19:54:11.250,19.5,15.1,-15.32,0.25,0.32,0.86,-5.53,-3.77,10.57,31.18,40.89,-21.79,0.62,0.49,0.52,-1.77,-0.74,5.08
1900-01-01 19:54:11.293,16.14,16.26,-13.54,0.27,0.27,0.88,-4.44,-3.63,15.96,27.27,43.26,-21.01,0.66,0.44,0.54,5.39,-0.53,8.15
1900-01-01 19:54:11.390,19.03,17.6,-10.93,0.31,0.34,0.92,-0.69,-6.8,17.56,28.43,43.54,-19.77,0.68,0.47,0.54,5.86,-2.9,7.51
1900-01-01 19:54:11.466,18.55,18.4,-8.08,0.32,0.32,0.91,-0.55,-5.34,12.27,27.39,44.55,-18.63,0.68,0.45,0.53,5.9,-5.18,5.17
1900-01-01 19:54:11.514,19.66,21.08,-6.04,0.39,0.36,0.93,1.66,-1.31,3.82,31.09,45.0,-17.84,0.75,0.54,0.51,2.37,-0.87,4.15
1900-01-01 19:54:11.570,18.84,19.6,-5.3,0.35,0.34,0.93,2.08,-3.65,-2.51,26.44,46.8,-17.22,0.71,0.43,0.51,3.27,0.52,-3.8
1900-01-01 19:54:11.652,16.72,21.62,-5.52,0.39,0.3,0.93,5.24,0.04,-7.8,29.53,47.05,-17.81,0.78,0.52,0.5,-0.13,3.28,-1.08
1900-01-01 19:54:11.754,21.29,16.98,-6.56,0.3,0.38,0.92,3.81,-2.4,-7.51,33.54,41.96,-17.98,0.68,0.56,0.51,2.47,2.41,-2.34
1900-01-01 19:54:11.808,21.2,19.78,-7.55,0.34,0.36,0.86,-0.74,0.18,-3.24,30.99,43.33,-18.35,0.67,0.5,0.5,-3.4,3.66,2.46
1900-01-01 19:54:11.900,19.78,20.56,-7.88,0.37,0.35,0.91,-2.11,3.0,-1.65,29.61,45.51,-17.98,0.74,0.51,0.52,-5.69,7.11,0.58
1900-01-01 19:54:11.955,18.78,22.03,-7.98,0.39,0.33,0.9,-3.38,2.13,-1.62,27.58,48.81,-17.9,0.77,0.47,0.48,-7.9,-1.87,-0.01
1900-01-01 19:54:12.071,16.52,22.22,-8.07,0.39,0.29,0.9,-3.4,-0.76,-7.18,28.15,49.61,-17.91,0.75,0.47,0.44,-7.67,5.31,-9.4
1900-01-01 19:54:12.121,20.26,19.75,-9.01,0.34,0.35,0.88,-1.11,1.46,-8.62,33.2,39.71,-19.36,0.66,0.57,0.56,-8.11,-0.73,-4.23
1900-01-01 19:54:12.193,18.02,18.34,-10.18,0.3,0.3,0.87,-4.41,-0.56,-6.59,26.53,39.54,-20.02,0.58,0.41,0.57,-5.4,1.33,-10.62
1900-01-01 19:54:12.279,22.04,11.8,-11.03,0.21,0.38,0.91,-4.47,-0.85,-3.96,29.12,37.63,-21.67,0.6,0.48,0.61,-3.19,-1.55,-0.96
1900-01-01 19:54:12.414,17.88,17.41,-11.49,0.3,0.3,0.89,-2.47,1.22,-7.08,29.05,42.36,-21.82,0.65,0.47,0.54,-4.11,-0.26,-3.08
1900-01-01 19:54:12.414,19.12,16.58,-12.42,0.31,0.35,0.96,-0.56,0.6,-6.82,29.22,41.72,-22.31,0.69,0.5,0.58,-5.26,2.08,-4.15
1900-01-01 19:54:12.508,19.81,15.29,-13.31,0.27,0.35,0.92,1.44,0.31,-4.63,31.55,39.1,-22.95,0.62,0.52,0.57,-0.05,5.57,-1.97
1900-01-01 19:54:12.609,23.02,14.25,-13.86,0.25,0.4,0.9,4.37,1.44,-1.11,31.74,35.4,-23.26,0.57,0.52,0.61,5.81,13.29,-5.01
1900-01-01 19:54:12.656,22.94,14.29,-13.87,0.24,0.38,0.88,2.37,-0.61,3.04,33.4,36.0,-24.04,0.57,0.53,0.57,-2.92,6.38,1.08
1900-01-01 19:54:12.721,22.06,14.84,-13.25,0.25,0.37,0.88,-2.55,0.65,3.4,32.38,35.85,-23.88,0.56,0.51,0.58,-4.39,6.75,3.48
1900-01-01 19:54:12.836,18.45,17.75,-12.57,0.32,0.33,0.93,-1.24,0.52,4.51,28.18,41.39,-23.36,0.65,0.47,0.57,-4.22,14.52,0.12
1900-01-01 19:54:12.885,18.68,18.5,-11.72,0.33,0.34,0.94,-0.33,-1.24,2.63,29.57,37.79,-23.35,0.64,0.52,0.65,-4.53,9.59,-2.52
1900-01-01 19:54:12.973,21.98,17.89,-11.16,0.32,0.39,0.9,5.51,-0.3,2.85,34.15,31.88,-23.74,0.52,0.55,0.63,1.21,4.63,-1.35
1900-01-01 19:54:13.040,20.58,16.64,-10.56,0.28,0.34,0.87,-3.68,3.25,4.71,29.77,34.39,-23.96,0.54,0.47,0.63,-3.43,2.53,3.98
1900-01-01 19:54:13.160,16.84,18.5,-9.68,0.32,0.29,0.9,-2.94,1.57,3.02,27.2,39.24,-23.36,0.62,0.45,0.62,-2.49,0.59,3.96
1900-01-01 19:54:13.220,19.71,20.01,-9.07,0.34,0.34,0.88,0.05,-1.37,-0.61,32.76,36.17,-22.76,0.57,0.53,0.58,-0.22,-0.96,-0.54
1900-01-01 19:54:13.261,17.48,18.88,-9.0,0.33,0.3,0.9,-3.6,1.22,0.31,29.42,37.11,-22.85,0.6,0.48,0.62,-0.38,-1.41,3.16
1900-01-01 19:54:13.351,16.18,20.43,-8.79,0.36,0.29,0.92,-4.7,1.7,-1.74,25.58,43.05,-22.38,0.66,0.42,0.57,-1.52,-1.08,0.9
1900-01-01 19:54:13.480,19.38,18.21,-8.9,0.32,0.34,0.91,4.77,0.23,-3.85,33.72,33.96,-22.25,0.56,0.56,0.62,3.24,1.5,-5.18
1900-01-01 19:54:13.480,21.0,14.22,-9.33,0.24,0.35,0.89,-0.54,0.49,-0.71,30.76,33.27,-23.05,0.52,0.49,0.63,3.57,-4.67,1.96
1900-01-01 19:54:13.577,20.91,14.91,-9.28,0.25,0.35,0.89,-1.09,1.59,-1.32,31.65,34.94,-22.75,0.54,0.5,0.6,2.21,-6.08,1.64
1900-01-01 19:54:13.663,19.23,15.74,-9.32,0.28,0.34,0.92,-0.27,0.11,-1.79,29.73,37.94,-22.51,0.61,0.49,0.61,2.95,-6.89,-0.18
1900-01-01 19:54:13.718,19.45,15.96,-9.44,0.28,0.34,0.92,0.27,-1.98,-1.92,29.33,39.39,-22.55,0.61,0.47,0.57,0.03,-9.56,-2.98
1900-01-01 19:54:13.797,19.96,16.71,-9.58,0.29,0.35,0.91,-1.1,-1.99,-3.42,31.35,41.3,-23.01,0.64,0.5,0.52,-0.85,-12.45,-3.76
1900-01-01 19:54:13.906,20.61,16.77,-9.95,0.3,0.36,0.91,1.15,-1.24,-2.2,34.32,40.88,-23.6,0.66,0.56,0.5,-0.08,-4.74,-4.82
1900-01-01 19:54:13.959,20.2,15.96,-10.12,0.29,0.36,0.94,2.25,-3.38,-0.99,36.05,41.22,-24.35,0.68,0.61,0.48,-0.73,0.21,2.09
1900-01-01 19:54:14.066,19.17,16.8,-10.12,0.29,0.33,0.89,8.95,-0.34,-2.1,31.63,40.78,-24.04,0.65,0.52,0.54,2.45,2.68,0.14
1900-01-01 19:54:14.110,21.15,16.58,-10.28,0.29,0.37,0.9,-3.55,0.31,-0.85,30.3,44.23,-24.03,0.67,0.49,0.49,-3.08,0.2,-0.43
1900-01-01 19:54:14.207,21.58,17.38,-10.25,0.3,0.36,0.87,0.75,3.15,-1.44,36.0,38.88,-24.1,0.63,0.59,0.51,0.95,2.82,-3.32
1900-01-01 19:54:14.248,19.01,16.97,-10.31,0.3,0.33,0.91,-8.42,0.56,-0.02,27.99,43.56,-24.62,0.68,0.46,0.55,-6.22,5.5,3.62
1900-01-01 19:54:14.355,21.77,16.82,-10.16,0.3,0.38,0.91,1.08,-1.32,-2.46,34.24,39.56,-24.07,0.65,0.57,0.53,-1.6,4.15,-2.3
1900-01-01 19:54:14.405,20.87,16.94,-10.38,0.29,0.36,0.9,-1.85,-0.99,-1.38,33.24,40.58,-24.43,0.63,0.53,0.51,-7.64,5.4,-1.2
1900-01-01 19:54:14.480,20.73,16.27,-10.43,0.28,0.35,0.89,-3.97,0.11,-1.06,35.06,37.47,-24.62,0.6,0.56,0.54,-13.46,7.84,3.01
1900-01-01 19:54:14.572,20.64,15.93,-10.44,0.28,0.36,0.91,-5.53,1.06,-0.41,29.47,39.02,-24.17,0.61,0.47,0.58,-7.9,6.05,4.08
1900-01-01 19:54:14.641,19.62,16.15,-10.34,0.29,0.36,0.95,0.4,1.44,-1.39,30.15,39.45,-23.55,0.66,0.52,0.61,-0.87,1.53,1.96
1900-01-01 19:54:14.756,20.04,15.72,-10.39,0.28,0.35,0.93,0.4,-1.5,-1.14,28.96,38.52,-23.26,0.61,0.48,0.6,0.64,0.73,-0.79
1900-01-01 19:54:14.797,21.52,16.32,-10.41,0.28,0.36,0.88,-2.54,-0.18,-1.98,32.4,38.75,-23.39,0.59,0.51,0.54,-6.95,-3.95,-1.05
1900-01-01 19:54:14.877,18.52,14.48,-10.56,0.26,0.33,0.96,-2.17,-1.02,-2.55,29.76,39.89,-23.56,0.65,0.5,0.59,0.98,2.19,-2.77
1900-01-01 19:54:15.009,20.17,15.8,-10.79,0.28,0.35,0.92,-0.69,-2.33,-2.05,31.19,38.21,-24.0,0.62,0.52,0.59,3.25,-1.78,-1.34
1900-01-01 19:54:15.069,20.44,16.96,-10.95,0.29,0.35,0.89,0.98,-2.49,-3.08,32.0,38.42,-24.21,0.6,0.51,0.56,0.85,-8.75,-4.24
1900-01-01 19:54:15.105,19.96,17.27,-11.26,0.3,0.34,0.89,1.53,-1.96,-2.72,34.05,39.65,-24.87,0.62,0.54,0.51,2.21,-6.25,-0.79
1900-01-01 19:54:15.192,21.33,17.38,-11.52,0.31,0.38,0.92,-1.37,-2.43,0.09,32.41,41.55,-25.0,0.67,0.54,0.52,-4.56,0.08,5.68
1900-01-01 19:54:15.312,21.08,17.2,-11.35,0.3,0.36,0.89,2.43,-1.5,0.15,32.04,40.74,-24.14,0.64,0.52,0.53,-2.24,2.33,-0.53
1900-01-01 19:54:15.397,20.64,17.82,-11.17,0.3,0.35,0.88,0.32,-1.22,-0.49,31.27,41.55,-24.23,0.64,0.5,0.52,-0.05,0.63,-4.45
1900-01-01 19:54:15.397,21.9,16.99,-11.08,0.29,0.37,0.88,4.45,0.56,-1.52,35.49,37.61,-24.92,0.61,0.58,0.53,5.02,1.7,-4.56
1900-01-01 19:54:15.498,20.94,16.66,-11.16,0.29,0.36,0.9,-2.42,1.18,-0.28,33.59,39.89,-25.63,0.63,0.55,0.53,0.19,0.51,4.33
1900-01-01 19:54:15.571,20.63,17.1,-11.04,0.3,0.36,0.9,-0.43,1.38,-1.46,33.38,40.99,-24.97,0.65,0.54,0.51,1.61,1.05,0.96
1900-01-01 19:54:15.701,20.62,17.36,-11.1,0.3,0.36,0.89,-0.85,1.09,-1.19,33.55,41.21,-24.83,0.65,0.54,0.5,-0.15,0.83,0.59
1900-01-01 19:54:15.765,22.5,17.61,-11.13,0.3,0.38,0.87,0.08,2.8,0.2,36.9,38.29,-24.75,0.61,0.59,0.49,-1.34,1.01,3.61
1900-01-01 19:54:15.808,19.81,15.23,-10.94,0.27,0.35,0.92,-0.96,4.25,1.73,30.04,42.51,-24.21,0.68,0.5,0.54,1.05,3.84,5.52
1900-01-01 19:54:15.872,20.95,16.02,-10.52,0.28,0.36,0.9,2.4,2.44,1.2,33.87,41.44,-23.38,0.66,0.55,0.5,4.08,2.86,2.91
1900-01-01 19:54:15.989,21.5,16.62,-10.18,0.29,0.37,0.9,0.27,0.83,1.95,32.35,42.28,-22.94,0.67,0.54,0.51,-1.55,4.76,6.55
1900-01-01 19:54:16.030,19.4,15.33,-9.72,0.27,0.33,0.91,-1.08,-2.21,-0.01,29.78,42.61,-21.95,0.67,0.49,0.54,-0.31,0.54,5.35
1900-01-01 19:54:16.090,21.41,16.29,-9.56,0.28,0.37,0.89,1.11,-1.2,-0.4,31.6,43.22,-21.14,0.67,0.51,0.49,0.98,0.29,0.85
1900-01-01 19:54:16.234,21.64,16.05,-9.47,0.28,0.38,0.91,-0.31,-0.23,0.42,32.58,42.78,-21.02,0.69,0.54,0.5,1.05,0.68,1.21
1900-01-01 19:54:16.275,21.56,16.53,-9.24,0.29,0.38,0.91,0.05,-0.15,1.75,30.9,43.73,-20.84,0.7,0.52,0.51,0.89,1.37,1.77
1900-01-01 19:54:16.321,21.01,16.4,-8.82,0.29,0.37,0.91,-1.54,-0.99,1.69,30.73,43.51,-20.58,0.69,0.51,0.52,-0.06,1.3,2.18
1900-01-01 19:54:16.407,20.44,16.07,-8.4,0.27,0.35,0.89,-1.74,-1.34,0.68,30.0,43.45,-20.26,0.66,0.48,0.5,-1.21,1.12,1.53
1900-01-01 19:54:16.474,21.24,15.83,-8.14,0.27,0.36,0.89,-1.94,-0.89,-0.92,31.22,43.17,-20.03,0.67,0.51,0.5,-2.4,0.58,0.63
1900-01-01 19:54:16.572,22.01,16.77,-8.12,0.3,0.39,0.91,1.52,-1.98,-1.19,32.09,43.1,-19.95,0.69,0.53,0.5,-2.92,5.11,-1.17
1900-01-01 19:54:16.622,20.44,17.26,-8.15,0.29,0.35,0.88,0.79,-0.24,-0.93,30.31,42.7,-20.13,0.65,0.48,0.51,-0.53,-0.2,-4.29
1900-01-01 19:54:16.722,19.97,16.67,-8.13,0.28,0.33,0.88,-2.78,3.34,-1.49,31.55,43.18,-20.8,0.66,0.51,0.49,-1.41,-3.79,-1.81
1900-01-01 19:54:16.800,20.72,16.06,-8.2,0.28,0.36,0.91,-3.43,2.08,-1.44,32.14,43.36,-21.09,0.69,0.53,0.5,-2.55,1.07,3.25
1900-01-01 19:54:16.854,19.89,16.29,-8.26,0.29,0.35,0.92,-1.6,0.77,-1.61,30.56,44.14,-20.6,0.69,0.5,0.5,-1.74,2.98,0.42
1900-01-01 19:54:17.024,19.65,15.68,-8.35,0.27,0.34,0.91,-2.11,2.1,-1.61,31.06,42.83,-20.54,0.67,0.51,0.51,-2.56,5.0,1.61
1900-01-01 19:54:17.024,19.81,15.82,-8.44,0.27,0.34,0.89,-4.22,1.74,-3.57,30.03,43.43,-20.3,0.65,0.48,0.5,-6.34,6.76,0.21
1900-01-01 19:54:17.089,20.24,14.78,-8.82,0.26,0.35,0.92,-5.2,1.8,-2.08,31.58,40.51,-20.28,0.66,0.53,0.56,-10.6,5.5,7.41
1900-01-01 19:54:17.226,17.05,14.94,-8.99,0.27,0.3,0.95,-3.03,0.98,-2.51,25.07,45.32,-19.15,0.71,0.43,0.56,-4.74,1.92,0.84
1900-01-01 19:54:17.272,18.31,14.72,-9.21,0.26,0.32,0.93,-1.18,-0.46,-3.69,28.64,42.28,-19.03,0.68,0.48,0.57,-2.92,3.74,-0.73
1900-01-01 19:54:17.328,18.59,14.96,-9.62,0.27,0.33,0.94,-2.03,-0.07,-1.8,27.74,42.67,-19.15,0.67,0.46,0.57,-2.15,4.34,-1.71
1900-01-01 19:54:17.395,17.93,14.89,-9.74,0.26,0.31,0.92,-1.12,-0.76,-2.92,28.26,41.17,-19.42,0.65,0.47,0.58,-0.55,1.35,-2.32
1900-01-01 19:54:17.523,17.63,14.31,-10.03,0.25,0.3,0.93,-0.63,-2.85,-2.97,27.06,41.47,-19.79,0.66,0.45,0.59,-1.79,-4.29,-3.73
1900-01-01 19:54:17.577,19.37,14.29,-10.33,0.25,0.34,0.93,1.04,-4.42,-3.02,28.76,42.35,-20.37,0.67,0.48,0.56,-0.37,-8.13,-5.13
1900-01-01 19:54:17.624,18.97,15.23,-10.63,0.26,0.33,0.91,5.12,-3.27,-2.95,32.47,42.34,-21.17,0.66,0.52,0.5,2.18,-4.24,-5.22
1900-01-01 19:54:17.729,19.89,14.76,-10.93,0.26,0.35,0.92,-3.27,0.42,-0.24,29.3,44.55,-21.98,0.69,0.48,0.51,-7.1,3.06,6.22
1900-01-01 19:54:17.773,19.09,14.96,-10.81,0.26,0.33,0.93,-5.43,0.11,-0.34,28.98,43.46,-21.04,0.69,0.49,0.54,-5.7,2.68,5.69
1900-01-01 19:54:17.869,18.53,16.36,-10.7,0.28,0.32,0.91,0.58,0.63,-1.06,28.05,43.77,-20.17,0.67,0.45,0.53,-2.11,1.47,-1.6
1900-01-01 19:54:17.920,19.17,14.98,-10.7,0.26,0.33,0.92,-0.57,0.09,-1.29,28.75,43.2,-20.43,0.68,0.48,0.54,1.43,2.99,-1.88
1900-01-01 19:54:18.040,18.25,15.86,-10.74,0.28,0.32,0.92,-0.72,0.18,-1.04,28.55,43.79,-20.72,0.68,0.47,0.53,1.31,4.81,-1.48
1900-01-01 19:54:18.087,18.22,15.29,-10.74,0.26,0.31,0.9,-0.81,1.24,-0.82,30.18,40.65,-20.96,0.62,0.48,0.54,-2.79,5.27,-1.08
1900-01-01 19:54:18.193,18.8,13.82,-10.71,0.24,0.33,0.93,-1.69,2.79,-1.06,28.43,41.64,-21.13,0.65,0.47,0.57,-4.48,5.13,1.69
1900-01-01 19:54:18.238,17.53,14.22,-10.71,0.25,0.3,0.93,0.92,2.02,-2.59,28.6,41.6,-20.88,0.66,0.48,0.57,-0.14,3.95,2.82
1900-01-01 19:54:18.334,18.06,13.78,-10.95,0.25,0.32,0.96,-4.04,1.85,-0.68,26.37,42.18,-20.46,0.68,0.45,0.6,-5.83,3.15,3.79
1900-01-01 19:54:18.395,18.58,13.66,-10.9,0.24,0.32,0.93,-1.17,1.63,-1.38,29.03,41.55,-19.88,0.66,0.48,0.56,-4.36,2.41,2.13
1900-01-01 19:54:18.547,18.39,13.82,-10.95,0.25,0.32,0.95,-0.42,1.96,-1.08,26.41,42.35,-19.57,0.68,0.45,0.6,-3.28,3.59,1.08
1900-01-01 19:54:18.547,18.45,13.01,-10.96,0.22,0.31,0.92,2.39,0.03,-2.11,28.66,39.73,-19.41,0.63,0.47,0.59,0.87,2.72,-2.05
1900-01-01 19:54:18.641,19.78,13.04,-11.12,0.23,0.34,0.92,0.17,0.53,-1.91,27.42,40.17,-19.73,0.63,0.45,0.6,-2.53,1.99,-1.47
1900-01-01 19:54:18.724,18.79,12.88,-11.26,0.23,0.33,0.94,0.18,0.16,-1.69,26.8,40.84,-19.96,0.64,0.44,0.6,-2.31,2.66,-1.82
1900-01-01 19:54:18.787,19.4,12.82,-11.36,0.23,0.34,0.94,-0.11,0.53,-2.1,28.04,40.11,-20.25,0.64,0.47,0.6,-1.76,2.92,-0.76
1900-01-01 19:54:18.869,19.36,13.24,-11.52,0.24,0.34,0.94,0.01,0.39,-1.26,27.44,40.15,-20.38,0.65,0.46,0.61,-1.07,2.36,-0.5
1900-01-01 19:54:18.957,19.41,12.96,-11.55,0.23,0.33,0.92,0.51,-0.08,-1.29,28.23,39.73,-20.46,0.62,0.46,0.59,-0.67,1.68,-1.28
1900-01-01 19:54:19.008,20.14,12.45,-11.59,0.22,0.35,0.92,-0.39,0.62,-1.01,28.11,39.47,-20.67,0.62,0.46,0.6,-1.45,2.97,-0.39
1900-01-01 19:54:19.108,19.9,11.76,-11.59,0.21,0.34,0.92,0.12,0.63,-1.35,28.0,38.64,-20.73,0.62,0.46,0.62,-0.47,2.47,-0.53
1900-01-01 19:54:19.156,19.85,12.38,-11.64,0.22,0.34,0.93,-0.02,0.07,-1.04,28.26,38.82,-20.83,0.62,0.47,0.61,-1.53,1.6,-0.09
1900-01-01 19:54:19.245,19.5,12.36,-11.64,0.22,0.34,0.93,-0.38,-0.44,-1.11,27.8,39.28,-20.85,0.62,0.46,0.61,-1.04,1.72,-0.78
1900-01-01 19:54:19.302,19.86,12.17,-11.65,0.21,0.34,0.93,-0.69,-0.63,-1.29,28.04,39.22,-20.98,0.62,0.46,0.6,-1.47,3.15,-1.53
1900-01-01 19:54:19.420,20.63,12.26,-11.69,0.21,0.36,0.92,-0.77,-0.35,-1.13,28.4,38.38,-21.22,0.61,0.47,0.61,-1.88,1.47,-0.38
1900-01-01 19:54:19.469,20.06,11.88,-11.71,0.21,0.35,0.93,-0.46,-0.38,-1.21,28.26,38.26,-21.29,0.61,0.47,0.62,-1.24,1.01,-0.34
1900-01-01 19:54:19.561,19.75,12.68,-11.74,0.22,0.34,0.91,-0.37,-1.12,-1.63,28.56,38.57,-21.35,0.6,0.46,0.59,-1.5,1.38,-2.19
1900-01-01 19:54:19.613,20.11,12.02,-11.83,0.21,0.35,0.92,-0.27,0.38,-1.44,28.69,38.48,-21.69,0.61,0.47,0.6,-0.46,3.37,-2.26
1900-01-01 19:54:19.708,20.22,12.49,-11.89,0.22,0.35,0.92,1.11,0.44,-1.92,30.2,37.92,-22.05,0.61,0.5,0.61,3.43,0.53,-0.08
1900-01-01 19:54:19.774,20.99,11.99,-12.03,0.22,0.37,0.95,1.68,-1.65,0.64,31.47,37.56,-22.07,0.63,0.54,0.62,4.31,-0.15,4.02
1900-01-01 19:54:19.928,20.06,13.04,-11.77,0.23,0.35,0.92,0.92,-1.08,0.74,28.71,39.09,-21.46,0.62,0.48,0.6,2.08,-0.1,4.31
1900-01-01 19:54:19.928,20.01,12.52,-11.5,0.22,0.34,0.91,2.11,-1.26,-0.6,29.81,38.05,-20.81,0.6,0.48,0.59,3.5,2.94,-0.18
1900-01-01 19:54:20.022,22.29,12.99,-11.43,0.23,0.38,0.9,-2.18,-0.16,-0.17,30.22,39.06,-20.85,0.61,0.49,0.57,-2.6,0.11,2.77
1900-01-01 19:54:20.084,22.18,12.42,-11.3,0.22,0.38,0.9,-0.98,-1.25,-0.54,28.63,37.83,-20.43,0.59,0.46,0.6,-3.29,-0.44,-2.5
1900-01-01 19:54:20.180,21.18,12.97,-11.23,0.22,0.36,0.9,-1.75,-0.11,-1.22,29.69,39.08,-20.83,0.61,0.48,0.58,-0.56,2.01,-0.73
1900-01-01 19:54:20.224,20.43,12.55,-11.25,0.22,0.36,0.93,-1.69,0.41,-1.21,29.32,39.18,-20.95,0.64,0.49,0.61,-0.95,2.31,0.59
1900-01-01 19:54:20.333,20.88,12.98,-11.28,0.23,0.36,0.92,-0.47,-0.73,-1.72,30.77,38.61,-20.86,0.61,0.5,0.57,-1.59,2.84,-2.29
1900-01-01 19:54:20.378,21.62,12.93,-11.39,0.23,0.37,0.92,-2.56,1.12,-1.37,30.32,38.94,-21.23,0.62,0.5,0.58,-6.47,3.97,-4.1
1900-01-01 19:54:20.481,19.55,13.15,-11.44,0.23,0.34,0.94,-4.78,-0.92,-1.7,28.73,38.51,-21.86,0.61,0.47,0.61,-2.77,7.42,-8.95
1900-01-01 19:54:20.559,20.43,11.34,-11.54,0.21,0.36,0.96,0.76,1.4,-0.63,28.33,37.55,-23.25,0.63,0.49,0.66,-3.13,-2.74,5.64
1900-01-01 19:54:20.605,21.57,11.46,-11.48,0.2,0.37,0.92,1.77,0.02,-1.26,31.85,36.06,-22.39,0.59,0.53,0.61,-2.47,-2.37,0.87
1900-01-01 19:54:20.688,19.69,12.1,-11.52,0.21,0.34,0.92,-1.95,0.91,-0.32,27.72,38.23,-22.27,0.6,0.45,0.61,-3.0,1.97,1.21
1900-01-01 19:54:20.829,20.47,12.26,-11.41,0.21,0.35,0.91,-0.84,0.14,-1.91,29.47,37.73,-22.09,0.58,0.47,0.59,-2.15,2.7,-2.17
1900-01-01 19:54:20.881,21.03,11.77,-11.54,0.2,0.36,0.91,-1.12,1.24,-2.21,29.79,37.39,-22.43,0.6,0.49,0.61,-2.14,3.03,-0.31
1900-01-01 19:54:20.923,20.63,12.29,-11.72,0.22,0.36,0.93,-0.93,-0.12,-1.95,29.58,37.47,-22.49,0.6,0.49,0.61,-1.59,3.82,-3.18
1900-01-01 19:54:21.018,20.61,11.94,-11.86,0.21,0.36,0.94,-1.4,-0.62,-0.82,29.14,36.06,-22.99,0.58,0.48,0.64,-5.52,6.08,-6.4
1900-01-01 19:54:21.065,20.31,11.69,-11.83,0.2,0.35,0.92,0.58,0.09,-1.25,30.4,34.61,-23.98,0.56,0.5,0.64,1.0,2.36,-1.34
1900-01-01 19:54:21.209,19.64,11.47,-11.86,0.2,0.33,0.92,0.17,1.07,-0.31,29.92,35.37,-24.19,0.58,0.5,0.64,4.92,-2.36,5.25
1900-01-01 19:54:21.274,21.23,11.51,-11.75,0.2,0.36,0.92,1.31,-1.53,-1.89,30.06,35.93,-23.4,0.57,0.48,0.62,4.4,-1.85,0.27
1900-01-01 19:54:21.326,21.72,11.96,-11.88,0.21,0.37,0.9,0.76,-1.53,-1.64,31.86,36.04,-23.36,0.57,0.51,0.59,0.98,-1.66,1.01
1900-01-01 19:54:21.377,21.26,11.65,-11.97,0.2,0.36,0.91,0.08,-0.65,-1.8,32.42,36.44,-23.22,0.59,0.53,0.59,0.8,-2.24,3.82
1900-01-01 19:54:21.471,20.54,11.27,-12.09,0.2,0.36,0.93,0.8,-2.95,-1.7,30.25,38.0,-22.64,0.61,0.5,0.6,1.05,-0.6,4.79
1900-01-01 19:54:21.561,20.53,12.65,-12.19,0.22,0.36,0.93,-0.9,-2.08,-1.83,29.68,40.1,-21.91,0.64,0.49,0.58,0.08,0.44,-0.69
1900-01-01 19:54:21.650,21.78,12.25,-12.32,0.22,0.38,0.92,2.18,-1.96,-3.09,32.68,37.65,-22.03,0.61,0.54,0.57,1.95,0.82,-2.68
1900-01-01 19:54:21.695,22.65,12.08,-12.63,0.21,0.39,0.91,-0.35,-0.66,-0.54,32.33,37.31,-22.45,0.6,0.53,0.59,-2.03,0.37,0.16
1900-01-01 19:54:21.838,21.26,12.17,-12.56,0.21,0.37,0.92,-1.63,-1.35,-0.68,31.18,38.06,-22.43,0.61,0.51,0.59,-1.38,-0.05,0.14
1900-01-01 19:54:21.838,21.32,12.91,-12.5,0.23,0.37,0.91,-0.88,-2.01,-1.67,32.06,38.19,-22.42,0.61,0.52,0.57,-1.42,0.4,-0.27
1900-01-01 19:54:21.943,22.29,12.51,-12.6,0.22,0.38,0.91,-1.59,-0.95,-0.34,31.98,38.21,-22.47,0.61,0.52,0.57,-1.37,0.2,1.11
1900-01-01 19:54:21.988,21.83,12.8,-12.5,0.23,0.38,0.92,-1.18,-0.89,-0.03,31.59,38.8,-22.31,0.63,0.53,0.58,-1.19,0.34,1.06
1900-01-01 19:54:22.085,21.04,13.57,-12.34,0.24,0.37,0.92,-2.23,-1.27,0.63,31.05,39.21,-22.15,0.63,0.51,0.57,-1.33,0.02,1.65
1900-01-01 19:54:22.176,20.95,13.3,-12.09,0.23,0.36,0.91,-2.06,-1.84,0.49,30.64,39.59,-21.91,0.62,0.5,0.56,-0.94,-0.36,0.81
1900-01-01 19:54:22.251,20.6,13.55,-11.85,0.24,0.36,0.92,-1.99,-1.59,0.61,30.43,39.86,-21.79,0.63,0.5,0.57,-0.61,-0.02,1.72
1900-01-01 19:54:22.292,20.51,14.38,-11.6,0.25,0.35,0.9,-2.05,-2.89,-0.12,31.16,39.9,-21.54,0.62,0.5,0.55,0.59,-0.05,0.47
1900-01-01 19:54:22.402,20.89,13.56,-11.46,0.24,0.36,0.91,-1.27,-2.04,-0.31,31.06,40.29,-21.48,0.64,0.51,0.55,-0.54,-0.5,0.86
1900-01-01 19:54:22.457,20.76,13.78,-11.35,0.24,0.36,0.91,-0.83,-2.21,-0.46,30.79,40.21,-21.35,0.64,0.51,0.56,-0.85,-1.46,0.14
1900-01-01 19:54:22.550,19.74,15.15,-11.26,0.26,0.34,0.9,-0.33,-2.69,-1.19,31.0,40.46,-21.34,0.63,0.5,0.54,0.16,-0.79,-1.02
1900-01-01 19:54:22.641,19.98,15.46,-11.29,0.27,0.34,0.91,-1.46,-1.92,-1.34,31.54,41.08,-21.5,0.64,0.51,0.53,-1.21,0.98,-0.9
1900-01-01 19:54:22.738,20.54,15.66,-11.34,0.27,0.35,0.9,-0.59,-1.12,-1.18,31.77,40.95,-21.65,0.64,0.51,0.53,-0.82,0.63,-0.47
1900-01-01 19:54:22.778,19.83,15.61,-11.36,0.27,0.34,0.91,-0.19,-0.47,-0.82,31.84,40.87,-21.73,0.65,0.52,0.53,-0.93,0.88,0.15
1900-01-01 19:54:22.842,20.31,15.71,-11.33,0.28,0.36,0.92,-0.95,-0.6,-0.62,31.61,41.12,-21.72,0.66,0.53,0.54,-2.08,0.5,0.79
1900-01-01 19:54:22.971,20.24,15.76,-11.26,0.28,0.35,0.92,-0.58,-1.34,0.08,30.86,41.49,-21.6,0.66,0.51,0.54,-1.01,0.55,0.19
1900-01-01 19:54:23.058,19.95,14.65,-11.09,0.25,0.34,0.91,-0.6,-0.54,-0.29,31.59,40.49,-21.58,0.64,0.52,0.54,-0.55,0.63,0.52
1900-01-01 19:54:23.058,19.66,15.17,-10.98,0.26,0.34,0.91,-1.23,-0.74,-0.34,30.77,41.43,-21.51,0.65,0.5,0.54,-1.56,0.29,0.62
1900-01-01 19:54:23.155,20.27,15.47,-10.87,0.27,0.35,0.92,-1.41,-1.08,-0.67,30.91,41.5,-21.43,0.66,0.51,0.54,-2.41,-0.04,0.34
1900-01-01 19:54:23.328,19.59,16.46,-10.82,0.29,0.34,0.91,-1.76,-1.11,-0.79,31.05,41.72,-21.38,0.65,0.51,0.53,-2.09,0.02,0.38
1900-01-01 19:54:23.328,19.6,16.33,-10.78,0.28,0.34,0.91,-0.79,-0.73,-1.16,31.11,41.86,-21.33,0.65,0.51,0.53,-1.71,1.18,-0.17
1900-01-01 19:54:23.372,19.46,15.96,-10.8,0.28,0.34,0.91,-1.31,-0.69,-1.33,30.62,42.42,-21.37,0.67,0.5,0.53,-1.3,1.21,0.22
1900-01-01 19:54:23.471,19.97,16.44,-10.85,0.29,0.35,0.92,-1.36,-0.82,-1.11,31.57,42.26,-21.34,0.67,0.52,0.52,-1.4,0.88,0.5
1900-01-01 19:54:23.534,19.52,16.44,-10.86,0.29,0.34,0.92,-0.61,-1.23,-0.56,31.08,42.61,-21.27,0.68,0.52,0.52,-0.83,0.87,0.15
1900-01-01 19:54:23.655,20.49,15.19,-10.79,0.26,0.35,0.9,-0.82,-0.39,0.33,31.59,41.03,-21.26,0.64,0.51,0.53,-1.66,-0.03,1.69
1900-01-01 19:54:23.709,19.21,16.53,-10.58,0.28,0.33,0.9,-0.66,-0.21,-0.49,30.19,42.56,-21.01,0.66,0.49,0.53,-0.4,0.58,0.43
1900-01-01 19:54:23.758,20.09,17.42,-10.49,0.3,0.34,0.88,-0.13,-2.47,-1.34,31.32,41.89,-20.95,0.64,0.5,0.51,-0.04,-2.82,-3.6
1900-01-01 19:54:23.843,20.71,16.62,-10.54,0.29,0.35,0.89,-0.98,-0.79,-2.56,32.24,41.9,-21.51,0.67,0.53,0.52,-4.28,-0.69,-3.69
1900-01-01 19:54:23.925,18.7,16.06,-10.78,0.28,0.32,0.9,6.27,0.06,-2.54,32.07,41.67,-22.09,0.65,0.52,0.52,8.24,-1.37,-8.57
1900-01-01 19:54:23.984,20.6,17.22,-11.01,0.3,0.36,0.9,1.49,0.53,-2.09,35.34,40.56,-23.41,0.63,0.56,0.48,1.38,6.01,-1.82
1900-01-01 19:54:24.147,21.28,16.15,-11.17,0.29,0.38,0.93,-1.21,0.62,-1.19,33.84,41.24,-23.7,0.68,0.57,0.52,-1.72,2.01,-1.08
1900-01-01 19:54:24.147,20.55,17.13,-11.19,0.3,0.36,0.9,-0.89,-0.14,0.15,34.93,40.98,-23.87,0.65,0.56,0.49,-2.96,4.26,-3.29
1900-01-01 19:54:24.227,19.25,16.68,-11.01,0.29,0.33,0.89,0.46,0.99,-0.32,34.65,39.37,-24.39,0.62,0.56,0.51,-2.48,7.11,-4.73
1900-01-01 19:54:24.397,21.76,15.94,-10.9,0.28,0.38,0.9,-1.94,0.19,-0.38,35.48,37.87,-25.12,0.6,0.57,0.53,-2.51,-3.0,-1.89
1900-01-01 19:54:24.397,20.56,16.9,-10.8,0.29,0.36,0.9,2.64,1.21,-0.66,36.54,38.45,-25.42,0.62,0.59,0.51,0.73,-0.4,-1.65
1900-01-01 19:54:24.440,20.28,15.64,-10.75,0.28,0.36,0.93,-1.13,-0.21,0.37,34.3,40.11,-25.68,0.65,0.57,0.52,-2.04,-1.15,3.67
1900-01-01 19:54:24.515,21.01,16.14,-10.53,0.28,0.36,0.91,0.39,-1.08,-0.2,33.98,40.13,-25.13,0.63,0.55,0.51,-2.33,0.91,1.59
1900-01-01 19:54:24.614,20.94,16.73,-10.4,0.29,0.36,0.89,-0.51,-0.47,-1.55,34.59,40.55,-24.89,0.63,0.55,0.49,-1.08,0.4,-2.37
1900-01-01 19:54:24.665,21.53,16.58,-10.48,0.28,0.37,0.88,1.09,0.97,-0.95,37.25,38.59,-25.26,0.62,0.6,0.49,0.25,4.85,2.44
1900-01-01 19:54:24.786,19.79,15.36,-10.47,0.27,0.35,0.93,-2.54,-0.66,-1.38,30.44,41.16,-24.9,0.66,0.51,0.56,-2.47,-7.37,1.4
1900-01-01 19:54:24.859,22.49,17.14,-10.52,0.3,0.38,0.88,0.3,-2.85,-1.37,36.41,40.2,-24.7,0.61,0.56,0.46,1.04,0.02,-0.11
1900-01-01 19:54:24.914,21.54,16.52,-10.57,0.29,0.37,0.89,-0.61,0.16,-1.05,34.44,40.85,-24.72,0.64,0.55,0.49,0.28,0.11,-0.78
1900-01-01 19:54:25.001,20.73,15.53,-10.57,0.27,0.36,0.91,1.77,0.13,-1.36,34.51,41.49,-24.85,0.66,0.56,0.49,1.4,2.6,-0.76
1900-01-01 19:54:25.072,21.45,15.82,-10.62,0.28,0.37,0.9,-0.84,-0.15,-1.17,34.53,40.49,-24.97,0.64,0.56,0.5,-1.61,3.73,1.0
1900-01-01 19:54:25.194,21.76,16.22,-10.65,0.28,0.38,0.9,-0.4,1.07,-1.62,35.49,40.1,-24.83,0.63,0.57,0.49,-1.97,3.34,0.14
1900-01-01 19:54:25.243,21.02,15.73,-10.73,0.27,0.36,0.9,-0.89,2.2,-1.18,34.22,40.39,-24.82,0.64,0.55,0.51,-2.57,3.5,1.21
1900-01-01 19:54:25.282,20.16,15.28,-10.76,0.27,0.35,0.91,-1.42,1.19,-1.85,33.39,40.95,-24.64,0.66,0.55,0.52,-1.89,3.76,1.17
1900-01-01 19:54:25.393,20.86,16.62,-10.88,0.29,0.36,0.9,-1.07,-1.01,-2.51,34.47,40.4,-24.47,0.65,0.57,0.51,-1.77,2.5,-0.69
1900-01-01 19:54:25.456,21.85,16.52,-11.11,0.29,0.37,0.89,-1.12,-0.92,-2.33,35.04,40.07,-24.59,0.63,0.56,0.49,-2.07,1.92,-1.5
1900-01-01 19:54:25.522,21.21,14.95,-11.31,0.26,0.37,0.91,-1.05,-0.33,-1.83,33.65,39.97,-24.83,0.63,0.55,0.52,-1.57,0.11,-0.25
1900-01-01 19:54:25.665,21.47,15.73,-11.43,0.27,0.37,0.9,0.13,-0.63,-1.95,35.3,39.79,-24.87,0.63,0.57,0.5,-1.53,2.56,-1.05
1900-01-01 19:54:25.665,22.02,15.43,-11.58,0.27,0.39,0.91,-1.21,-0.41,-0.65,34.69,39.42,-25.04,0.64,0.57,0.52,-2.63,1.71,0.05
1900-01-01 19:54:25.763,21.26,15.66,-11.52,0.27,0.36,0.89,-0.39,-0.97,-1.13,34.61,39.66,-25.04,0.62,0.55,0.51,-1.99,2.87,-2.0
1900-01-01 19:54:25.819,21.13,15.81,-11.53,0.27,0.36,0.89,-1.63,-0.51,-1.55,34.75,38.65,-25.36,0.61,0.55,0.52,-1.92,3.88,-2.24
1900-01-01 19:54:25.930,22.59,15.78,-11.61,0.27,0.38,0.87,-1.24,-0.05,-1.62,35.99,36.91,-25.71,0.58,0.57,0.52,-1.97,1.6,-1.63
1900-01-01 19:54:25.988,20.57,15.33,-11.7,0.27,0.35,0.9,0.56,0.09,-1.6,33.64,39.21,-25.97,0.62,0.54,0.53,-0.34,-3.08,-0.73
1900-01-01 19:54:26.089,21.63,15.49,-11.79,0.27,0.37,0.9,1.6,1.2,-1.79,35.25,38.65,-26.09,0.62,0.57,0.52,-0.82,-1.18,0.49
1900-01-01 19:54:26.137,21.27,15.37,-11.91,0.27,0.37,0.92,-0.56,0.88,-1.51,34.41,40.18,-26.02,0.65,0.57,0.52,-0.87,1.33,0.45
1900-01-01 19:54:26.228,22.38,15.59,-11.98,0.27,0.39,0.9,-0.06,0.64,-0.91,35.35,39.07,-25.96,0.63,0.58,0.52,-0.44,1.97,0.71
1900-01-01 19:54:26.288,22.1,15.26,-11.96,0.27,0.38,0.9,-0.45,0.16,-0.58,35.25,38.89,-25.86,0.62,0.57,0.52,-0.92,2.27,-0.07
1900-01-01 19:54:26.408,22.64,15.51,-11.89,0.27,0.39,0.89,1.05,-0.06,0.05,36.17,38.87,-25.88,0.62,0.58,0.5,0.21,2.89,0.99
1900-01-01 19:54:26.457,21.92,14.85,-11.72,0.26,0.38,0.9,1.44,-1.48,-0.01,33.47,39.42,-25.74,0.63,0.55,0.54,1.81,1.83,1.13
1900-01-01 19:54:26.519,22.81,15.53,-11.57,0.27,0.39,0.88,2.66,-3.75,-1.05,36.41,38.71,-25.58,0.61,0.58,0.49,2.93,0.95,1.21
1900-01-01 19:54:26.658,22.54,16.65,-11.57,0.29,0.39,0.9,-0.31,-0.16,-0.73,35.81,39.78,-25.4,0.64,0.58,0.49,-0.07,1.56,0.98
1900-01-01 19:54:26.716,23.12,16.1,-11.52,0.28,0.4,0.9,0.31,-0.76,-0.05,35.88,39.31,-25.26,0.63,0.58,0.5,0.77,1.05,0.82
1900-01-01 19:54:26.760,23.27,16.1,-11.37,0.28,0.4,0.88,-0.51,0.12,0.55,36.16,39.27,-25.14,0.62,0.57,0.49,-0.37,0.76,1.08
1900-01-01 19:54:26.907,22.87,15.32,-11.13,0.26,0.39,0.88,-1.5,0.98,0.25,34.63,40.02,-24.98,0.63,0.56,0.5,-1.4,0.31,1.6
1900-01-01 19:54:26.907,23.36,15.91,-10.93,0.28,0.4,0.88,-0.3,0.05,-0.6,35.26,40.23,-24.75,0.64,0.57,0.49,-1.69,0.01,0.54
1900-01-01 19:54:26.963,23.06,15.87,-10.87,0.28,0.4,0.89,-0.11,0.24,-0.31,35.37,39.95,-24.67,0.63,0.57,0.5,-0.76,0.79,0.89
1900-01-01 19:54:27.076,22.74,16.2,-10.75,0.28,0.39,0.89,-0.62,0.87,-0.15,35.59,40.35,-24.55,0.64,0.58,0.49,-1.76,1.57,1.23
1900-01-01 19:54:27.137,22.96,15.85,-10.62,0.28,0.4,0.91,-4.73,-0.1,1.39,32.83,40.73,-24.37,0.65,0.54,0.52,-8.15,4.84,2.78
1900-01-01 19:54:27.222,22.29,15.7,-10.25,0.27,0.38,0.89,-1.22,-1.06,-1.03,33.03,40.41,-23.95,0.63,0.53,0.51,-1.93,-1.61,-2.09
1900-01-01 19:54:27.347,22.7,16.46,-10.25,0.28,0.38,0.87,1.07,0.69,-1.15,35.65,39.26,-24.28,0.62,0.57,0.5,1.08,1.16,-5.04
1900-01-01 19:54:27.393,21.6,15.43,-10.27,0.27,0.38,0.92,-2.28,0.51,0.44,33.63,40.66,-25.06,0.67,0.57,0.53,0.51,2.1,1.8
1900-01-01 19:54:27.428,21.94,16.44,-10.04,0.29,0.38,0.91,2.01,-1.27,-0.57,35.7,40.14,-24.79,0.65,0.59,0.5,2.61,0.71,0.1
1900-01-01 19:54:27.545,22.24,16.02,-9.97,0.28,0.38,0.89,-0.94,-0.79,0.05,35.53,40.78,-24.79,0.64,0.57,0.48,-0.2,0.21,0.18
1900-01-01 19:54:27.595,22.49,15.94,-9.8,0.28,0.39,0.9,-1.63,-0.82,1.47,34.65,40.47,-24.77,0.65,0.57,0.51,-0.07,1.26,3.96
1900-01-01 19:54:27.658,22.7,15.83,-9.42,0.27,0.39,0.88,-0.33,-1.67,0.38,35.41,40.3,-24.17,0.63,0.56,0.48,2.24,0.63,5.18
1900-01-01 19:54:27.771,22.76,17.11,-9.2,0.3,0.39,0.88,-0.13,0.22,1.17,35.7,40.94,-23.39,0.65,0.58,0.48,0.98,1.97,5.66
1900-01-01 19:54:27.811,21.72,16.41,-8.87,0.28,0.37,0.88,-0.66,-0.04,1.27,33.74,41.82,-22.54,0.66,0.55,0.49,1.86,0.74,3.03
1900-01-01 19:54:27.902,21.26,17.14,-8.52,0.29,0.36,0.88,-0.15,0.11,1.0,34.43,42.47,-22.08,0.66,0.55,0.46,1.24,1.11,3.73
1900-01-01 19:54:28.021,21.88,16.79,-8.21,0.3,0.39,0.91,-2.11,0.05,1.25,32.63,43.51,-21.52,0.69,0.54,0.49,-0.56,0.74,2.63
1900-01-01 19:54:28.074,21.21,16.37,-7.86,0.28,0.36,0.9,-1.34,-1.18,0.73,33.63,42.87,-21.13,0.67,0.55,0.47,-1.52,1.69,2.02
1900-01-01 19:54:28.129,21.11,16.36,-7.59,0.29,0.37,0.91,-4.82,-1.18,0.92,31.22,43.85,-20.83,0.69,0.51,0.5,-6.96,5.5,2.25
1900-01-01 19:54:28.216,20.49,17.76,-7.29,0.31,0.35,0.89,-1.64,-1.04,-1.34,31.3,43.38,-20.5,0.67,0.5,0.49,-2.29,0.54,-1.5
1900-01-01 19:54:28.272,21.89,17.36,-7.33,0.3,0.37,0.88,-1.04,0.53,-2.47,34.32,42.56,-20.73,0.65,0.54,0.46,-1.47,3.68,-6.53
1900-01-01 19:54:28.361,20.53,16.84,-7.55,0.29,0.35,0.9,-3.17,1.1,-2.02,32.12,42.61,-21.74,0.67,0.53,0.5,-1.88,3.45,-0.09
1900-01-01 19:54:28.500,19.08,16.6,-7.7,0.29,0.33,0.91,-1.65,0.1,-3.87,30.82,43.48,-21.77,0.68,0.51,0.51,-0.5,1.08,-2.54
1900-01-01 19:54:28.500,21.26,15.9,-8.14,0.28,0.37,0.91,1.03,-0.79,-4.79,32.1,42.13,-22.16,0.66,0.52,0.51,-2.83,0.71,-3.8
1900-01-01 19:54:28.607,21.57,16.33,-8.71,0.28,0.37,0.89,-1.79,0.08,-3.81,34.57,40.89,-22.76,0.64,0.55,0.49,-2.72,1.63,-1.57
1900-01-01 19:54:28.644,21.57,15.8,-9.14,0.27,0.37,0.89,-1.0,0.5,-3.29,33.83,40.42,-23.0,0.64,0.55,0.51,-3.27,1.56,-2.02
1900-01-01 19:54:28.739,20.22,16.47,-9.48,0.29,0.35,0.9,-0.67,-0.77,-3.5,33.46,41.8,-23.32,0.65,0.54,0.49,-2.82,1.46,-3.01
1900-01-01 19:54:28.847,21.3,16.46,-9.86,0.29,0.37,0.91,-0.66,-0.97,-3.7,34.27,40.49,-23.79,0.65,0.57,0.51,-2.09,1.32,-3.95
1900-01-01 19:54:28.891,22.12,16.58,-10.27,0.29,0.38,0.89,0.8,-2.09,-2.59,35.43,40.36,-24.41,0.63,0.56,0.48,-2.06,1.2,-2.61
1900-01-01 19:54:28.962,22.05,15.71,-10.51,0.27,0.38,0.89,1.18,0.22,-1.54,35.88,38.51,-24.82,0.62,0.58,0.51,0.4,6.31,-1.21
1900-01-01 19:54:29.094,21.97,15.07,-10.59,0.27,0.38,0.91,0.1,-0.33,0.34,35.2,38.89,-25.01,0.63,0.58,0.52,-2.71,2.37,1.44
1900-01-01 19:54:29.128,20.2,16.61,-10.38,0.29,0.35,0.9,-0.72,-1.39,-0.68,33.13,41.16,-24.8,0.65,0.54,0.51,-2.4,-1.03,0.08
1900-01-01 19:54:29.194,21.66,16.58,-10.33,0.29,0.37,0.9,-1.57,-0.55,-0.48,34.57,39.73,-24.79,0.63,0.56,0.51,-2.93,-0.7,1.45
1900-01-01 19:54:29.323,21.19,15.43,-10.24,0.27,0.37,0.91,-1.05,-0.07,-1.34,32.61,40.51,-24.58,0.65,0.54,0.53,-0.05,1.5,0.16
1900-01-01 19:54:29.376,22.02,15.75,-10.29,0.27,0.38,0.89,-0.6,-0.73,-2.0,33.97,40.34,-24.56,0.63,0.55,0.51,-1.92,0.28,-0.95
1900-01-01 19:54:29.414,21.03,15.71,-10.44,0.27,0.36,0.89,-1.9,0.49,-2.47,33.68,40.21,-24.72,0.63,0.54,0.51,-2.43,1.08,0.1
1900-01-01 19:54:29.517,22.09,15.77,-10.66,0.28,0.38,0.9,-0.2,-0.14,-3.18,35.98,38.54,-24.71,0.62,0.58,0.51,-0.89,1.45,-1.31
1900-01-01 19:54:29.590,21.81,16.04,-10.99,0.28,0.38,0.9,-0.89,0.28,-1.34,34.28,40.2,-24.92,0.63,0.55,0.51,-2.27,2.93,-0.05
1900-01-01 19:54:29.642,21.61,15.12,-11.04,0.27,0.38,0.91,-0.61,0.9,-1.61,33.73,39.81,-24.94,0.64,0.56,0.53,-2.25,2.32,-0.09
1900-01-01 19:54:29.729,21.68,16.36,-11.12,0.29,0.38,0.91,-1.08,-0.37,-1.55,34.3,40.03,-24.96,0.65,0.57,0.52,-2.16,1.31,-0.02
1900-01-01 19:54:29.923,21.46,16.37,-11.2,0.29,0.37,0.9,-0.12,-1.34,-1.09,33.62,39.97,-24.97,0.64,0.55,0.52,-1.37,1.55,-2.34
1900-01-01 19:54:29.923,21.28,15.74,-11.21,0.27,0.36,0.89,-0.25,-1.37,-1.95,33.22,39.82,-25.34,0.62,0.53,0.52,0.19,-4.21,-5.38
1900-01-01 19:54:29.978,21.82,15.45,-11.36,0.27,0.38,0.9,4.0,-1.19,-2.56,34.86,39.04,-26.18,0.63,0.57,0.52,3.26,-5.47,-3.78
1900-01-01 19:54:30.051,22.36,16.03,-11.59,0.28,0.39,0.9,-0.52,-1.24,-0.81,36.41,39.9,-26.77,0.63,0.59,0.48,-0.44,-2.96,2.47
1900-01-01 19:54:30.103,22.74,15.96,-11.56,0.28,0.4,0.9,-1.19,-0.74,-0.02,35.02,40.96,-26.39,0.65,0.57,0.49,-1.53,0.18,0.89
1900-01-01 19:54:30.227,22.93,16.34,-11.4,0.29,0.4,0.89,-1.02,-0.73,0.51,35.97,40.46,-26.27,0.64,0.58,0.48,-1.46,0.15,1.79
1900-01-01 19:54:30.288,22.22,15.65,-11.16,0.27,0.38,0.89,-0.58,-1.13,0.05,34.47,41.22,-26.0,0.65,0.56,0.49,-2.1,1.07,-0.24
1900-01-01 19:54:30.343,22.52,16.34,-11.0,0.28,0.39,0.89,-0.76,-1.74,0.37,34.77,40.69,-26.05,0.65,0.57,0.5,-2.96,2.54,-0.02
1900-01-01 19:54:30.479,21.93,16.8,-10.78,0.29,0.37,0.88,0.63,-0.7,-0.42,34.42,41.15,-26.06,0.64,0.55,0.48,-1.02,0.97,-0.76
1900-01-01 19:54:30.537,22.55,16.79,-10.69,0.29,0.39,0.89,-2.18,0.15,-0.99,35.13,41.0,-26.18,0.65,0.57,0.49,-2.28,0.53,1.47
1900-01-01 19:54:30.582,22.25,15.74,-10.68,0.28,0.4,0.92,0.19,-2.48,-0.21,34.41,39.94,-25.96,0.65,0.57,0.52,-3.5,4.6,-0.79
1900-01-01 19:54:30.662,22.33,17.7,-10.56,0.3,0.37,0.85,3.73,0.18,-1.18,35.62,40.23,-26.09,0.61,0.55,0.47,3.11,-1.66,-2.78
1900-01-01 19:54:30.787,24.43,16.76,-10.58,0.28,0.41,0.85,-0.65,2.08,0.55,37.85,38.17,-26.53,0.59,0.59,0.47,3.63,5.32,1.21
1900-01-01 19:54:30.835,24.56,16.08,-10.34,0.28,0.42,0.88,-3.78,2.24,2.56,38.23,39.21,-26.35,0.63,0.62,0.47,-0.63,15.87,8.62
1900-01-01 19:54:30.889,19.15,16.85,-9.79,0.3,0.34,0.92,-0.78,2.05,1.33,30.15,43.02,-25.04,0.69,0.51,0.54,0.94,4.52,2.47
1900-01-01 19:54:30.982,23.48,18.39,-9.43,0.31,0.4,0.85,5.21,3.39,0.35,38.11,38.61,-24.67,0.61,0.6,0.47,4.03,3.53,1.51
1900-01-01 19:54:31.038,22.55,16.03,-9.21,0.28,0.39,0.9,0.45,4.55,2.15,33.51,41.27,-24.45,0.65,0.55,0.5,0.16,5.44,2.47
1900-01-01 19:54:31.132,23.51,14.63,-8.73,0.26,0.41,0.9,0.92,2.47,1.66,34.66,39.58,-24.08,0.64,0.57,0.52,0.48,1.55,1.53
1900-01-01 19:54:31.174,23.49,15.22,-8.32,0.27,0.4,0.89,0.58,1.75,1.65,35.86,38.61,-23.86,0.62,0.58,0.51,-0.43,3.24,1.86
1900-01-01 19:54:31.266,23.13,13.94,-7.91,0.25,0.41,0.92,-1.2,1.5,1.17,32.8,40.46,-23.59,0.65,0.54,0.54,-1.42,1.4,1.91
1900-01-01 19:54:31.396,22.6,14.72,-7.57,0.26,0.39,0.89,-1.08,-0.56,-0.32,34.76,39.95,-23.3,0.63,0.56,0.5,-0.44,0.5,0.41
1900-01-01 19:54:31.442,23.08,14.6,-7.46,0.25,0.39,0.89,-1.4,0.21,-0.37,33.96,40.15,-23.25,0.63,0.55,0.51,-1.17,1.32,-0.02
1900-01-01 19:54:31.514,22.9,15.01,-7.36,0.26,0.39,0.89,-0.44,-0.2,-0.65,34.89,40.03,-23.26,0.64,0.57,0.5,-0.4,1.31,0.24
1900-01-01 19:54:31.575,22.98,15.47,-7.3,0.27,0.4,0.9,-0.85,0.6,-0.35,34.69,40.12,-23.23,0.65,0.57,0.51,-1.65,0.76,1.08
1900-01-01 19:54:31.637,23.07,14.73,-7.2,0.26,0.39,0.89,-0.85,-0.23,-0.97,34.66,40.17,-23.07,0.63,0.56,0.5,-1.82,0.67,-0.11
1900-01-01 19:54:31.747,23.27,14.94,-7.19,0.26,0.4,0.89,-1.6,0.24,-1.03,34.43,40.5,-23.1,0.64,0.56,0.5,-2.21,0.98,0.4
1900-01-01 19:54:31.785,23.14,14.56,-7.19,0.25,0.4,0.9,-0.4,-0.31,-1.03,35.01,39.73,-23.04,0.64,0.57,0.51,-2.28,1.24,0.11
1900-01-01 19:54:31.891,22.36,15.05,-7.19,0.26,0.38,0.89,-0.66,0.02,-1.15,34.33,40.04,-23.04,0.63,0.55,0.51,-3.05,2.43,-0.27
1900-01-01 19:54:31.979,22.24,13.88,-7.2,0.24,0.38,0.9,-1.89,-0.67,-1.66,31.92,41.51,-23.08,0.64,0.51,0.51,-3.29,0.7,-2.37
1900-01-01 19:54:32.096,23.14,14.66,-7.3,0.25,0.39,0.87,-0.58,0.79,-3.03,35.54,38.15,-23.46,0.61,0.57,0.52,-1.04,2.11,-2.39
1900-01-01 19:54:32.096,21.06,15.18,-7.61,0.27,0.37,0.92,-4.98,0.64,-2.37,31.38,41.53,-23.83,0.67,0.52,0.54,-4.73,0.4,-0.28
1900-01-01 19:54:32.193,21.22,13.92,-7.81,0.24,0.37,0.92,-0.2,-2.61,-5.2,33.23,40.4,-23.88,0.65,0.55,0.53,-1.44,-4.52,-5.91
1900-01-01 19:54:32.252,23.57,14.72,-8.45,0.26,0.4,0.89,1.73,-3.63,-4.6,38.72,37.41,-24.8,0.6,0.62,0.49,-1.93,-0.39,-3.14
1900-01-01 19:54:32.358,24.06,15.03,-9.0,0.26,0.41,0.87,-2.9,-0.72,-2.18,38.47,37.68,-25.29,0.59,0.6,0.47,-6.68,1.31,5.64
1900-01-01 19:54:32.418,21.46,14.1,-9.18,0.25,0.38,0.94,-5.02,1.31,-0.32,30.1,42.59,-24.44,0.69,0.51,0.55,-5.17,5.94,5.11
1900-01-01 19:54:32.483,23.26,15.07,-9.07,0.26,0.4,0.89,0.13,-0.97,-0.53,34.63,39.8,-23.66,0.61,0.54,0.49,-0.27,2.94,-0.96
1900-01-01 19:54:32.611,22.73,14.61,-8.99,0.25,0.38,0.87,-1.46,2.86,-0.75,34.16,39.07,-23.82,0.6,0.53,0.51,-3.54,3.51,1.85
1900-01-01 19:54:32.655,21.82,13.53,-8.95,0.23,0.37,0.9,-1.11,2.89,-1.63,31.92,40.56,-23.54,0.65,0.52,0.54,-2.42,1.73,-0.02
1900-01-01 19:54:32.773,21.94,14.63,-9.04,0.27,0.4,0.95,0.77,-0.62,-0.37,33.8,40.11,-23.55,0.68,0.59,0.55,-0.4,1.02,0.4
1900-01-01 19:54:32.884,22.24,14.77,-8.93,0.26,0.39,0.92,0.93,-2.34,0.94,33.91,39.59,-23.5,0.65,0.57,0.54,1.24,1.56,0.67
1900-01-01 19:54:32.884,21.95,15.29,-8.63,0.27,0.38,0.91,-2.31,-2.48,1.72,32.8,40.78,-23.41,0.65,0.54,0.53,-0.32,-0.89,4.11
1900-01-01 19:54:32.947,21.87,14.68,-8.21,0.25,0.37,0.89,-2.34,-4.01,1.77,32.57,40.28,-22.79,0.64,0.53,0.53,0.56,-0.74,1.37
1900-01-01 19:54:33.059,22.27,14.56,-7.78,0.25,0.38,0.88,-0.71,-4.05,1.63,34.17,39.86,-22.59,0.61,0.54,0.5,1.79,0.09,1.18
1900-01-01 19:54:33.100,21.41,15.82,-7.38,0.28,0.37,0.91,-2.79,-3.12,2.43,32.48,41.66,-22.41,0.66,0.53,0.51,0.34,1.43,3.52
1900-01-01 19:54:33.185,22.18,17.17,-6.85,0.3,0.38,0.89,-2.0,-1.85,3.01,33.2,41.56,-21.89,0.66,0.54,0.51,-0.88,0.37,4.8
1900-01-01 19:54:33.268,21.8,16.83,-6.23,0.29,0.37,0.89,-1.79,-0.41,3.85,31.99,42.46,-21.16,0.66,0.52,0.5,-0.43,0.98,4.64
1900-01-01 19:54:33.321,20.44,16.96,-5.48,0.29,0.35,0.9,-1.85,0.25,3.59,31.62,43.02,-20.46,0.68,0.52,0.51,-0.32,1.55,5.09
1900-01-01 19:54:33.423,19.07,18.35,-4.77,0.32,0.33,0.91,-1.3,-0.61,2.2,29.67,44.63,-19.69,0.7,0.49,0.51,0.63,0.88,2.07
1900-01-01 19:54:33.520,20.54,17.19,-4.28,0.3,0.35,0.89,-1.83,-1.18,2.18,33.8,42.02,-19.38,0.67,0.55,0.49,-0.09,0.52,4.25
1900-01-01 19:54:33.568,18.78,17.91,-3.79,0.31,0.32,0.89,-2.82,0.52,2.3,29.89,44.66,-18.74,0.68,0.48,0.49,-0.53,2.15,4.24
1900-01-01 19:54:33.646,18.04,17.79,-3.28,0.31,0.31,0.91,-2.49,0.15,1.71,28.43,45.24,-18.11,0.71,0.47,0.52,-1.32,1.47,3.05
1900-01-01 19:54:33.740,19.4,17.47,-2.86,0.3,0.33,0.9,-0.12,-0.53,1.28,31.77,43.5,-17.65,0.67,0.52,0.49,0.63,0.87,1.94
1900-01-01 19:54:33.914,18.01,17.91,-2.51,0.31,0.31,0.91,-0.21,1.74,1.94,29.36,45.32,-17.36,0.71,0.49,0.5,-0.27,3.01,3.15
1900-01-01 19:54:33.914,17.29,16.86,-2.05,0.29,0.3,0.92,-0.08,0.43,0.69,27.09,46.01,-16.89,0.71,0.45,0.52,0.04,1.5,0.15
1900-01-01 19:54:33.960,18.84,18.01,-1.79,0.31,0.33,0.91,-0.61,-0.17,0.08,29.65,45.17,-16.88,0.71,0.5,0.5,-0.44,1.74,1.13
1900-01-01 19:54:34.035,19.31,18.28,-1.62,0.32,0.34,0.91,0.6,-0.64,-0.06,30.43,44.81,-16.71,0.7,0.5,0.49,0.05,1.53,-0.05
1900-01-01 19:54:34.078,17.83,16.84,-1.47,0.29,0.31,0.91,-1.22,0.2,-0.01,27.9,45.74,-16.73,0.71,0.46,0.51,-0.63,1.09,0.31
1900-01-01 19:54:34.185,18.77,17.52,-1.31,0.3,0.32,0.9,0.0,0.1,-1.24,29.37,44.96,-16.69,0.69,0.48,0.5,-1.92,1.31,0.46
1900-01-01 19:54:34.274,18.98,17.58,-1.34,0.31,0.33,0.92,-1.32,0.9,-1.49,29.85,44.92,-16.63,0.71,0.5,0.51,-1.91,2.47,1.2
1900-01-01 19:54:34.311,18.57,18.38,-1.41,0.32,0.32,0.9,-1.07,0.45,-1.11,29.74,44.99,-16.45,0.7,0.49,0.5,-1.53,1.9,0.51
1900-01-01 19:54:34.407,18.39,17.95,-1.42,0.31,0.32,0.91,-0.96,0.29,-0.95,29.19,45.31,-16.38,0.71,0.48,0.5,-1.11,2.01,0.19
1900-01-01 19:54:34.458,18.56,17.7,-1.41,0.31,0.32,0.91,-1.47,1.06,-0.92,29.15,45.13,-16.36,0.7,0.48,0.51,-1.09,1.31,0.4
1900-01-01 19:54:34.580,18.3,17.32,-1.39,0.3,0.32,0.91,-0.79,-0.01,-1.15,29.48,45.13,-16.31,0.7,0.49,0.5,-1.24,1.21,-0.18
1900-01-01 19:54:34.635,17.79,17.44,-1.41,0.3,0.31,0.91,-0.82,-0.46,-1.11,28.36,45.7,-16.35,0.71,0.47,0.51,-1.22,0.6,-0.46
1900-01-01 19:54:34.721,18.77,16.75,-1.42,0.29,0.33,0.91,-1.1,-0.53,-0.78,29.08,45.02,-16.43,0.7,0.48,0.51,-1.47,0.33,0.07
1900-01-01 19:54:34.917,18.48,17.47,-1.38,0.3,0.32,0.91,-0.47,-1.01,-1.25,29.71,45.4,-16.43,0.7,0.49,0.49,-1.11,0.87,-0.01
1900-01-01 19:54:34.917,18.04,17.78,-1.42,0.31,0.31,0.91,-1.05,-0.33,-1.06,28.98,45.36,-16.43,0.71,0.48,0.51,-1.14,1.05,-0.08
1900-01-01 19:54:34.950,17.96,17.75,-1.42,0.31,0.31,0.91,-0.67,-0.57,-1.02,29.15,45.84,-16.46,0.71,0.48,0.49,-1.34,1.15,-0.24
1900-01-01 19:54:35.031,17.87,17.6,-1.42,0.31,0.31,0.92,-0.98,-0.31,-0.66,28.68,46.13,-16.5,0.72,0.48,0.5,-1.4,1.24,0.34
1900-01-01 19:54:35.074,18.09,18.03,-1.36,0.31,0.31,0.91,-0.75,-0.14,-0.56,29.32,45.55,-16.46,0.7,0.48,0.49,-1.49,1.27,0.33
1900-01-01 19:54:35.167,18.06,17.07,-1.29,0.3,0.32,0.92,-0.76,-0.31,-0.7,28.52,45.61,-16.42,0.71,0.48,0.51,-1.38,1.38,-0.02
1900-01-01 19:54:35.261,18.64,17.39,-1.24,0.3,0.32,0.9,-0.43,-0.29,-0.87,29.27,45.18,-16.43,0.7,0.48,0.5,-1.53,0.93,-0.02
1900-01-01 19:54:35.372,18.43,17.35,-1.21,0.3,0.32,0.91,-0.38,-0.21,-1.12,29.23,45.16,-16.44,0.7,0.48,0.5,-1.35,1.08,-0.24
1900-01-01 19:54:35.424,18.61,17.32,-1.23,0.3,0.32,0.9,-0.25,0.4,-1.16,29.75,45.03,-16.48,0.69,0.48,0.49,-1.94,1.13,-0.19
1900-01-01 19:54:35.461,18.21,16.67,-1.25,0.29,0.32,0.92,-1.1,1.25,-0.9,28.47,45.39,-16.52,0.71,0.48,0.51,-2.11,2.34,0.14
1900-01-01 19:54:35.559,18.29,17.19,-1.23,0.3,0.32,0.91,0.11,0.18,-1.5,29.61,45.17,-16.51,0.7,0.49,0.5,-1.18,1.85,-0.67
1900-01-01 19:54:35.605,18.03,17.84,-1.3,0.31,0.31,0.92,-1.05,1.27,-1.11,28.51,46.2,-16.62,0.72,0.48,0.5,-2.32,2.6,0.14
1900-01-01 19:54:35.759,18.33,17.06,-1.31,0.3,0.32,0.91,-0.55,0.31,-0.99,28.76,45.73,-16.61,0.7,0.47,0.49,-1.68,1.85,-0.56
1900-01-01 19:54:35.759,18.95,16.51,-1.3,0.28,0.33,0.9,-0.34,1.0,-1.23,29.68,44.83,-16.7,0.69,0.49,0.5,-1.97,2.51,-0.2
1900-01-01 19:54:35.955,18.24,15.89,-1.33,0.28,0.32,0.92,-0.03,0.53,-1.36,28.47,44.64,-16.74,0.7,0.47,0.52,-1.41,2.31,-0.32
1900-01-01 19:54:35.955,18.21,16.41,-1.38,0.28,0.32,0.91,-0.35,0.79,-2.15,28.49,45.36,-16.8,0.7,0.47,0.51,-2.15,2.78,-1.05
1900-01-01 19:54:35.998,18.42,15.89,-1.55,0.28,0.32,0.92,-0.02,1.03,-2.4,29.32,44.09,-16.97,0.7,0.49,0.53,-2.29,2.77,-0.63
1900-01-01 19:54:36.097,19.18,16.02,-1.76,0.28,0.33,0.91,0.07,0.82,-2.26,28.89,44.17,-17.07,0.68,0.47,0.52,-2.31,2.58,-1.15
1900-01-01 19:54:36.138,18.35,15.21,-1.95,0.27,0.32,0.93,-0.13,0.9,-2.51,28.44,44.19,-17.26,0.7,0.48,0.54,-2.13,2.37,-1.01
1900-01-01 19:54:36.223,19.01,15.36,-2.17,0.27,0.34,0.94,-0.38,0.55,-2.13,29.43,43.58,-17.42,0.7,0.5,0.54,-1.89,2.33,-0.67
1900-01-01 19:54:36.368,18.72,14.57,-2.34,0.25,0.33,0.92,-0.5,-0.29,-2.24,27.36,43.9,-17.53,0.68,0.45,0.54,-1.76,2.0,-1.7
1900-01-01 19:54:36.411,19.58,14.89,-2.53,0.26,0.34,0.92,-0.72,-1.03,-2.49,28.56,43.6,-17.8,0.68,0.47,0.54,-1.73,2.07,-1.35
1900-01-01 19:54:36.446,20.29,16.12,-2.75,0.28,0.35,0.9,0.05,-0.37,-3.18,30.83,43.54,-18.02,0.67,0.5,0.5,-3.52,3.66,-2.44
1900-01-01 19:54:36.541,18.55,13.63,-3.08,0.24,0.33,0.95,-1.21,-1.19,-2.51,24.32,43.82,-18.4,0.72,0.43,0.61,0.6,0.0,-4.42
1900-01-01 19:54:36.629,17.25,13.83,-3.31,0.24,0.3,0.92,2.55,-4.71,-5.95,29.4,43.09,-19.08,0.66,0.47,0.52,2.52,-0.66,-11.67
1900-01-01 19:54:36.697,21.29,15.35,-4.06,0.26,0.36,0.89,-0.11,-2.34,-5.58,34.91,40.17,-20.88,0.63,0.56,0.5,-3.27,0.96,-5.49
1900-01-01 19:54:36.754,20.85,16.03,-4.76,0.29,0.37,0.93,0.0,1.42,-4.22,35.21,38.95,-21.73,0.65,0.59,0.54,-0.59,6.11,-1.98
1900-01-01 19:54:36.832,20.71,15.58,-5.25,0.27,0.36,0.91,-3.11,-0.1,-3.5,33.64,39.18,-22.05,0.63,0.55,0.54,-3.6,2.59,2.25
1900-01-01 19:54:36.987,20.66,16.09,-5.62,0.27,0.34,0.87,-2.68,0.34,-3.67,33.61,39.5,-21.71,0.6,0.53,0.51,-6.09,1.21,1.2
1900-01-01 19:54:37.039,21.22,15.12,-6.03,0.26,0.36,0.9,-5.46,-1.08,-3.52,32.2,40.27,-21.53,0.64,0.52,0.54,-7.88,1.11,-0.24
1900-01-01 19:54:37.143,16.25,15.31,-6.41,0.27,0.28,0.94,1.4,-1.96,-3.68,29.39,39.64,-21.58,0.65,0.5,0.6,2.56,-1.57,-4.47
1900-01-01 19:54:37.143,19.51,14.27,-6.81,0.25,0.34,0.93,2.63,-2.34,-4.22,31.72,39.63,-22.27,0.63,0.52,0.56,2.4,-6.73,-3.08
1900-01-01 19:54:37.251,21.73,14.5,-7.3,0.25,0.38,0.91,3.98,-2.45,-4.38,34.24,39.61,-22.75,0.63,0.56,0.52,4.05,-6.56,-4.44
1900-01-01 19:54:37.301,21.31,15.7,-7.82,0.27,0.37,0.9,-0.14,-2.16,-3.53,33.57,41.1,-23.44,0.65,0.54,0.5,-2.1,-5.14,-3.59
1900-01-01 19:54:37.393,21.54,14.96,-8.2,0.26,0.37,0.91,3.53,-3.21,-3.69,36.89,39.79,-24.0,0.64,0.6,0.48,1.09,-0.57,-11.47
1900-01-01 19:54:37.460,22.43,15.96,-8.61,0.28,0.39,0.89,-0.26,-2.15,-2.03,36.66,40.0,-25.77,0.64,0.6,0.48,-3.35,-2.01,-3.66
1900-01-01 19:54:37.582,22.06,16.09,-8.76,0.28,0.38,0.89,0.34,-2.02,-2.29,38.16,38.15,-26.34,0.61,0.61,0.48,-1.61,0.62,-5.11
1900-01-01 19:54:37.626,21.89,15.81,-8.95,0.28,0.38,0.9,-1.66,-1.6,-1.63,37.1,39.26,-27.14,0.62,0.59,0.48,-0.18,2.31,-0.8
1900-01-01 19:54:37.673,21.38,15.99,-9.05,0.28,0.37,0.9,-1.46,-1.18,-1.88,36.75,38.93,-27.27,0.62,0.59,0.49,-3.89,-0.05,-0.79
1900-01-01 19:54:37.782,22.54,16.38,-9.18,0.28,0.38,0.88,-0.91,-1.95,-1.75,37.99,38.52,-27.4,0.61,0.6,0.47,-3.01,-1.43,-0.24
1900-01-01 19:54:37.979,22.52,16.71,-9.29,0.29,0.38,0.88,0.38,-0.37,-1.85,36.57,39.25,-27.44,0.62,0.58,0.48,-1.84,1.05,-0.53
1900-01-01 19:54:38.050,21.6,16.4,-9.41,0.28,0.37,0.89,1.08,-1.48,-2.29,36.27,39.7,-27.53,0.62,0.57,0.48,-0.69,-0.37,-0.7
1900-01-01 19:54:38.050,22.56,16.51,-9.6,0.29,0.39,0.88,-0.37,-0.2,-1.95,37.3,39.3,-27.65,0.62,0.6,0.47,-1.27,0.13,1.03
1900-01-01 19:54:38.094,22.31,16.44,-9.75,0.29,0.39,0.9,-0.37,-0.38,-1.72,37.32,39.24,-27.5,0.64,0.61,0.48,-1.72,0.48,-0.02
1900-01-01 19:54:38.169,22.86,16.39,-9.85,0.29,0.4,0.9,-1.2,-0.42,0.07,35.86,39.56,-27.51,0.63,0.58,0.49,-4.34,1.94,-0.63
1900-01-01 19:54:38.254,24.32,16.86,-9.68,0.29,0.42,0.88,1.95,-1.14,-0.5,37.12,38.6,-27.61,0.6,0.58,0.48,-2.2,-2.19,-4.8
1900-01-01 19:54:38.326,22.86,16.53,-9.6,0.28,0.39,0.87,1.91,1.19,0.39,37.99,38.47,-28.36,0.61,0.61,0.48,1.9,3.37,0.62
1900-01-01 19:54:38.371,24.24,16.75,-9.38,0.3,0.42,0.89,0.73,0.61,2.56,38.2,39.13,-28.27,0.64,0.62,0.47,1.14,2.9,3.82
1900-01-01 19:54:38.469,23.71,16.9,-8.84,0.3,0.41,0.89,0.28,-0.43,3.36,36.95,39.87,-27.7,0.65,0.61,0.48,1.4,1.26,5.33
1900-01-01 19:54:38.530,23.22,17.29,-8.17,0.3,0.4,0.88,0.33,-2.01,3.71,36.41,39.95,-26.9,0.63,0.58,0.48,2.34,0.98,3.39
1900-01-01 19:54:38.633,23.47,17.64,-7.44,0.3,0.4,0.86,-0.78,-0.6,3.15,36.99,40.43,-26.39,0.63,0.58,0.45,0.15,1.54,3.82
1900-01-01 19:54:38.673,23.27,17.27,-6.8,0.3,0.4,0.89,-1.97,0.31,3.1,35.35,41.22,-25.82,0.66,0.58,0.48,0.41,1.95,3.98
1900-01-01 19:54:38.767,24.15,17.84,-6.17,0.31,0.42,0.88,-2.84,1.4,2.96,36.7,40.12,-25.22,0.64,0.59,0.47,-1.46,-0.19,3.04
1900-01-01 19:54:38.830,21.0,17.65,-5.56,0.31,0.36,0.89,-1.82,1.48,3.66,34.29,43.06,-24.76,0.67,0.55,0.46,-0.56,-0.57,0.72
1900-01-01 19:54:39.054,20.96,16.75,-4.85,0.29,0.36,0.9,-2.18,-0.51,2.56,34.02,42.92,-24.66,0.67,0.55,0.46,-0.14,2.0,2.95
1900-01-01 19:54:39.054,21.71,17.51,-4.3,0.3,0.37,0.88,-1.73,-0.15,1.33,34.95,42.26,-24.22,0.65,0.56,0.45,-0.02,1.83,2.57
1900-01-01 19:54:39.100,20.6,17.38,-3.93,0.3,0.36,0.9,-1.85,0.85,-0.15,33.75,43.38,-23.84,0.68,0.55,0.47,-1.77,1.95,2.21
1900-01-01 19:54:39.146,20.51,17.41,-3.8,0.3,0.36,0.9,-0.79,-0.17,-1.08,33.71,43.48,-23.51,0.68,0.55,0.46,-3.45,3.02,0.24
1900-01-01 19:54:39.227,21.83,17.38,-3.8,0.3,0.38,0.89,-0.11,0.34,-1.43,34.7,41.12,-23.48,0.65,0.56,0.49,-2.55,2.17,-0.45
1900-01-01 19:54:39.346,20.65,18.26,-3.87,0.3,0.34,0.85,-1.37,1.02,-2.19,33.68,44.41,-23.56,0.65,0.51,0.42,-1.82,2.79,-3.02
1900-01-01 19:54:39.380,20.59,16.92,-4.04,0.29,0.35,0.88,-2.05,1.63,-1.38,35.03,41.09,-24.03,0.65,0.56,0.48,-3.15,5.89,-0.23
1900-01-01 19:54:39.505,19.4,18.05,-4.1,0.31,0.34,0.9,-5.05,1.66,-2.12,34.07,42.12,-24.07,0.67,0.56,0.49,-7.61,1.5,6.75
1900-01-01 19:54:39.505,18.46,16.24,-4.26,0.29,0.33,0.95,0.13,2.73,-3.09,32.19,43.23,-23.05,0.72,0.56,0.52,0.24,1.54,5.44
1900-01-01 19:54:39.604,20.43,15.11,-4.57,0.28,0.37,0.95,-0.33,-1.98,-2.36,30.76,42.72,-22.23,0.66,0.5,0.51,0.42,4.03,0.0
1900-01-01 19:54:39.731,22.23,15.47,-4.78,0.26,0.37,0.88,-2.35,1.79,-3.74,33.53,41.21,-22.24,0.63,0.53,0.49,-3.18,3.27,0.02
1900-01-01 19:54:39.772,20.86,15.83,-5.19,0.28,0.36,0.91,-2.55,2.66,-3.98,31.9,43.18,-22.24,0.68,0.52,0.5,-4.0,3.81,-0.15
1900-01-01 19:54:39.812,21.44,15.86,-5.64,0.28,0.37,0.9,-0.2,1.21,-4.34,33.85,41.45,-22.27,0.66,0.55,0.5,-2.66,3.4,-2.21
1900-01-01 19:54:40.022,21.45,15.88,-6.15,0.28,0.37,0.9,0.69,1.75,-3.14,33.97,41.26,-22.62,0.65,0.55,0.5,-1.97,3.37,-2.25
1900-01-01 19:54:40.022,21.53,14.39,-6.47,0.25,0.37,0.9,1.37,2.34,-2.57,33.17,40.31,-22.98,0.65,0.55,0.53,-2.63,3.94,-0.95
1900-01-01 19:54:40.058,21.16,14.37,-6.7,0.26,0.37,0.92,1.23,0.86,-2.18,32.98,40.73,-23.13,0.65,0.55,0.53,-1.47,4.5,-2.38
1900-01-01 19:54:40.142,21.89,13.72,-6.88,0.24,0.37,0.9,0.8,1.11,-1.84,34.61,38.85,-23.5,0.62,0.56,0.52,-2.24,4.47,-2.08
1900-01-01 19:54:40.199,22.57,13.82,-7.0,0.24,0.39,0.9,-0.65,1.21,-1.53,33.38,39.21,-23.83,0.63,0.54,0.54,-3.28,4.23,-1.34
1900-01-01 19:54:40.316,21.41,13.59,-7.08,0.24,0.37,0.9,0.21,0.73,-1.6,32.91,38.98,-24.04,0.61,0.53,0.54,-2.91,5.79,-3.62
1900-01-01 19:54:40.356,22.48,13.53,-7.16,0.24,0.39,0.91,-0.27,0.31,-1.52,33.88,38.24,-24.6,0.62,0.56,0.55,-2.05,2.93,-1.23
1900-01-01 19:54:40.447,22.45,13.31,-7.24,0.23,0.39,0.9,1.76,0.38,-1.52,34.21,37.35,-24.8,0.6,0.56,0.56,-0.59,2.0,-1.76
1900-01-01 19:54:40.522,22.63,12.99,-7.31,0.23,0.39,0.9,1.24,0.49,-1.65,33.66,37.59,-25.08,0.59,0.54,0.55,-1.02,2.5,-1.56
1900-01-01 19:54:40.626,23.11,13.0,-7.4,0.23,0.4,0.91,-0.18,0.71,-1.3,34.31,37.15,-25.32,0.6,0.56,0.56,-1.66,2.0,-0.02
1900-01-01 19:54:40.739,22.83,12.92,-7.44,0.23,0.39,0.91,-0.2,-0.14,-1.03,34.11,37.26,-25.33,0.6,0.56,0.56,-1.14,1.62,-0.66
1900-01-01 19:54:40.739,22.87,13.04,-7.44,0.23,0.39,0.9,-0.94,0.08,-0.92,34.05,37.14,-25.44,0.59,0.55,0.56,-1.4,1.68,0.09
1900-01-01 19:54:40.838,23.05,12.75,-7.43,0.22,0.39,0.89,-0.52,-0.07,-0.95,34.34,36.72,-25.44,0.59,0.55,0.56,-1.32,1.79,0.02
1900-01-01 19:54:40.922,22.94,12.81,-7.41,0.22,0.39,0.89,-0.75,-0.5,-1.12,33.99,37.23,-25.44,0.59,0.55,0.55,-1.34,1.36,-0.29
1900-01-01 19:54:40.966,22.8,12.81,-7.43,0.22,0.39,0.91,-0.72,-0.4,-1.11,34.01,37.04,-25.5,0.6,0.55,0.56,-1.63,1.55,-0.05
1900-01-01 19:54:41.054,22.47,12.79,-7.44,0.23,0.39,0.91,-0.96,-0.4,-1.35,33.77,37.26,-25.51,0.6,0.55,0.56,-1.55,1.91,0.18
1900-01-01 19:54:41.145,21.96,12.31,-7.49,0.22,0.38,0.93,-1.25,-1.82,-1.98,31.2,38.52,-25.49,0.62,0.52,0.58,-2.7,1.62,-0.76
1900-01-01 19:54:41.197,23.35,13.67,-7.63,0.24,0.4,0.89,-0.71,-2.25,-3.2,36.1,36.14,-25.62,0.58,0.58,0.54,0.11,0.1,-1.39
1900-01-01 19:54:41.302,23.15,12.99,-7.97,0.23,0.4,0.91,-0.61,-2.18,-1.74,34.7,36.34,-25.84,0.59,0.57,0.57,-0.58,0.21,-0.71
1900-01-01 19:54:41.348,23.04,13.43,-8.07,0.24,0.4,0.9,-0.71,-2.82,-1.4,35.0,36.61,-25.96,0.59,0.56,0.55,-0.48,0.21,-0.69
1900-01-01 19:54:41.442,23.35,12.56,-8.13,0.22,0.39,0.89,-1.92,-1.81,-0.92,34.75,35.94,-26.07,0.57,0.55,0.55,-0.6,-0.19,0.47
1900-01-01 19:54:41.510,22.75,13.07,-8.11,0.23,0.39,0.9,-1.47,-1.4,-1.68,34.64,36.8,-26.01,0.59,0.56,0.55,-1.6,-0.79,0.26
1900-01-01 19:54:41.608,22.68,14.23,-8.21,0.25,0.39,0.91,-1.85,-2.29,-1.4,34.04,38.16,-25.98,0.61,0.56,0.55,-1.85,-0.26,-0.01
1900-01-01 19:54:41.671,22.72,14.67,-8.27,0.25,0.39,0.89,-1.22,-2.07,-1.22,35.12,37.46,-25.99,0.59,0.56,0.53,-1.91,-0.08,-0.32
1900-01-01 19:54:41.809,22.56,14.63,-8.3,0.25,0.39,0.89,-1.54,-0.87,-1.05,34.69,37.74,-26.04,0.6,0.56,0.54,-1.91,0.6,0.63
1900-01-01 19:54:41.809,22.64,14.78,-8.3,0.26,0.39,0.89,-0.78,-1.55,-0.63,34.96,37.46,-25.96,0.6,0.56,0.54,-1.57,0.4,0.21
1900-01-01 19:54:41.993,22.65,15.04,-8.24,0.26,0.38,0.88,-0.4,-1.16,-0.98,35.63,37.47,-25.93,0.58,0.56,0.52,-1.27,0.48,-0.12
1900-01-01 19:54:41.993,21.75,14.57,-8.23,0.26,0.38,0.92,-1.11,-0.32,-0.91,33.14,38.76,-25.96,0.62,0.54,0.55,-1.34,1.34,-0.71
1900-01-01 19:54:42.072,22.84,14.79,-8.21,0.26,0.39,0.9,-0.79,-0.27,-0.91,34.84,37.79,-26.08,0.6,0.56,0.54,-1.95,1.14,0.27
1900-01-01 19:54:42.131,22.21,14.64,-8.2,0.25,0.38,0.9,-0.58,-0.23,-0.82,33.88,38.17,-26.04,0.6,0.55,0.54,-1.5,1.37,0.02
1900-01-01 19:54:42.190,22.3,14.93,-8.16,0.26,0.38,0.9,-1.08,-0.07,-0.88,34.35,38.0,-26.05,0.61,0.56,0.54,-1.76,1.53,0.37
1900-01-01 19:54:42.334,22.36,14.5,-8.14,0.25,0.39,0.9,-1.3,-0.32,-0.79,33.99,38.03,-26.0,0.61,0.55,0.55,-1.42,1.19,0.23
1900-01-01 19:54:42.374,22.08,14.75,-8.1,0.26,0.38,0.91,0.6,-1.14,-0.81,33.83,38.13,-25.97,0.61,0.55,0.55,-0.3,0.8,0.21
1900-01-01 19:54:42.453,22.06,14.87,-8.07,0.26,0.38,0.9,-0.51,-1.29,-1.63,35.34,37.49,-25.95,0.6,0.57,0.53,0.97,1.37,-0.92
1900-01-01 19:54:42.497,22.42,14.96,-8.16,0.26,0.38,0.89,-2.68,-0.31,-0.95,34.57,37.89,-26.1,0.6,0.55,0.54,-2.53,1.66,0.79
1900-01-01 19:54:42.599,21.91,14.85,-8.15,0.26,0.38,0.9,-1.22,-0.21,-0.86,33.89,38.17,-25.99,0.61,0.55,0.55,-2.1,1.21,0.21
1900-01-01 19:54:42.723,22.17,14.68,-8.12,0.26,0.39,0.91,-0.44,-0.48,-0.88,34.44,37.66,-25.96,0.61,0.57,0.55,-0.92,0.68,0.12
1900-01-01 19:54:42.723,21.78,14.47,-8.1,0.25,0.37,0.9,-1.44,-0.53,-0.6,34.25,37.95,-25.95,0.61,0.55,0.54,-1.1,0.55,0.92
1900-01-01 19:54:42.822,21.59,15.33,-8.03,0.26,0.37,0.89,-1.45,-0.24,-0.56,34.04,38.47,-25.82,0.6,0.54,0.53,-2.06,1.25,0.61
1900-01-01 19:54:42.919,21.27,15.21,-7.96,0.27,0.37,0.9,-1.28,-0.32,-0.15,33.4,38.55,-25.74,0.62,0.54,0.55,-1.68,1.06,0.9
1900-01-01 19:54:43.005,21.06,15.03,-7.82,0.26,0.36,0.89,-0.5,-0.89,-0.5,33.59,38.67,-25.61,0.61,0.54,0.53,0.08,0.11,0.11
1900-01-01 19:54:43.050,22.22,15.45,-7.74,0.26,0.37,0.87,-0.07,-0.11,-1.75,34.99,38.27,-25.6,0.59,0.54,0.51,1.45,-0.01,-0.41
1900-01-01 19:54:43.109,19.67,15.25,-7.85,0.26,0.34,0.9,2.88,0.75,-2.72,33.9,38.28,-25.67,0.62,0.56,0.55,5.61,0.65,-4.73
1900-01-01 19:54:43.239,21.93,14.76,-8.11,0.26,0.38,0.92,3.9,-2.11,-2.98,34.38,39.22,-26.4,0.62,0.55,0.52,3.71,2.27,-2.39
1900-01-01 19:54:43.290,22.39,14.16,-8.4,0.25,0.4,0.93,-5.39,-0.69,-3.48,37.87,36.06,-26.77,0.6,0.63,0.54,-3.2,7.38,1.04
1900-01-01 19:54:43.344,19.71,16.72,-8.78,0.3,0.35,0.92,-2.96,-0.05,-1.39,32.19,37.21,-26.62,0.62,0.55,0.61,-8.89,0.21,3.01
1900-01-01 19:54:43.442,24.1,16.19,-8.83,0.28,0.41,0.87,2.91,-1.03,1.63,36.83,36.41,-26.17,0.56,0.57,0.51,-1.02,-3.63,-3.62
1900-01-01 19:54:43.494,22.08,15.49,-8.42,0.26,0.37,0.87,-1.91,1.28,0.54,33.65,38.47,-26.73,0.59,0.53,0.53,-2.67,-4.83,0.11
1900-01-01 19:54:43.572,21.96,14.22,-8.18,0.25,0.38,0.91,-0.4,-0.17,-0.1,34.55,39.26,-26.72,0.64,0.57,0.53,0.32,-3.76,0.68
