,Time,Roll1,Pitch1,Yaw1,AccX1,AccY1,AccZ1,RotX1,RotY1,RotZ1,Roll2,Pitch2,Yaw2,AccX2,AccY2,AccZ2,RotX2,RotY2,RotZ2
0,1900-01-01 20:07:09.422,-8.98,18.2,0.16,0.02,-0.01,-0.06,0.0,0.0,0.0,34.48,13.77,-0.01,0.91,2.16,3.01,19.78,-12.63,17.94
1,1900-01-01 20:07:09.516,20.16,0.59,0.32,0.01,0.35,0.94,-1.51,-0.44,0.21,34.12,14.05,2.72,0.23,0.54,0.76,-2.08,0.89,0.61
2,1900-01-01 20:07:09.602,20.33,0.14,0.51,0.0,0.35,0.94,-0.73,1.13,-0.49,34.1,13.99,2.81,0.23,0.54,0.76,-1.94,1.99,0.37
3,1900-01-01 20:07:09.656,20.63,-0.21,0.59,0.0,0.35,0.93,-0.6,1.73,-0.53,33.52,13.83,2.85,0.23,0.53,0.77,-2.69,2.02,0.28
4,1900-01-01 20:07:09.750,21.09,-0.49,0.67,-0.01,0.36,0.93,-1.1,-1.43,-0.86,34.01,13.73,2.89,0.23,0.54,0.76,-1.3,0.71,-0.75
5,1900-01-01 20:07:09.797,20.31,0.15,0.7,0.0,0.35,0.94,-2.32,-2.83,-1.4,33.45,13.98,2.77,0.23,0.53,0.77,-1.75,0.12,-0.97
6,1900-01-01 20:07:09.962,19.7,0.5,0.64,0.01,0.34,0.94,-1.58,-3.17,-1.39,33.66,13.76,2.61,0.23,0.54,0.77,-1.65,0.78,-0.78
7,1900-01-01 20:07:09.980,19.39,0.82,0.59,0.01,0.34,0.95,-1.92,-0.69,-1.47,33.09,14.18,2.48,0.24,0.53,0.77,-2.85,1.34,0.18
8,1900-01-01 20:07:10.031,19.58,0.77,0.53,0.01,0.34,0.94,-0.82,1.85,-1.95,33.52,13.92,2.5,0.23,0.53,0.77,-2.73,1.75,0.09
9,1900-01-01 20:07:10.132,19.75,0.29,0.39,0.01,0.34,0.94,-0.52,1.49,-1.97,33.04,14.07,2.51,0.24,0.53,0.78,-2.14,1.34,-0.34
10,1900-01-01 20:07:10.172,19.59,-0.11,0.25,0.0,0.33,0.94,-0.46,0.14,-2.06,33.24,13.95,2.45,0.23,0.53,0.77,-1.67,0.76,-0.98
11,1900-01-01 20:07:10.266,19.95,-0.53,0.1,-0.01,0.34,0.94,-0.76,-0.41,-2.56,33.28,13.42,2.29,0.22,0.53,0.78,-1.56,0.57,-0.49
12,1900-01-01 20:07:10.360,19.2,-0.08,-0.14,0.0,0.33,0.95,-1.6,0.01,-2.64,32.6,13.97,2.21,0.23,0.52,0.78,-2.37,0.89,0.05
13,1900-01-01 20:07:10.414,19.05,-0.14,-0.38,0.0,0.33,0.94,-1.58,0.63,-2.05,32.71,14.14,2.2,0.24,0.52,0.78,-2.41,1.04,-0.12
14,1900-01-01 20:07:10.502,18.71,-0.52,-0.53,-0.01,0.32,0.94,-0.45,0.34,-1.02,33.41,14.46,2.18,0.24,0.53,0.76,-4.03,1.63,0.27
15,1900-01-01 20:07:10.552,18.65,-1.08,-0.53,-0.02,0.32,0.93,-1.73,0.44,-0.46,31.35,14.12,2.21,0.24,0.5,0.79,-1.6,0.3,0.69
16,1900-01-01 20:07:10.685,19.55,-0.34,-0.44,-0.01,0.33,0.94,-4.61,-0.38,-1.17,32.11,14.46,2.31,0.24,0.51,0.78,-0.47,-1.77,-0.73
17,1900-01-01 20:07:10.703,18.35,-0.7,-0.46,-0.01,0.31,0.95,-2.88,0.6,-1.08,32.84,14.17,2.19,0.24,0.52,0.78,-1.73,1.48,0.56
18,1900-01-01 20:07:10.783,17.98,-0.91,-0.46,-0.02,0.31,0.95,-2.34,0.31,-0.27,32.13,14.66,2.26,0.24,0.51,0.78,-2.32,1.01,0.69
19,1900-01-01 20:07:10.881,18.45,-0.23,-0.35,0.0,0.32,0.94,-1.7,-0.56,0.64,32.36,14.56,2.36,0.24,0.52,0.78,-4.41,-1.36,-1.42
20,1900-01-01 20:07:10.985,16.61,-1.01,-0.09,-0.02,0.29,0.96,-0.79,-0.49,-0.02,28.59,14.13,2.13,0.23,0.46,0.81,-3.44,-2.24,-6.96
21,1900-01-01 20:07:11.042,18.18,-0.34,0.06,-0.01,0.31,0.95,0.88,-1.05,-1.06,33.48,14.71,1.06,0.24,0.53,0.76,1.48,-1.01,-4.53
22,1900-01-01 20:07:11.112,17.61,0.03,0.06,0.0,0.3,0.95,-2.79,-0.41,0.26,31.5,14.54,0.36,0.24,0.51,0.79,-1.51,-1.35,-3.4
23,1900-01-01 20:07:11.259,16.08,-0.7,0.26,-0.01,0.28,0.96,-0.47,-1.29,-0.71,31.51,14.62,-0.16,0.24,0.51,0.79,-0.34,0.02,-0.36
24,1900-01-01 20:07:11.259,17.15,-1.65,0.31,-0.03,0.3,0.96,-2.65,-0.41,-0.74,32.29,12.58,-0.22,0.21,0.52,0.79,0.86,3.72,-0.06
25,1900-01-01 20:07:11.400,17.12,-0.68,0.36,-0.01,0.3,0.96,-3.02,0.03,-0.37,33.37,14.01,-0.24,0.23,0.53,0.77,-2.69,2.73,2.64
26,1900-01-01 20:07:11.400,16.94,1.04,0.46,0.02,0.29,0.95,2.13,1.34,-1.6,31.59,16.19,0.15,0.27,0.5,0.77,0.49,3.3,4.26
27,1900-01-01 20:07:11.530,16.82,1.22,0.38,0.02,0.29,0.95,1.82,0.22,-1.93,32.03,16.77,0.78,0.28,0.52,0.77,2.44,3.9,4.26
28,1900-01-01 20:07:11.557,17.49,0.05,0.24,0.0,0.3,0.96,-0.33,-0.34,-0.53,32.02,15.38,1.42,0.26,0.51,0.78,-0.2,2.95,3.76
29,1900-01-01 20:07:11.657,19.29,-1.03,0.32,-0.02,0.33,0.95,1.18,-0.09,-0.94,33.14,14.3,1.98,0.24,0.53,0.78,0.97,3.82,4.81
30,1900-01-01 20:07:11.689,18.05,-1.46,0.34,-0.03,0.31,0.95,0.92,0.53,-0.2,32.68,14.16,2.7,0.24,0.53,0.79,-0.21,6.84,8.63
31,1900-01-01 20:07:11.792,19.43,-0.87,0.47,-0.02,0.33,0.94,1.64,0.47,0.39,32.03,14.18,3.99,0.24,0.52,0.8,3.57,-0.63,8.65
32,1900-01-01 20:07:11.970,17.27,2.56,0.68,0.05,0.3,0.97,4.08,-2.43,-0.29,27.81,19.62,5.29,0.33,0.46,0.81,-1.02,-13.89,0.12
33,1900-01-01 20:07:11.970,18.85,0.77,0.8,0.01,0.33,0.96,8.38,-1.09,-4.92,32.23,21.57,5.3,0.35,0.51,0.73,-0.81,-14.47,-18.47
34,1900-01-01 20:07:12.113,21.02,0.35,0.2,0.01,0.37,0.97,3.44,0.26,-5.4,37.33,16.27,2.47,0.29,0.64,0.78,-3.37,-6.96,-11.12
35,1900-01-01 20:07:12.113,22.14,1.59,-0.46,0.03,0.41,1.02,-1.98,-0.42,1.79,36.84,22.08,0.77,0.39,0.62,0.73,-2.61,6.96,-15.95
36,1900-01-01 20:07:12.220,17.27,3.93,-0.03,0.06,0.28,0.89,-3.29,6.15,-0.87,36.77,19.74,-1.68,0.29,0.52,0.63,-6.78,6.73,-6.63
37,1900-01-01 20:07:12.250,19.04,-3.51,0.0,-0.06,0.3,0.86,-9.18,10.19,-3.95,32.62,11.79,-2.7,0.19,0.49,0.75,-11.55,8.07,-0.52
38,1900-01-01 20:07:12.355,23.54,-8.82,-0.45,-0.15,0.4,0.91,-5.17,4.73,-1.68,35.2,5.9,-2.78,0.1,0.58,0.82,-6.17,5.15,0.58
39,1900-01-01 20:07:12.381,19.97,-7.55,-0.55,-0.13,0.33,0.91,-1.95,1.98,-0.64,32.71,8.7,-2.7,0.14,0.5,0.77,2.19,4.66,-0.66
40,1900-01-01 20:07:12.474,18.15,-6.46,-0.48,-0.11,0.31,0.93,-2.99,3.01,-0.54,29.38,9.35,-2.81,0.16,0.48,0.84,2.01,3.01,-0.61
41,1900-01-01 20:07:12.635,18.28,-5.58,-0.41,-0.1,0.31,0.94,1.66,2.45,-1.54,33.25,11.82,-2.91,0.2,0.52,0.77,0.96,0.82,2.59
42,1900-01-01 20:07:12.635,19.58,-5.79,-0.48,-0.1,0.34,0.95,-0.73,1.04,-1.02,33.93,12.96,-2.53,0.22,0.55,0.79,0.69,3.59,4.53
43,1900-01-01 20:07:12.710,18.97,-5.42,-0.48,-0.09,0.33,0.94,-0.44,1.73,-0.5,32.92,12.99,-1.85,0.22,0.52,0.78,-0.26,1.94,3.7
44,1900-01-01 20:07:12.781,17.56,-5.6,-0.4,-0.1,0.3,0.95,0.73,0.52,-1.41,33.78,13.32,-1.3,0.22,0.54,0.78,1.61,2.18,1.73
45,1900-01-01 20:07:12.973,19.01,-5.71,-0.45,-0.1,0.33,0.94,-1.94,-0.34,-0.83,34.06,13.69,-1.04,0.23,0.54,0.77,-1.05,-1.3,0.1
46,1900-01-01 20:07:12.973,18.37,-5.25,-0.42,-0.09,0.31,0.94,-2.09,-0.3,-0.69,34.76,13.65,-1.04,0.23,0.55,0.76,-0.03,0.55,-1.43
47,1900-01-01 20:07:13.068,17.23,-5.55,-0.37,-0.1,0.29,0.94,0.92,-0.8,-1.52,33.65,13.48,-1.26,0.23,0.54,0.77,0.98,-0.56,-1.47
48,1900-01-01 20:07:13.068,19.81,-5.49,-0.44,-0.1,0.34,0.93,1.46,-0.49,-1.66,36.78,12.66,-1.49,0.21,0.58,0.75,-0.45,1.78,-0.37
49,1900-01-01 20:07:13.210,18.64,-5.37,-0.54,-0.09,0.32,0.94,0.14,0.26,-1.12,35.01,13.49,-1.56,0.23,0.55,0.76,-1.0,1.6,-1.27
50,1900-01-01 20:07:13.210,18.4,-5.32,-0.55,-0.09,0.32,0.95,-1.85,0.13,-0.24,35.53,13.7,-1.76,0.23,0.57,0.76,-2.58,0.56,-0.66
51,1900-01-01 20:07:13.348,18.95,-5.86,-0.43,-0.1,0.32,0.92,-1.6,-1.81,-0.91,35.26,12.38,-1.87,0.2,0.55,0.75,-0.2,0.13,-0.63
52,1900-01-01 20:07:13.482,17.46,-5.79,-0.41,-0.1,0.3,0.95,0.47,-0.23,-1.72,34.49,13.5,-1.98,0.22,0.55,0.76,-0.01,1.16,0.96
53,1900-01-01 20:07:13.482,18.96,-5.05,-0.51,-0.09,0.32,0.94,-1.21,0.28,-1.21,35.38,13.67,-1.84,0.23,0.56,0.75,-1.52,1.28,0.63
54,1900-01-01 20:07:13.739,18.38,-5.49,-0.54,-0.1,0.31,0.94,-0.12,0.26,-1.05,34.08,14.41,-1.75,0.24,0.54,0.76,-2.02,1.98,1.2
55,1900-01-01 20:07:13.739,19.14,-5.91,-0.54,-0.1,0.32,0.93,-1.0,-0.6,-1.32,35.48,12.0,-1.58,0.2,0.57,0.77,-2.21,4.18,1.05
56,1900-01-01 20:07:13.739,18.12,-5.78,-0.58,-0.1,0.31,0.94,0.32,-0.08,-1.41,34.33,13.41,-1.43,0.22,0.54,0.76,-1.66,0.94,0.22
57,1900-01-01 20:07:13.796,18.83,-5.39,-0.64,-0.09,0.32,0.93,0.1,-0.06,-1.82,35.01,13.82,-1.4,0.23,0.55,0.75,-2.57,1.93,1.76
58,1900-01-01 20:07:13.884,17.43,-5.21,-0.76,-0.09,0.3,0.94,-2.3,-0.4,-1.19,33.66,13.8,-1.14,0.23,0.54,0.77,-3.02,2.09,1.44
59,1900-01-01 20:07:13.995,18.22,-6.34,-0.78,-0.11,0.31,0.94,-2.69,-0.18,-1.25,34.08,13.05,-0.93,0.22,0.54,0.77,-3.96,1.92,0.18
60,1900-01-01 20:07:14.008,17.96,-5.83,-0.81,-0.1,0.31,0.94,-1.4,0.1,-0.95,33.4,13.7,-0.91,0.23,0.53,0.76,-3.24,1.91,-0.19
61,1900-01-01 20:07:14.177,18.02,-5.92,-0.8,-0.1,0.31,0.94,-2.39,0.0,-1.15,33.31,13.16,-0.95,0.22,0.53,0.78,-3.44,2.11,-1.97
62,1900-01-01 20:07:14.177,17.89,-5.46,-0.82,-0.09,0.3,0.94,-2.7,-0.86,-1.5,33.88,12.89,-1.26,0.22,0.54,0.77,0.84,0.55,-3.17
63,1900-01-01 20:07:14.306,17.47,-5.99,-0.88,-0.1,0.3,0.95,-0.4,-3.32,-1.01,33.12,11.66,-1.75,0.19,0.52,0.77,-0.22,-0.32,-0.18
64,1900-01-01 20:07:14.306,16.84,-5.4,-0.88,-0.09,0.29,0.95,0.53,0.22,-1.22,32.8,13.43,-1.79,0.22,0.52,0.78,-1.89,0.63,0.55
65,1900-01-01 20:07:14.438,18.08,-5.15,-0.91,-0.09,0.31,0.94,-0.83,0.38,-1.6,33.17,13.98,-1.71,0.23,0.53,0.77,-1.45,-0.89,0.24
66,1900-01-01 20:07:14.438,17.56,-5.48,-0.99,-0.09,0.3,0.94,-2.15,0.05,-1.56,33.8,13.62,-1.68,0.22,0.53,0.76,-2.95,1.75,-0.79
67,1900-01-01 20:07:14.538,17.59,-5.49,-1.07,-0.1,0.3,0.95,-2.35,0.02,-0.41,33.29,13.53,-1.81,0.23,0.53,0.77,-1.53,1.5,0.13
68,1900-01-01 20:07:14.683,16.78,-5.61,-0.98,-0.1,0.29,0.95,-1.56,-0.02,-1.24,33.05,13.34,-1.8,0.22,0.53,0.78,-1.79,3.21,-1.78
69,1900-01-01 20:07:14.683,16.52,-5.5,-1.01,-0.1,0.28,0.95,-3.61,2.14,-1.74,32.35,12.53,-2.08,0.21,0.52,0.8,-3.61,3.39,-3.17
70,1900-01-01 20:07:14.815,16.78,-6.54,-1.11,-0.11,0.29,0.94,-2.0,0.21,-1.21,32.87,11.43,-2.57,0.19,0.52,0.79,-2.09,1.06,-1.07
71,1900-01-01 20:07:14.815,16.81,-5.82,-1.14,-0.1,0.29,0.96,2.59,-0.7,-1.17,33.67,12.9,-2.75,0.22,0.53,0.77,-1.15,0.34,1.27
72,1900-01-01 20:07:14.990,16.57,-6.44,-1.16,-0.11,0.28,0.95,-1.14,3.56,-1.69,32.34,12.7,-2.56,0.21,0.52,0.79,-3.2,2.01,-0.29
73,1900-01-01 20:07:15.039,18.19,-7.16,-1.26,-0.12,0.31,0.93,0.18,-0.88,-1.65,33.65,11.37,-2.61,0.19,0.53,0.78,-0.48,0.54,-0.12
74,1900-01-01 20:07:15.089,15.76,-6.52,-1.35,-0.11,0.27,0.95,-0.61,-1.32,-0.82,32.08,12.85,-2.64,0.21,0.51,0.79,-0.99,1.64,-0.07
75,1900-01-01 20:07:15.211,16.85,-6.2,-1.32,-0.11,0.29,0.94,-2.96,0.16,-0.57,32.79,12.15,-2.66,0.2,0.52,0.78,-1.47,1.78,-0.74
76,1900-01-01 20:07:15.211,16.54,-6.65,-1.25,-0.12,0.28,0.95,1.27,-1.86,-0.43,32.48,12.51,-2.78,0.21,0.52,0.78,-0.39,0.74,0.82
77,1900-01-01 20:07:15.348,16.89,-5.98,-1.15,-0.1,0.29,0.95,-0.76,-0.11,-0.84,33.13,12.77,-2.67,0.21,0.53,0.78,-1.03,1.5,-0.25
78,1900-01-01 20:07:15.348,17.59,-6.35,-1.12,-0.11,0.3,0.94,0.36,-2.4,-0.76,33.74,11.39,-2.71,0.19,0.53,0.78,-0.05,0.35,-0.05
79,1900-01-01 20:07:15.497,16.1,-5.76,-1.08,-0.1,0.28,0.96,-0.42,0.28,-1.15,32.68,13.01,-2.73,0.22,0.52,0.78,-1.6,1.68,-0.13
80,1900-01-01 20:07:15.497,17.54,-5.86,-1.1,-0.1,0.3,0.95,-2.29,-0.01,-1.36,32.74,11.77,-2.76,0.2,0.52,0.78,-1.02,1.2,-0.34
81,1900-01-01 20:07:15.614,16.09,-6.2,-1.15,-0.11,0.28,0.95,-0.27,-0.34,-0.89,32.44,12.99,-2.82,0.22,0.51,0.78,-1.73,1.21,0.28
82,1900-01-01 20:07:15.661,17.09,-6.0,-1.13,-0.1,0.29,0.94,-2.5,1.09,-1.12,33.06,12.98,-2.78,0.22,0.53,0.78,-2.72,1.72,-0.54
83,1900-01-01 20:07:15.749,16.96,-6.84,-1.14,-0.12,0.29,0.95,0.03,-1.47,-0.87,32.82,11.71,-2.87,0.2,0.52,0.79,-1.66,-0.02,1.27
84,1900-01-01 20:07:15.881,16.5,-5.67,-1.11,-0.1,0.28,0.95,-0.91,0.72,-1.47,33.1,12.95,-2.69,0.22,0.53,0.78,-1.85,1.91,-0.24
85,1900-01-01 20:07:15.881,17.93,-6.58,-1.18,-0.11,0.31,0.94,0.18,-1.05,-1.41,33.38,11.42,-2.73,0.19,0.53,0.78,-0.85,0.84,-0.26
86,1900-01-01 20:07:16.071,15.73,-6.18,-1.24,-0.11,0.27,0.95,-0.08,-0.18,-1.41,32.33,13.06,-2.78,0.22,0.51,0.78,-1.52,1.37,-0.02
87,1900-01-01 20:07:16.071,16.29,-6.17,-1.29,-0.11,0.28,0.94,-3.61,0.42,-1.43,32.67,12.38,-2.79,0.21,0.52,0.78,-1.71,1.6,-0.47
88,1900-01-01 20:07:16.160,16.06,-6.6,-1.35,-0.11,0.28,0.95,0.02,-1.58,-0.84,32.2,12.29,-2.87,0.21,0.52,0.79,-1.18,0.16,0.92
89,1900-01-01 20:07:16.188,16.3,-5.92,-1.32,-0.1,0.28,0.95,-1.09,0.85,-1.47,32.87,12.85,-2.74,0.22,0.52,0.78,-1.97,1.85,-0.08
90,1900-01-01 20:07:16.289,17.57,-6.68,-1.39,-0.12,0.3,0.94,0.02,-1.41,-1.43,33.34,11.34,-2.76,0.19,0.53,0.78,-0.5,0.89,-0.17
91,1900-01-01 20:07:16.360,15.08,-5.95,-1.45,-0.1,0.26,0.95,-0.39,-0.73,-0.89,31.89,13.25,-2.8,0.22,0.51,0.79,-1.56,1.24,0.29
92,1900-01-01 20:07:16.435,16.36,-6.12,-1.42,-0.11,0.28,0.95,-2.76,0.47,-1.02,32.67,12.69,-2.76,0.21,0.52,0.78,-1.63,1.27,-0.3
93,1900-01-01 20:07:16.578,16.28,-6.74,-1.42,-0.12,0.28,0.95,0.31,-1.92,-0.36,32.46,12.25,-2.81,0.2,0.52,0.79,-1.68,0.4,1.19
94,1900-01-01 20:07:16.578,16.21,-5.73,-1.31,-0.1,0.28,0.95,-0.12,1.49,-1.4,32.8,13.05,-2.64,0.22,0.53,0.79,-1.35,1.72,0.11
95,1900-01-01 20:07:16.689,17.36,-6.73,-1.37,-0.12,0.3,0.94,0.45,-1.1,-0.95,33.09,11.69,-2.63,0.19,0.52,0.78,-0.6,0.66,0.11
96,1900-01-01 20:07:16.735,15.68,-6.13,-1.35,-0.11,0.27,0.95,-0.15,0.04,-0.95,32.29,13.22,-2.63,0.22,0.52,0.79,-1.26,1.63,-0.12
97,1900-01-01 20:07:16.814,16.75,-6.05,-1.34,-0.1,0.29,0.95,-2.62,-0.34,-1.44,32.75,12.26,-2.65,0.2,0.52,0.78,-0.71,1.02,-0.69
98,1900-01-01 20:07:17.113,15.32,-6.59,-1.4,-0.11,0.26,0.95,-0.33,-0.56,-0.6,31.54,13.47,-2.77,0.22,0.5,0.79,-1.61,1.44,0.47
99,1900-01-01 20:07:17.113,16.78,-5.83,-1.33,-0.1,0.29,0.94,-2.07,0.58,-1.02,32.83,12.96,-2.7,0.22,0.52,0.78,-1.3,2.04,-0.15
100,1900-01-01 20:07:17.113,16.12,-6.94,-1.33,-0.12,0.28,0.95,-0.67,-1.58,-0.63,32.53,12.63,-2.74,0.21,0.52,0.78,-1.81,0.45,0.63
101,1900-01-01 20:07:17.113,16.84,-5.55,-1.27,-0.1,0.29,0.95,-1.32,0.09,-0.96,32.88,13.35,-2.65,0.22,0.53,0.79,-1.2,1.19,0.66
102,1900-01-01 20:07:17.223,16.76,-6.69,-1.26,-0.12,0.29,0.95,0.85,-1.06,-1.56,33.13,11.51,-2.56,0.19,0.52,0.78,-1.18,0.31,0.08
103,1900-01-01 20:07:17.248,15.1,-6.01,-1.34,-0.1,0.26,0.96,0.92,2.4,-1.9,32.18,13.58,-2.55,0.23,0.52,0.79,-1.98,2.49,0.33
104,1900-01-01 20:07:17.349,16.82,-6.28,-1.47,-0.11,0.29,0.94,-2.73,-0.36,-1.09,32.01,12.1,-2.51,0.2,0.51,0.79,-1.08,1.31,-0.6
105,1900-01-01 20:07:17.747,15.44,-6.57,-1.48,-0.11,0.27,0.96,-0.78,-1.69,-0.69,31.49,13.52,-2.61,0.23,0.5,0.79,-1.27,0.56,-0.08
106,1900-01-01 20:07:17.747,16.6,-5.98,-1.42,-0.1,0.28,0.94,-2.56,-0.32,-1.26,32.25,13.31,-2.63,0.22,0.52,0.79,-2.11,1.56,-0.47
107,1900-01-01 20:07:17.747,16.93,-6.51,-1.46,-0.11,0.29,0.95,-0.26,-3.89,-0.77,32.8,12.34,-2.71,0.21,0.52,0.78,-0.57,-0.19,0.35
108,1900-01-01 20:07:17.747,15.31,-5.57,-1.42,-0.1,0.26,0.96,1.35,0.39,-0.92,32.62,13.4,-2.67,0.22,0.52,0.79,-1.02,1.76,0.21
109,1900-01-01 20:07:17.747,16.46,-6.19,-1.4,-0.11,0.28,0.94,-0.85,-0.76,-0.5,32.11,12.23,-2.64,0.2,0.51,0.79,0.05,1.38,-0.76
110,1900-01-01 20:07:17.778,16.01,-5.9,-1.31,-0.1,0.28,0.96,-0.28,-2.11,0.19,32.04,13.54,-2.77,0.22,0.51,0.78,-1.08,0.96,0.73
111,1900-01-01 20:07:17.865,17.08,-5.31,-1.13,-0.09,0.29,0.94,0.69,0.9,-0.9,33.25,13.29,-2.66,0.22,0.53,0.78,-1.17,1.81,-0.5
112,1900-01-01 20:07:18.019,17.79,-5.84,-1.11,-0.1,0.31,0.95,-1.24,-4.2,-0.14,33.91,11.76,-2.75,0.2,0.54,0.77,-0.08,0.08,0.09
113,1900-01-01 20:07:18.019,15.75,-4.49,-0.97,-0.08,0.27,0.96,1.39,1.3,-0.89,33.39,13.54,-2.74,0.23,0.53,0.78,-1.58,1.83,0.18
114,1900-01-01 20:07:18.135,17.7,-5.59,-0.94,-0.1,0.3,0.94,-2.22,0.79,-0.82,32.05,11.88,-2.72,0.2,0.51,0.79,-2.53,1.5,-0.21
115,1900-01-01 20:07:18.184,15.64,-5.65,-0.91,-0.1,0.27,0.95,-0.09,-0.84,-0.41,31.9,13.66,-2.76,0.23,0.51,0.79,-2.1,1.65,0.82
116,1900-01-01 20:07:18.266,17.35,-4.96,-0.82,-0.09,0.3,0.94,-1.24,0.01,-0.79,32.9,13.41,-2.65,0.22,0.52,0.78,-1.5,2.03,-0.62
117,1900-01-01 20:07:18.409,18.26,-5.71,-0.78,-0.1,0.31,0.94,-1.18,-4.66,-0.31,33.2,11.98,-2.75,0.2,0.53,0.78,-0.21,0.05,0.42
118,1900-01-01 20:07:18.409,16.25,-4.31,-0.67,-0.08,0.28,0.96,0.63,0.27,-1.08,33.1,13.58,-2.69,0.23,0.53,0.78,-1.33,1.68,0.18
119,1900-01-01 20:07:18.536,17.06,-5.0,-0.67,-0.09,0.29,0.95,-3.11,-0.75,-0.89,32.35,12.11,-2.68,0.2,0.51,0.78,-1.34,0.95,-0.4
120,1900-01-01 20:07:18.644,16.09,-4.97,-0.65,-0.09,0.28,0.96,-1.44,-2.8,-0.05,31.94,13.16,-2.75,0.22,0.51,0.79,-1.38,1.06,0.63
121,1900-01-01 20:07:18.644,16.73,-4.27,-0.5,-0.07,0.29,0.95,-0.44,0.63,-1.05,32.72,13.27,-2.66,0.22,0.52,0.78,-1.87,1.53,-0.13
122,1900-01-01 20:07:18.792,17.81,-4.57,-0.5,-0.08,0.31,0.95,-2.57,-4.31,-0.5,33.8,12.01,-2.69,0.2,0.54,0.78,-0.79,0.65,0.28
123,1900-01-01 20:07:18.792,15.08,-3.68,-0.42,-0.06,0.26,0.96,-0.44,0.27,-1.05,32.72,13.46,-2.65,0.23,0.52,0.78,-1.79,1.71,0.08
124,1900-01-01 20:07:18.907,17.45,-3.94,-0.42,-0.07,0.3,0.95,-2.6,-1.34,-0.96,32.64,11.98,-2.65,0.2,0.52,0.78,-1.15,0.63,-0.38
125,1900-01-01 20:07:19.029,14.85,-4.3,-0.41,-0.07,0.26,0.96,-0.83,-1.48,-0.3,31.44,13.36,-2.71,0.22,0.5,0.79,-1.89,1.81,0.59
126,1900-01-01 20:07:19.029,16.12,-3.38,-0.3,-0.06,0.28,0.96,1.24,2.3,-1.36,32.66,13.29,-2.63,0.22,0.52,0.78,-2.11,1.64,-0.32
127,1900-01-01 20:07:19.162,17.85,-4.02,-0.34,-0.07,0.31,0.95,0.66,-1.8,-0.82,33.65,12.01,-2.69,0.2,0.53,0.78,-0.53,1.18,0.27
128,1900-01-01 20:07:19.162,15.39,-3.88,-0.31,-0.07,0.27,0.96,0.53,1.21,-1.22,31.91,13.43,-2.66,0.23,0.51,0.79,-1.04,1.59,-0.08
129,1900-01-01 20:07:19.310,16.57,-4.15,-0.34,-0.07,0.28,0.95,-2.56,-0.48,-0.96,32.47,12.41,-2.68,0.21,0.52,0.78,-1.57,0.89,-0.52
130,1900-01-01 20:07:19.310,15.51,-4.21,-0.33,-0.07,0.27,0.96,-0.81,-1.72,-0.47,31.85,13.37,-2.77,0.22,0.51,0.79,-1.82,1.31,0.6
131,1900-01-01 20:07:19.418,16.45,-3.66,-0.24,-0.06,0.28,0.95,0.39,2.33,-1.62,32.58,13.17,-2.68,0.22,0.52,0.79,-1.91,1.67,-0.12
132,1900-01-01 20:07:19.478,18.16,-4.36,-0.33,-0.08,0.31,0.95,-1.1,-2.74,-1.16,33.22,11.83,-2.71,0.2,0.53,0.78,-0.31,0.79,-0.04
133,1900-01-01 20:07:19.541,14.67,-3.9,-0.35,-0.07,0.25,0.96,1.24,1.53,-1.24,31.74,13.57,-2.72,0.23,0.51,0.79,-1.36,1.56,0.26
134,1900-01-01 20:07:19.693,17.07,-4.31,-0.38,-0.07,0.29,0.94,-2.14,1.06,-0.97,32.43,12.92,-2.69,0.22,0.52,0.78,-1.85,1.15,-0.28
135,1900-01-01 20:07:19.693,16.52,-4.83,-0.37,-0.08,0.28,0.95,-1.04,-2.48,-0.25,32.11,12.86,-2.74,0.21,0.51,0.79,-1.52,1.15,0.31
136,1900-01-01 20:07:19.813,16.11,-3.66,-0.25,-0.06,0.28,0.96,0.48,1.15,-1.15,32.59,13.34,-2.71,0.22,0.52,0.78,-1.42,1.16,-0.08
137,1900-01-01 20:07:19.853,17.71,-4.71,-0.26,-0.08,0.3,0.95,1.57,-2.26,-0.66,33.26,12.16,-2.73,0.2,0.53,0.78,-0.73,1.16,0.5
138,1900-01-01 20:07:19.941,16.11,-3.88,-0.21,-0.07,0.28,0.96,2.9,3.4,-1.26,32.27,13.63,-2.66,0.23,0.52,0.79,-1.42,1.79,0.46
139,1900-01-01 20:07:20.077,18.29,-4.94,-0.24,-0.09,0.31,0.94,-3.24,0.4,-1.61,32.53,12.04,-2.6,0.2,0.51,0.78,-1.66,0.96,-0.53
140,1900-01-01 20:07:20.077,16.1,-4.79,-0.32,-0.08,0.28,0.95,-1.51,-1.37,-0.95,31.0,13.48,-2.69,0.22,0.5,0.79,-1.81,1.34,-0.01
141,1900-01-01 20:07:20.227,17.1,-4.26,-0.31,-0.07,0.29,0.95,-1.69,1.34,-1.95,32.37,13.25,-2.7,0.22,0.52,0.78,-2.3,1.85,-0.21
142,1900-01-01 20:07:20.227,18.33,-5.15,-0.45,-0.09,0.32,0.95,-2.85,-3.94,-1.51,32.65,11.9,-2.74,0.2,0.52,0.79,-0.77,0.75,-0.63
143,1900-01-01 20:07:20.342,14.23,-3.8,-0.52,-0.07,0.24,0.96,-2.53,-2.76,-1.06,31.34,13.5,-2.84,0.22,0.5,0.79,-1.02,1.53,0.24
144,1900-01-01 20:07:20.374,15.7,-4.12,-0.53,-0.07,0.27,0.95,-1.94,0.08,-1.29,32.22,12.88,-2.81,0.22,0.51,0.79,-1.02,1.94,-0.67
145,1900-01-01 20:07:20.470,16.69,-3.97,-0.57,-0.07,0.29,0.96,0.88,-4.35,0.09,32.96,12.3,-2.92,0.21,0.53,0.78,0.21,0.68,0.75
146,1900-01-01 20:07:20.605,15.14,-3.36,-0.39,-0.06,0.26,0.96,1.76,0.46,-0.42,32.25,13.28,-2.82,0.22,0.51,0.79,-0.35,1.78,0.42
147,1900-01-01 20:07:20.605,16.89,-3.58,-0.3,-0.06,0.29,0.94,-1.25,0.49,-0.21,32.43,12.74,-2.76,0.21,0.52,0.78,-1.08,1.06,0.05
148,1900-01-01 20:07:20.739,16.46,-3.64,-0.17,-0.06,0.28,0.95,1.37,-4.58,-0.24,33.27,12.49,-2.76,0.21,0.53,0.78,2.23,0.82,-0.31
149,1900-01-01 20:07:20.787,15.88,-2.64,-0.05,-0.05,0.27,0.96,1.24,1.08,-1.1,33.38,13.28,-2.82,0.22,0.53,0.78,-0.24,1.51,-0.11
150,1900-01-01 20:07:20.834,17.64,-3.32,-0.06,-0.06,0.3,0.95,-2.18,-0.13,-1.22,33.7,12.16,-2.84,0.2,0.54,0.78,-0.4,0.95,-0.31
151,1900-01-01 20:07:20.928,15.45,-3.24,-0.09,-0.06,0.26,0.96,-0.11,-1.56,0.11,32.64,13.33,-2.9,0.22,0.52,0.77,-1.81,1.37,0.89
152,1900-01-01 20:07:21.070,16.9,-2.54,0.09,-0.04,0.29,0.95,0.9,2.49,-1.53,34.01,13.18,-2.77,0.22,0.54,0.77,-1.7,1.44,-0.23
153,1900-01-01 20:07:21.130,18.02,-3.44,0.02,-0.06,0.31,0.95,-2.9,-2.9,-0.95,34.17,11.66,-2.82,0.19,0.54,0.77,-0.34,0.93,-0.37
154,1900-01-01 20:07:21.155,14.84,-2.78,0.03,-0.05,0.26,0.96,0.7,0.54,-0.61,32.33,13.72,-2.88,0.23,0.51,0.78,-1.84,1.43,0.33
155,1900-01-01 20:07:21.257,17.11,-3.0,0.1,-0.05,0.29,0.95,-0.34,2.89,-1.27,33.22,13.45,-2.84,0.22,0.53,0.77,-2.08,1.53,-0.02
156,1900-01-01 20:07:21.300,18.04,-3.63,0.06,-0.06,0.31,0.95,-0.36,-3.25,-0.07,34.32,12.2,-2.85,0.2,0.54,0.77,-1.14,0.86,0.62
157,1900-01-01 20:07:21.401,15.96,-3.09,0.21,-0.05,0.27,0.96,1.66,2.18,-1.5,33.32,13.38,-2.77,0.22,0.53,0.78,-1.35,1.59,-0.33
158,1900-01-01 20:07:21.515,18.29,-3.46,0.14,-0.06,0.32,0.95,-2.64,-1.36,-1.18,33.46,11.96,-2.82,0.2,0.53,0.78,-0.8,0.75,-0.21
159,1900-01-01 20:07:21.515,15.35,-3.11,0.12,-0.05,0.26,0.96,0.11,-0.39,-0.68,32.31,13.53,-2.86,0.22,0.51,0.78,-1.69,1.31,0.22
160,1900-01-01 20:07:21.640,17.44,-2.98,0.17,-0.05,0.3,0.95,-0.68,1.76,-1.44,33.68,13.49,-2.84,0.22,0.53,0.77,-1.44,1.19,-0.18
161,1900-01-01 20:07:21.675,18.18,-3.71,0.11,-0.07,0.31,0.95,-1.92,-4.44,-0.69,34.22,11.99,-2.88,0.2,0.54,0.77,-0.38,0.57,0.13
162,1900-01-01 20:07:21.764,15.28,-2.68,0.16,-0.05,0.26,0.96,0.06,0.34,-1.19,33.06,13.53,-2.86,0.23,0.53,0.78,-1.31,1.65,-0.23
163,1900-01-01 20:07:21.895,16.9,-2.97,0.14,-0.05,0.29,0.95,-3.49,-0.27,-1.13,33.18,12.63,-2.91,0.21,0.52,0.77,-0.91,1.1,-0.08
164,1900-01-01 20:07:21.895,15.36,-3.01,0.13,-0.05,0.26,0.96,0.13,-1.18,-0.31,32.79,13.29,-2.93,0.22,0.52,0.78,-1.6,1.41,0.34
165,1900-01-01 20:07:22.082,16.74,-2.66,0.24,-0.05,0.29,0.95,1.39,2.4,-1.45,33.81,13.19,-2.89,0.22,0.54,0.78,-1.95,1.44,0.1
166,1900-01-01 20:07:22.082,18.73,-3.32,0.18,-0.06,0.32,0.95,-2.58,-3.22,-1.21,34.32,12.04,-2.88,0.2,0.55,0.77,-0.15,0.84,-0.42
167,1900-01-01 20:07:22.160,14.33,-2.83,0.15,-0.05,0.25,0.97,-0.47,-0.46,-0.63,32.08,13.87,-2.95,0.23,0.51,0.78,-1.83,1.45,-0.05
168,1900-01-01 20:07:22.269,16.76,-2.67,0.21,-0.05,0.29,0.95,-0.81,1.89,-1.08,33.64,13.51,-2.97,0.22,0.53,0.77,-2.16,1.4,0.07
169,1900-01-01 20:07:22.269,17.53,-3.52,0.21,-0.06,0.3,0.95,-0.83,-3.21,-0.42,34.0,12.09,-2.97,0.2,0.54,0.77,-0.68,0.93,0.27
170,1900-01-01 20:07:22.382,15.25,-2.48,0.3,-0.04,0.26,0.96,0.93,1.0,-1.32,33.42,13.48,-2.93,0.23,0.53,0.77,-1.44,1.63,-0.11
171,1900-01-01 20:07:22.421,16.74,-3.25,0.26,-0.06,0.29,0.95,-2.44,0.25,-1.29,32.95,12.46,-2.96,0.21,0.52,0.78,-0.89,1.05,-0.06
172,1900-01-01 20:07:22.521,15.08,-3.04,0.22,-0.05,0.26,0.96,-0.14,-1.18,-0.06,32.23,13.63,-2.98,0.23,0.51,0.78,-1.5,1.27,0.4
173,1900-01-01 20:07:22.646,16.88,-2.5,0.37,-0.04,0.29,0.95,0.4,1.27,-1.4,33.74,13.4,-2.93,0.22,0.54,0.77,-1.38,1.32,-0.03
174,1900-01-01 20:07:22.646,17.93,-3.37,0.32,-0.06,0.31,0.96,-1.51,-3.21,-0.7,34.43,11.78,-2.94,0.2,0.55,0.77,-0.41,0.86,-0.18
175,1900-01-01 20:07:22.769,14.77,-2.49,0.37,-0.04,0.26,0.97,0.6,0.71,-1.09,32.67,13.67,-2.97,0.23,0.52,0.78,-1.37,1.69,-0.05
176,1900-01-01 20:07:22.808,16.81,-2.98,0.36,-0.05,0.29,0.95,-2.66,0.3,-1.15,33.09,12.88,-2.99,0.21,0.53,0.78,-1.56,1.15,-0.03
177,1900-01-01 20:07:22.903,15.62,-3.02,0.35,-0.05,0.27,0.96,-0.89,-1.64,-0.25,32.84,13.36,-3.0,0.22,0.52,0.78,-1.66,1.17,0.36
178,1900-01-01 20:07:23.082,16.36,-2.35,0.47,-0.04,0.28,0.96,1.18,1.94,-1.57,33.67,13.45,-2.96,0.23,0.54,0.77,-1.7,1.5,0.07
179,1900-01-01 20:07:23.082,17.93,-3.09,0.39,-0.05,0.31,0.95,-1.21,-1.81,-1.13,34.25,11.85,-2.95,0.2,0.54,0.77,-0.66,1.02,-0.18
180,1900-01-01 20:07:23.264,14.79,-2.72,0.37,-0.05,0.26,0.97,0.42,0.56,-1.04,32.45,13.76,-2.99,0.23,0.52,0.78,-1.31,1.4,-0.05
181,1900-01-01 20:07:23.293,16.63,-3.04,0.37,-0.05,0.28,0.95,-2.1,0.4,-1.21,33.17,12.93,-3.01,0.22,0.53,0.78,-1.59,1.04,-0.2
182,1900-01-01 20:07:23.293,15.96,-3.21,0.35,-0.06,0.27,0.96,-1.06,-1.62,-0.28,32.76,13.08,-3.04,0.22,0.52,0.78,-1.66,1.46,0.38
183,1900-01-01 20:07:23.384,16.18,-2.27,0.46,-0.04,0.28,0.96,0.76,1.21,-1.36,33.61,13.32,-3.0,0.22,0.54,0.77,-1.48,1.4,0.08
184,1900-01-01 20:07:23.415,17.64,-3.1,0.41,-0.05,0.31,0.96,-1.89,-1.67,-1.55,33.94,12.1,-2.99,0.2,0.54,0.77,-0.31,0.83,-0.34
185,1900-01-01 20:07:23.499,14.82,-2.83,0.34,-0.05,0.26,0.96,-0.61,-0.26,-0.63,32.25,13.6,-3.05,0.23,0.51,0.78,-1.76,1.63,0.02
186,1900-01-01 20:07:23.593,16.63,-2.77,0.4,-0.05,0.28,0.95,-0.37,1.37,-1.23,33.35,13.58,-3.06,0.23,0.53,0.77,-2.05,1.35,-0.09
187,1900-01-01 20:07:23.652,16.87,-3.47,0.37,-0.06,0.29,0.96,-1.22,-2.6,-0.37,33.72,12.49,-3.08,0.21,0.54,0.78,-0.98,1.04,0.41
188,1900-01-01 20:07:23.771,15.45,-2.49,0.47,-0.04,0.27,0.96,0.66,0.94,-1.36,33.24,13.46,-3.03,0.23,0.53,0.78,-1.31,1.43,-0.05
189,1900-01-01 20:07:23.905,16.99,-2.85,0.43,-0.05,0.29,0.96,-2.44,-1.24,-1.11,33.27,12.56,-3.04,0.21,0.53,0.77,-0.82,1.15,-0.18
190,1900-01-01 20:07:23.905,15.04,-2.6,0.42,-0.05,0.26,0.97,0.4,-0.25,-0.49,32.51,13.72,-3.08,0.23,0.52,0.78,-1.31,1.51,0.53
191,1900-01-01 20:07:23.948,16.82,-2.96,0.5,-0.05,0.29,0.95,0.89,1.82,-1.28,33.47,13.35,-3.01,0.22,0.53,0.77,-1.93,1.31,0.07
192,1900-01-01 20:07:24.130,17.25,-3.48,0.47,-0.06,0.3,0.95,-1.13,-1.92,-0.46,33.67,12.66,-3.0,0.21,0.53,0.77,-1.08,1.24,0.2
193,1900-01-01 20:07:24.130,16.07,-2.46,0.55,-0.04,0.28,0.96,-0.51,-0.21,-1.11,33.56,13.35,-2.98,0.22,0.53,0.77,-1.18,1.49,-0.22
194,1900-01-01 20:07:24.181,17.07,-2.88,0.54,-0.05,0.29,0.96,-2.79,-1.8,-1.5,33.3,12.53,-3.03,0.21,0.53,0.78,-0.26,0.85,-0.36
195,1900-01-01 20:07:24.279,15.1,-2.64,0.47,-0.05,0.26,0.97,-0.21,-0.52,-0.44,32.38,13.69,-3.09,0.23,0.51,0.78,-1.47,1.51,0.11
196,1900-01-01 20:07:24.319,16.51,-2.69,0.56,-0.05,0.28,0.95,0.47,1.47,-1.25,33.28,13.27,-3.08,0.22,0.53,0.78,-1.76,1.35,0.24
197,1900-01-01 20:07:24.400,17.45,-3.1,0.53,-0.05,0.3,0.95,-1.05,-2.22,-0.55,34.23,12.5,-3.05,0.21,0.54,0.77,-0.68,0.93,0.07
198,1900-01-01 20:07:24.509,15.56,-2.52,0.61,-0.04,0.27,0.96,0.23,0.29,-1.19,33.25,13.54,-3.05,0.23,0.53,0.78,-1.24,1.46,-0.09
199,1900-01-01 20:07:24.554,16.34,-2.84,0.59,-0.05,0.28,0.95,-2.91,-0.55,-1.33,33.04,12.84,-3.07,0.21,0.52,0.78,-1.1,1.07,-0.27
200,1900-01-01 20:07:24.647,15.31,-2.59,0.54,-0.05,0.26,0.96,-0.85,-1.3,-0.36,32.92,13.52,-3.12,0.22,0.52,0.77,-1.26,1.28,0.22
201,1900-01-01 20:07:24.786,16.28,-2.18,0.65,-0.04,0.28,0.96,0.08,0.98,-1.31,33.52,13.36,-3.1,0.22,0.54,0.78,-1.78,1.42,0.15
202,1900-01-01 20:07:24.898,17.51,-2.92,0.6,-0.05,0.3,0.95,-1.4,-2.13,-1.25,34.06,12.35,-3.08,0.21,0.54,0.77,-0.46,1.05,-0.24
203,1900-01-01 20:07:24.898,14.84,-2.2,0.57,-0.04,0.26,0.97,-0.38,-0.83,-0.63,32.9,13.51,-3.13,0.22,0.52,0.78,-1.37,1.54,-0.02
204,1900-01-01 20:07:25.148,16.12,-2.4,0.64,-0.04,0.28,0.96,-0.29,1.04,-1.23,33.2,13.51,-3.14,0.23,0.53,0.78,-1.73,1.34,0.18
205,1900-01-01 20:07:25.148,17.33,-2.97,0.61,-0.05,0.3,0.96,-0.69,-1.69,-0.63,34.3,12.2,-3.12,0.2,0.54,0.77,-1.07,1.18,0.06
206,1900-01-01 20:07:25.148,14.6,-2.26,0.67,-0.04,0.25,0.97,-0.18,0.31,-1.2,33.01,13.58,-3.12,0.23,0.53,0.78,-1.41,1.5,-0.23
207,1900-01-01 20:07:25.257,15.67,-2.55,0.65,-0.04,0.27,0.95,-2.21,0.56,-1.15,32.95,13.25,-3.16,0.22,0.52,0.78,-1.41,1.26,-0.11
208,1900-01-01 20:07:25.257,15.99,-2.69,0.63,-0.05,0.28,0.96,-0.97,-1.89,-0.25,33.28,12.85,-3.19,0.21,0.53,0.78,-1.31,1.13,0.23
209,1900-01-01 20:07:25.393,15.73,-2.1,0.75,-0.04,0.27,0.96,0.41,0.73,-1.42,33.6,13.35,-3.16,0.22,0.53,0.77,-1.11,1.62,-0.11
210,1900-01-01 20:07:25.512,17.07,-2.54,0.69,-0.04,0.29,0.96,-1.63,-2.2,-1.08,34.05,12.23,-3.19,0.2,0.54,0.77,-0.38,0.97,-0.31
211,1900-01-01 20:07:25.512,14.28,-2.1,0.69,-0.04,0.25,0.97,0.17,-0.02,-0.91,32.86,13.56,-3.24,0.23,0.52,0.78,-1.43,1.37,0.05
212,1900-01-01 20:07:25.613,16.21,-2.21,0.71,-0.04,0.28,0.96,-0.55,1.25,-1.31,33.33,13.3,-3.24,0.22,0.53,0.77,-1.84,1.4,0.07
213,1900-01-01 20:07:25.613,16.49,-2.77,0.67,-0.05,0.28,0.96,-0.34,-1.04,-0.43,33.83,12.57,-3.24,0.21,0.54,0.78,-1.25,1.13,0.52
214,1900-01-01 20:07:25.738,15.57,-2.11,0.76,-0.04,0.27,0.96,0.22,1.11,-1.55,33.63,13.34,-3.17,0.22,0.53,0.77,-1.61,1.53,-0.06
215,1900-01-01 20:07:25.775,16.7,-2.8,0.68,-0.05,0.29,0.95,-2.1,-0.82,-1.47,33.52,12.38,-3.19,0.21,0.53,0.78,-0.98,1.15,-0.45
216,1900-01-01 20:07:25.854,15.09,-2.26,0.62,-0.04,0.26,0.97,-0.89,-1.38,-0.63,32.68,13.37,-3.27,0.22,0.52,0.78,-1.47,1.16,0.15
217,1900-01-01 20:07:25.976,15.67,-2.2,0.68,-0.04,0.27,0.96,-0.18,1.08,-1.26,33.39,13.17,-3.25,0.22,0.53,0.77,-1.82,1.62,0.15
218,1900-01-01 20:07:26.007,16.96,-2.49,0.65,-0.04,0.29,0.96,-1.65,-2.31,-1.15,34.1,12.29,-3.24,0.21,0.54,0.77,-0.06,0.91,-0.37
219,1900-01-01 20:07:26.103,14.91,-2.49,0.63,-0.04,0.26,0.97,0.09,-0.59,-0.73,32.72,13.32,-3.3,0.22,0.52,0.78,-1.21,1.31,0.16
220,1900-01-01 20:07:26.146,16.07,-2.03,0.68,-0.04,0.28,0.96,-1.03,-0.21,-0.93,33.54,13.28,-3.29,0.22,0.53,0.77,-1.54,1.28,-0.05
221,1900-01-01 20:07:26.215,16.61,-2.37,0.69,-0.04,0.29,0.96,-0.82,-2.07,-0.76,34.29,12.18,-3.3,0.2,0.54,0.77,-0.56,0.93,-0.05
222,1900-01-01 20:07:26.338,14.53,-1.81,0.74,-0.03,0.25,0.96,0.44,-0.13,-1.08,33.2,13.49,-3.32,0.22,0.53,0.77,-1.13,1.49,0.1
223,1900-01-01 20:07:26.444,15.62,-2.02,0.73,-0.03,0.27,0.95,-2.05,-0.45,-0.98,33.54,13.52,-3.31,0.22,0.53,0.77,-1.37,1.37,-0.11
224,1900-01-01 20:07:26.477,16.64,-2.11,0.74,-0.04,0.29,0.97,-0.54,-2.68,-0.37,34.25,12.17,-3.34,0.2,0.54,0.77,-0.68,1.21,-0.01
225,1900-01-01 20:07:26.581,14.59,-1.34,0.84,-0.02,0.25,0.97,0.48,0.69,-1.27,33.56,13.43,-3.35,0.22,0.53,0.77,-1.76,1.72,-0.03
226,1900-01-01 20:07:26.618,15.55,-1.91,0.81,-0.03,0.27,0.95,-2.5,0.4,-1.17,33.13,13.11,-3.36,0.22,0.53,0.78,-1.8,1.21,-0.1
227,1900-01-01 20:07:26.706,16.04,-2.34,0.79,-0.04,0.28,0.96,-0.34,-2.76,-0.57,33.82,12.19,-3.39,0.2,0.54,0.77,-0.4,1.13,0.09
228,1900-01-01 20:07:26.817,14.3,-1.15,0.86,-0.02,0.25,0.97,-0.18,-1.21,-0.81,33.4,13.5,-3.38,0.23,0.53,0.77,-0.71,1.83,-0.25
229,1900-01-01 20:07:26.927,14.98,-1.15,0.89,-0.02,0.26,0.97,-1.82,1.0,-1.14,33.34,13.09,-3.43,0.22,0.53,0.77,-1.5,1.29,0.08
230,1900-01-01 20:07:26.927,15.98,-1.91,0.88,-0.03,0.28,0.97,2.63,0.5,-0.59,33.91,12.49,-3.42,0.21,0.54,0.77,-1.5,1.22,0.95
231,1900-01-01 20:07:27.050,15.55,-1.57,0.95,-0.03,0.27,0.96,0.81,2.76,-1.63,33.79,13.39,-3.29,0.22,0.54,0.77,-2.31,1.69,0.15
232,1900-01-01 20:07:27.050,15.67,-2.58,0.86,-0.04,0.27,0.95,-2.64,0.95,-1.51,33.0,12.66,-3.27,0.21,0.52,0.78,-1.32,0.79,-0.42
233,1900-01-01 20:07:27.170,16.02,-2.43,0.79,-0.04,0.28,0.96,-0.24,-1.76,-0.07,33.86,12.76,-3.35,0.21,0.54,0.77,-1.74,1.37,0.6
234,1900-01-01 20:07:27.270,15.26,-1.95,0.94,-0.03,0.26,0.96,-0.08,1.04,-1.55,33.76,13.13,-3.26,0.22,0.54,0.77,-1.74,1.67,-0.15
235,1900-01-01 20:07:27.318,15.99,-2.54,0.86,-0.04,0.28,0.96,-1.17,0.13,-1.38,33.17,12.38,-3.29,0.21,0.53,0.78,-0.59,0.82,-0.05
236,1900-01-01 20:07:27.406,15.03,-2.36,0.81,-0.04,0.26,0.96,0.18,-0.45,-0.12,32.5,13.6,-3.31,0.23,0.52,0.78,-1.48,1.55,0.54
237,1900-01-01 20:07:27.432,16.48,-2.13,0.95,-0.04,0.28,0.96,-1.22,-0.07,-1.15,33.88,13.18,-3.24,0.22,0.54,0.77,-1.21,1.21,-0.32
238,1900-01-01 20:07:27.521,17.11,-2.5,0.93,-0.04,0.3,0.97,-0.56,-2.83,-0.88,34.46,11.85,-3.29,0.2,0.55,0.77,-0.37,1.11,-0.1
239,1900-01-01 20:07:27.640,14.4,-1.51,0.96,-0.03,0.25,0.97,0.4,0.87,-1.19,33.17,13.69,-3.32,0.23,0.53,0.77,-1.9,1.73,0.05
240,1900-01-01 20:07:27.667,16.02,-2.4,0.94,-0.04,0.27,0.95,-1.45,1.57,-1.56,32.99,12.87,-3.32,0.21,0.52,0.78,-1.74,1.22,-0.02
241,1900-01-01 20:07:27.756,15.93,-2.73,0.86,-0.05,0.27,0.96,-0.11,-1.54,-0.4,33.6,12.79,-3.33,0.21,0.53,0.77,-1.21,1.21,0.31
242,1900-01-01 20:07:27.878,15.05,-1.86,0.95,-0.03,0.26,0.96,-0.27,0.53,-1.4,33.49,13.29,-3.29,0.22,0.53,0.78,-1.29,1.2,0.03
243,1900-01-01 20:07:27.902,16.11,-2.55,0.9,-0.04,0.28,0.96,-0.98,-0.12,-1.34,33.64,12.45,-3.29,0.21,0.53,0.77,-0.44,0.96,-0.02
244,1900-01-01 20:07:27.992,15.09,-2.49,0.85,-0.04,0.26,0.96,0.2,-0.9,-0.07,33.04,13.3,-3.31,0.22,0.52,0.77,-1.35,1.59,0.25
245,1900-01-01 20:07:28.134,16.22,-1.87,1.0,-0.03,0.28,0.96,-0.98,-0.27,-1.04,33.94,13.29,-3.28,0.22,0.54,0.77,-1.29,1.11,-0.08
246,1900-01-01 20:07:28.134,16.52,-2.17,1.0,-0.04,0.29,0.96,-1.72,-2.92,-0.95,34.33,12.14,-3.3,0.2,0.54,0.77,-0.15,1.02,-0.22
247,1900-01-01 20:07:28.226,14.18,-1.73,1.02,-0.03,0.25,0.97,-0.07,-0.25,-0.72,32.9,13.52,-3.34,0.23,0.52,0.78,-1.44,1.5,0.11
248,1900-01-01 20:07:28.343,15.92,-1.63,1.07,-0.03,0.27,0.96,-1.97,0.44,-1.13,33.71,13.32,-3.33,0.22,0.53,0.77,-1.93,1.27,0.21
249,1900-01-01 20:07:28.373,16.54,-2.1,1.05,-0.04,0.29,0.96,0.55,-2.4,-0.32,34.39,12.36,-3.31,0.21,0.55,0.77,-0.55,1.11,0.12
250,1900-01-01 20:07:28.470,14.55,-1.19,1.16,-0.02,0.25,0.97,0.08,0.51,-1.24,33.76,13.5,-3.3,0.23,0.54,0.77,-1.53,1.53,-0.01
251,1900-01-01 20:07:28.575,15.59,-1.82,1.13,-0.03,0.27,0.96,-3.02,-0.37,-1.25,33.44,12.76,-3.31,0.21,0.53,0.77,-0.95,1.0,-0.12
252,1900-01-01 20:07:28.575,14.55,-1.75,1.1,-0.03,0.25,0.97,-0.45,-1.45,-0.17,33.2,13.36,-3.34,0.22,0.53,0.77,-1.32,1.34,0.38
253,1900-01-01 20:07:28.692,15.72,-1.15,1.23,-0.02,0.27,0.96,-0.23,0.6,-1.28,34.13,13.11,-3.29,0.22,0.54,0.77,-1.76,1.34,0.21
254,1900-01-01 20:07:28.765,16.29,-1.87,1.2,-0.03,0.28,0.96,-2.06,-1.21,-1.47,34.03,12.46,-3.26,0.21,0.54,0.77,-0.5,1.08,-0.43
255,1900-01-01 20:07:28.812,14.13,-1.42,1.13,-0.02,0.24,0.97,0.27,-0.47,-0.52,32.84,13.78,-3.34,0.23,0.52,0.77,-1.57,1.47,0.23
256,1900-01-01 20:07:28.928,15.93,-1.32,1.21,-0.02,0.27,0.96,-0.6,0.95,-1.34,33.94,13.12,-3.31,0.22,0.54,0.77,-1.92,1.2,0.24
257,1900-01-01 20:07:28.955,16.73,-1.86,1.17,-0.03,0.29,0.96,0.27,-1.22,-0.96,34.46,12.31,-3.28,0.21,0.55,0.77,-0.67,1.09,-0.08
258,1900-01-01 20:07:29.041,14.61,-1.43,1.18,-0.02,0.25,0.97,-0.1,0.31,-1.15,33.43,13.43,-3.3,0.22,0.53,0.77,-1.81,1.68,-0.16
259,1900-01-01 20:07:29.162,15.35,-1.56,1.16,-0.03,0.26,0.96,-2.25,0.45,-1.31,33.45,13.38,-3.33,0.22,0.53,0.78,-1.6,1.11,-0.12
260,1900-01-01 20:07:29.186,15.07,-2.03,1.12,-0.04,0.26,0.96,0.33,-0.84,-0.33,33.5,12.83,-3.36,0.21,0.53,0.77,-1.34,1.46,0.5
261,1900-01-01 20:07:29.275,15.63,-1.37,1.23,-0.02,0.27,0.96,0.0,0.89,-1.53,33.99,13.16,-3.29,0.22,0.54,0.77,-1.49,1.4,-0.08
262,1900-01-01 20:07:29.396,16.3,-1.92,1.16,-0.03,0.28,0.97,-1.63,-1.46,-1.34,34.25,12.15,-3.31,0.2,0.54,0.77,-0.34,0.98,-0.33
263,1900-01-01 20:07:29.425,14.17,-1.63,1.11,-0.03,0.24,0.97,-0.24,-0.48,-0.7,32.7,13.63,-3.37,0.23,0.52,0.78,-1.3,1.57,-0.27
264,1900-01-01 20:07:29.508,15.45,-1.41,1.16,-0.02,0.27,0.96,-1.29,0.48,-1.15,33.49,13.43,-3.42,0.22,0.53,0.77,-1.84,1.05,0.07
265,1900-01-01 20:07:29.624,15.82,-1.98,1.14,-0.03,0.27,0.96,-0.77,-1.43,-0.67,34.07,12.37,-3.42,0.21,0.54,0.77,-0.92,1.16,0.06
266,1900-01-01 20:07:29.741,14.3,-1.39,1.2,-0.02,0.25,0.97,0.34,0.6,-1.17,33.3,13.39,-3.42,0.22,0.53,0.78,-1.6,1.49,-0.04
267,1900-01-01 20:07:29.741,15.19,-1.73,1.18,-0.03,0.26,0.96,-2.62,0.11,-1.23,33.39,13.17,-3.43,0.22,0.53,0.78,-1.34,1.15,-0.07
268,1900-01-01 20:07:29.859,15.13,-1.92,1.15,-0.03,0.26,0.96,-0.01,-1.23,-0.23,33.69,12.81,-3.45,0.21,0.53,0.77,-1.33,1.34,0.34
269,1900-01-01 20:07:29.978,15.41,-1.46,1.28,-0.03,0.27,0.96,0.41,0.86,-1.4,33.93,13.25,-3.41,0.22,0.54,0.77,-1.82,1.61,0.02
270,1900-01-01 20:07:29.978,15.53,-1.84,1.22,-0.03,0.27,0.96,-2.68,-0.6,-1.32,33.33,12.81,-3.42,0.21,0.53,0.78,-0.82,1.02,-0.19
271,1900-01-01 20:07:30.027,14.37,-1.9,1.18,-0.03,0.25,0.96,-0.1,-1.21,-0.3,33.14,13.28,-3.45,0.22,0.53,0.77,-1.06,1.32,-0.03
272,1900-01-01 20:07:30.094,15.58,-1.33,1.29,-0.02,0.27,0.96,-0.05,0.79,-1.35,33.87,13.33,-3.47,0.22,0.54,0.77,-1.63,1.34,0.19
273,1900-01-01 20:07:30.220,16.48,-1.95,1.25,-0.03,0.29,0.96,-1.33,-1.14,-1.34,34.19,12.26,-3.45,0.2,0.54,0.77,-0.37,1.08,-0.31
274,1900-01-01 20:07:30.251,14.39,-1.57,1.2,-0.03,0.25,0.97,-0.14,-0.66,-0.56,33.05,13.65,-3.5,0.23,0.52,0.77,-1.37,1.62,-0.08
275,1900-01-01 20:07:30.335,15.33,-1.22,1.27,-0.02,0.26,0.96,-0.85,0.64,-1.24,33.74,13.28,-3.52,0.22,0.53,0.77,-1.78,1.19,0.26
276,1900-01-01 20:07:30.444,16.18,-1.89,1.24,-0.03,0.28,0.96,0.55,-1.01,-0.82,34.52,12.24,-3.49,0.2,0.55,0.77,-0.72,1.03,0.15
277,1900-01-01 20:07:30.476,14.61,-1.42,1.28,-0.02,0.25,0.97,0.56,0.45,-1.11,33.38,13.56,-3.48,0.23,0.53,0.77,-1.32,1.56,-0.09
278,1900-01-01 20:07:30.577,15.24,-1.58,1.27,-0.03,0.26,0.96,-1.95,0.46,-1.15,33.06,13.15,-3.5,0.22,0.53,0.78,-1.42,1.18,0.12
279,1900-01-01 20:07:30.697,15.98,-2.19,1.25,-0.04,0.28,0.96,0.44,-0.91,-0.35,34.02,12.68,-3.49,0.21,0.54,0.77,-1.44,1.4,0.37
280,1900-01-01 20:07:30.813,15.34,-1.37,1.36,-0.02,0.26,0.96,-0.15,0.65,-1.36,33.9,13.41,-3.44,0.22,0.54,0.77,-1.64,1.52,-0.18
281,1900-01-01 20:07:30.813,16.35,-1.97,1.31,-0.03,0.28,0.97,-1.74,-1.57,-1.16,33.94,12.44,-3.48,0.21,0.54,0.77,-0.66,1.11,-0.27
282,1900-01-01 20:07:30.897,14.26,-1.64,1.29,-0.03,0.25,0.97,-0.18,-0.29,-0.66,32.83,13.6,-3.53,0.23,0.52,0.77,-1.4,1.6,-0.02
283,1900-01-01 20:07:30.945,15.77,-1.55,1.35,-0.03,0.27,0.96,-1.51,0.44,-1.19,33.59,13.24,-3.54,0.22,0.53,0.77,-1.72,1.17,0.06
284,1900-01-01 20:07:31.049,16.04,-1.77,1.32,-0.03,0.28,0.97,-2.14,-1.94,-0.71,34.21,12.52,-3.54,0.21,0.54,0.77,-0.63,0.91,-0.34
285,1900-01-01 20:07:31.084,14.64,-1.49,1.37,-0.03,0.25,0.97,-0.88,-0.68,-1.14,33.85,13.05,-3.6,0.22,0.54,0.77,-1.23,1.4,-0.46
286,1900-01-01 20:07:31.163,14.42,-1.4,1.36,-0.02,0.25,0.97,-0.7,-0.02,-1.03,33.47,13.08,-3.68,0.22,0.53,0.77,-1.39,1.27,0.29
287,1900-01-01 20:07:31.278,15.21,-1.55,1.36,-0.03,0.26,0.97,-1.89,-1.03,-0.97,34.05,12.59,-3.64,0.21,0.54,0.77,-0.87,1.2,-0.18
288,1900-01-01 20:07:31.317,14.33,-1.39,1.37,-0.02,0.25,0.97,0.48,-0.38,-0.72,33.38,13.11,-3.68,0.22,0.53,0.77,-1.53,1.37,0.25
289,1900-01-01 20:07:31.390,15.2,-1.15,1.42,-0.02,0.26,0.96,0.21,1.15,-1.31,33.84,13.26,-3.65,0.22,0.54,0.77,-1.71,1.41,0.24
290,1900-01-01 20:07:31.507,16.06,-1.84,1.38,-0.03,0.28,0.97,-1.85,-1.52,-1.22,34.09,12.34,-3.62,0.21,0.54,0.77,-0.86,1.05,-0.31
291,1900-01-01 20:07:31.551,13.77,-1.19,1.35,-0.02,0.24,0.97,-1.31,-0.85,-0.69,33.32,13.4,-3.67,0.22,0.53,0.77,-0.85,1.54,-0.54
292,1900-01-01 20:07:31.619,14.61,-1.19,1.41,-0.02,0.25,0.96,-1.06,0.3,-1.01,33.61,13.25,-3.77,0.22,0.53,0.77,-1.68,1.08,0.31
293,1900-01-01 20:07:31.735,15.3,-1.65,1.41,-0.03,0.26,0.97,-1.2,-1.26,-1.01,34.13,12.51,-3.73,0.21,0.54,0.77,-0.86,1.23,-0.17
294,1900-01-01 20:07:31.784,14.02,-1.23,1.42,-0.02,0.24,0.97,1.09,-0.06,-0.81,33.48,13.22,-3.76,0.22,0.53,0.77,-1.21,1.58,-0.08
295,1900-01-01 20:07:31.878,14.81,-1.11,1.45,-0.02,0.25,0.96,-0.89,0.27,-1.15,33.64,13.31,-3.78,0.22,0.53,0.77,-1.61,1.23,0.15
296,1900-01-01 20:07:31.962,15.56,-1.59,1.44,-0.03,0.27,0.97,-1.45,-1.34,-0.98,34.16,12.17,-3.77,0.2,0.54,0.77,-0.74,1.18,-0.18
297,1900-01-01 20:07:32.018,13.99,-1.12,1.45,-0.02,0.24,0.97,-0.16,-0.56,-0.84,33.33,13.24,-3.8,0.22,0.53,0.77,-1.29,1.52,-0.23
298,1900-01-01 20:07:32.085,14.5,-1.02,1.48,-0.02,0.25,0.97,-0.37,0.91,-1.31,33.6,13.28,-3.85,0.22,0.53,0.77,-1.44,1.05,0.24
299,1900-01-01 20:07:32.212,16.0,-1.58,1.44,-0.03,0.28,0.97,0.28,-1.18,-0.93,34.61,12.2,-3.82,0.2,0.55,0.77,-0.72,1.11,0.02
300,1900-01-01 20:07:32.305,13.69,-1.09,1.45,-0.02,0.24,0.97,0.42,0.56,-1.12,33.52,13.31,-3.82,0.22,0.53,0.77,-1.42,1.32,0.03
301,1900-01-01 20:07:32.305,15.13,-1.53,1.44,-0.03,0.26,0.96,-1.49,-0.3,-1.34,33.85,12.7,-3.83,0.21,0.54,0.77,-1.02,1.11,0.0
302,1900-01-01 20:07:32.418,14.02,-1.54,1.4,-0.03,0.24,0.97,-0.22,-0.56,-0.63,33.34,13.11,-3.83,0.22,0.53,0.77,-1.03,1.5,0.21
303,1900-01-01 20:07:32.484,14.84,-1.13,1.46,-0.02,0.26,0.97,-0.4,0.63,-1.26,33.9,13.3,-3.81,0.22,0.54,0.77,-1.73,1.44,0.18
304,1900-01-01 20:07:32.530,15.68,-1.65,1.43,-0.03,0.27,0.96,-0.32,-1.01,-1.02,34.31,12.41,-3.79,0.21,0.54,0.77,-0.75,1.12,-0.04
305,1900-01-01 20:07:32.646,14.24,-1.2,1.43,-0.02,0.25,0.97,-0.03,-0.13,-1.02,33.48,13.43,-3.81,0.22,0.53,0.77,-1.22,1.52,-0.17
306,1900-01-01 20:07:32.677,14.81,-1.41,1.43,-0.02,0.25,0.96,-1.89,-0.27,-1.09,33.42,13.3,-3.84,0.22,0.53,0.77,-1.39,1.18,-0.03
307,1900-01-01 20:07:32.756,14.95,-1.48,1.42,-0.03,0.26,0.97,-0.86,-1.7,-0.43,34.03,12.72,-3.86,0.21,0.54,0.77,-0.76,1.09,0.07
308,1900-01-01 20:07:32.868,14.53,-1.05,1.52,-0.02,0.25,0.97,0.98,0.98,-1.35,33.97,13.17,-3.85,0.22,0.54,0.77,-1.53,1.47,0.16
309,1900-01-01 20:07:32.975,15.12,-1.48,1.47,-0.03,0.26,0.96,-2.15,-0.47,-1.12,33.55,12.97,-3.84,0.22,0.53,0.77,-1.44,1.32,-0.09
310,1900-01-01 20:07:33.004,14.81,-1.25,1.46,-0.02,0.26,0.97,-1.11,-2.05,-0.36,33.56,12.98,-3.86,0.22,0.53,0.77,-0.76,1.11,-0.08
311,1900-01-01 20:07:33.103,14.09,-0.89,1.56,-0.02,0.24,0.97,1.15,1.38,-1.29,33.87,13.31,-3.88,0.22,0.54,0.77,-1.85,1.44,0.45
312,1900-01-01 20:07:33.206,15.41,-1.47,1.53,-0.03,0.26,0.96,-1.11,0.65,-1.42,33.68,13.09,-3.82,0.22,0.53,0.77,-1.24,1.22,0.13
313,1900-01-01 20:07:33.206,14.8,-1.51,1.47,-0.03,0.26,0.97,-0.54,-1.29,-0.34,33.28,12.88,-3.81,0.22,0.53,0.78,-0.87,1.47,0.15
314,1900-01-01 20:07:33.316,15.07,-0.99,1.57,-0.02,0.26,0.97,-0.21,0.36,-1.25,34.04,13.38,-3.8,0.22,0.54,0.77,-1.64,1.49,-0.05
315,1900-01-01 20:07:33.423,15.5,-1.42,1.54,-0.02,0.27,0.97,-1.64,-0.82,-1.42,34.06,12.7,-3.81,0.21,0.54,0.77,-0.63,1.11,-0.13
316,1900-01-01 20:07:33.462,14.39,-1.23,1.48,-0.02,0.25,0.97,0.08,-0.75,-0.61,33.63,13.01,-3.84,0.22,0.53,0.77,-1.1,1.42,0.0
317,1900-01-01 20:07:33.541,14.93,-1.04,1.55,-0.02,0.26,0.97,-0.26,0.3,-1.02,33.96,13.32,-3.85,0.22,0.54,0.77,-1.6,1.55,0.09
318,1900-01-01 20:07:33.657,15.37,-1.37,1.55,-0.02,0.27,0.97,-0.49,0.05,-1.21,33.93,12.75,-3.84,0.21,0.54,0.77,-0.88,1.18,0.08
319,1900-01-01 20:07:33.752,14.96,-1.5,1.53,-0.03,0.26,0.96,0.16,-0.76,-0.43,33.75,12.92,-3.84,0.22,0.53,0.77,-1.15,1.48,0.11
320,1900-01-01 20:07:33.752,14.91,-1.12,1.62,-0.02,0.26,0.97,-0.27,-0.05,-1.05,33.92,13.27,-3.83,0.22,0.54,0.77,-1.18,1.12,0.27
321,1900-01-01 20:07:33.877,15.33,-1.55,1.62,-0.03,0.27,0.97,-1.52,-0.85,-1.11,34.2,12.7,-3.8,0.21,0.54,0.77,-0.79,1.1,-0.02
322,1900-01-01 20:07:33.913,14.46,-1.24,1.61,-0.02,0.25,0.97,-0.35,-0.35,-0.69,33.72,13.2,-3.81,0.22,0.53,0.77,-1.36,1.45,-0.09
323,1900-01-01 20:07:33.985,15.19,-1.09,1.66,-0.02,0.26,0.97,-0.48,0.39,-1.28,34.15,12.97,-3.83,0.22,0.54,0.77,-1.85,1.65,-0.02
324,1900-01-01 20:07:34.098,14.95,-1.35,1.63,-0.02,0.26,0.96,-1.33,-0.73,-1.17,33.78,13.07,-3.84,0.22,0.54,0.77,-1.0,1.22,-0.07
325,1900-01-01 20:07:34.145,14.87,-1.12,1.61,-0.02,0.26,0.97,-1.77,-1.34,-0.93,33.95,12.9,-3.86,0.22,0.54,0.77,-1.02,1.05,-0.16
326,1900-01-01 20:07:34.224,14.48,-0.95,1.62,-0.02,0.25,0.97,-0.66,-0.98,-0.8,33.79,12.9,-3.9,0.22,0.54,0.77,-0.79,1.04,0.02
327,1900-01-01 20:07:34.345,14.6,-1.06,1.66,-0.02,0.25,0.97,-0.41,-0.05,-1.06,33.93,13.12,-3.9,0.22,0.54,0.77,-1.17,1.34,-0.08
328,1900-01-01 20:07:34.431,14.38,-0.99,1.66,-0.02,0.25,0.97,-1.85,-0.09,-1.28,33.65,13.09,-3.92,0.22,0.53,0.77,-0.96,1.11,-0.02
329,1900-01-01 20:07:34.431,14.34,-1.15,1.62,-0.02,0.25,0.97,0.31,-0.27,-0.73,33.66,13.13,-3.93,0.22,0.53,0.77,-1.45,1.48,0.32
330,1900-01-01 20:07:34.543,14.86,-0.98,1.67,-0.02,0.26,0.97,-0.31,0.39,-1.08,33.94,13.07,-3.89,0.22,0.54,0.77,-2.27,2.0,-0.04
331,1900-01-01 20:07:34.610,15.0,-1.08,1.66,-0.02,0.26,0.97,-0.57,-0.21,-1.07,33.97,12.99,-3.91,0.22,0.54,0.77,-1.4,1.5,-0.08
332,1900-01-01 20:07:34.658,14.68,-1.2,1.66,-0.02,0.25,0.97,-0.54,-0.19,-0.95,33.84,12.87,-3.93,0.21,0.54,0.77,-1.41,1.48,0.04
333,1900-01-01 20:07:34.762,14.82,-1.06,1.67,-0.02,0.26,0.97,-1.34,-0.55,-1.0,34.02,12.84,-3.93,0.21,0.54,0.77,-1.43,1.36,-0.04
334,1900-01-01 20:07:34.875,14.73,-1.12,1.68,-0.02,0.26,0.97,-2.68,-0.03,-1.15,33.88,12.6,-3.95,0.21,0.54,0.77,-2.26,1.33,0.34
335,1900-01-01 20:07:34.987,14.25,-1.23,1.66,-0.02,0.25,0.97,-0.26,-0.8,-0.76,33.34,12.92,-3.9,0.22,0.53,0.78,-0.97,0.97,-0.03
336,1900-01-01 20:07:34.987,14.66,-0.94,1.7,-0.02,0.25,0.97,-0.85,-0.08,-1.02,33.55,13.11,-3.92,0.22,0.53,0.77,-1.12,1.11,0.1
337,1900-01-01 20:07:35.092,15.01,-1.17,1.71,-0.02,0.26,0.97,-0.6,-0.8,-0.98,34.14,12.36,-3.91,0.21,0.54,0.77,-0.98,1.27,0.08
338,1900-01-01 20:07:35.204,14.12,-1.0,1.71,-0.02,0.24,0.97,0.2,-0.36,-0.79,33.55,13.01,-3.91,0.22,0.53,0.77,-1.54,1.83,-0.19
339,1900-01-01 20:07:35.204,14.96,-0.82,1.75,-0.01,0.26,0.97,-0.53,0.24,-1.11,33.88,12.9,-3.94,0.22,0.54,0.77,-1.78,1.51,0.17
340,1900-01-01 20:07:35.315,14.91,-1.31,1.74,-0.02,0.26,0.97,-0.75,-0.39,-1.02,33.77,12.66,-3.93,0.21,0.54,0.77,-1.47,1.38,0.0
341,1900-01-01 20:07:35.355,14.42,-0.9,1.75,-0.02,0.25,0.97,-1.14,-0.25,-0.97,33.55,13.06,-3.93,0.22,0.53,0.77,-1.58,1.25,0.01
342,1900-01-01 20:07:35.420,14.95,-1.12,1.76,-0.02,0.26,0.97,-3.25,-0.69,-1.06,33.58,12.65,-3.94,0.21,0.53,0.77,-1.22,1.0,-0.18
343,1900-01-01 20:07:35.533,14.22,-1.05,1.75,-0.02,0.25,0.97,-0.72,-1.33,-0.89,33.56,12.89,-3.98,0.21,0.53,0.77,-0.67,1.08,-0.09
344,1900-01-01 20:07:35.588,14.16,-0.77,1.78,-0.01,0.25,0.97,0.21,0.2,-0.95,33.68,13.11,-4.0,0.22,0.53,0.77,-1.51,1.32,0.12
345,1900-01-01 20:07:35.649,14.3,-0.98,1.79,-0.02,0.25,0.97,-2.18,0.23,-1.13,33.24,13.06,-3.99,0.22,0.53,0.78,-1.56,1.29,-0.12
346,1900-01-01 20:07:35.772,14.93,-1.0,1.78,-0.02,0.26,0.97,0.8,-1.64,-0.72,34.1,12.57,-4.02,0.21,0.54,0.77,-0.51,1.21,-0.05
347,1900-01-01 20:07:35.792,13.8,-0.73,1.83,-0.01,0.24,0.97,0.56,0.59,-1.17,33.64,12.97,-4.03,0.22,0.53,0.77,-1.82,1.77,0.05
348,1900-01-01 20:07:35.970,14.76,-0.92,1.81,-0.02,0.25,0.97,0.01,0.63,-1.14,33.73,12.91,-4.03,0.21,0.53,0.77,-1.64,1.55,0.08
349,1900-01-01 20:07:35.970,14.58,-1.14,1.8,-0.02,0.25,0.97,-1.08,-0.48,-0.89,33.42,12.77,-4.03,0.21,0.53,0.78,-1.21,1.54,-0.12
350,1900-01-01 20:07:36.088,14.64,-0.81,1.82,-0.01,0.25,0.97,-0.7,-0.48,-0.97,33.74,12.84,-4.06,0.21,0.54,0.77,-1.25,1.26,-0.08
351,1900-01-01 20:07:36.212,14.54,-1.31,1.83,-0.02,0.25,0.97,-0.15,0.03,-1.53,33.89,12.52,-4.08,0.21,0.54,0.77,-0.87,1.15,-0.45
352,1900-01-01 20:07:36.212,14.41,-0.79,1.75,-0.01,0.25,0.97,-1.47,-0.45,-0.91,33.23,12.93,-4.15,0.22,0.53,0.78,-2.29,1.54,0.05
353,1900-01-01 20:07:36.307,14.63,-0.99,1.77,-0.02,0.25,0.97,-0.73,-0.21,-1.12,33.48,12.58,-4.15,0.21,0.53,0.78,-1.66,1.43,-0.13
354,1900-01-01 20:07:36.335,14.45,-1.12,1.76,-0.02,0.25,0.97,-0.79,-0.36,-1.05,33.34,12.61,-4.18,0.21,0.53,0.78,-1.31,1.33,-0.09
355,1900-01-01 20:07:36.414,14.29,-0.91,1.76,-0.02,0.25,0.97,-1.39,-0.86,-0.92,33.61,12.58,-4.2,0.21,0.53,0.77,-1.6,1.27,-0.07
356,1900-01-01 20:07:36.524,13.92,-0.88,1.78,-0.02,0.24,0.97,-0.92,-0.5,-0.96,33.45,12.53,-4.22,0.21,0.53,0.78,-1.42,1.3,-0.11
357,1900-01-01 20:07:36.569,14.13,-0.76,1.79,-0.01,0.24,0.97,-0.49,-0.14,-0.88,33.33,12.76,-4.25,0.21,0.53,0.78,-1.43,1.33,0.06
358,1900-01-01 20:07:36.664,14.22,-0.98,1.82,-0.02,0.25,0.97,-0.25,0.05,-0.81,33.37,12.59,-4.25,0.21,0.53,0.77,-1.59,1.42,0.21
359,1900-01-01 20:07:36.739,14.42,-0.94,1.85,-0.02,0.25,0.97,-1.24,-0.56,-0.85,33.3,12.56,-4.22,0.21,0.53,0.78,-1.6,1.47,-0.19
360,1900-01-01 20:07:36.803,13.95,-0.9,1.88,-0.02,0.24,0.97,-0.98,-0.3,-0.81,33.29,12.47,-4.26,0.21,0.53,0.78,-1.78,1.37,0.04
361,1900-01-01 20:07:36.857,14.1,-0.77,1.91,-0.01,0.24,0.97,-1.11,1.0,-1.3,33.05,12.76,-4.26,0.21,0.52,0.78,-1.53,0.87,0.09
362,1900-01-01 20:07:36.974,14.33,-1.05,1.88,-0.02,0.25,0.97,-1.87,-1.09,-0.52,33.0,12.53,-4.26,0.21,0.52,0.78,-1.46,0.94,0.15
363,1900-01-01 20:07:37.069,13.6,-0.85,1.96,-0.01,0.24,0.97,0.15,0.05,-1.08,33.1,12.73,-4.25,0.21,0.53,0.78,-0.86,0.92,0.04
364,1900-01-01 20:07:37.095,14.34,-1.18,1.95,-0.02,0.25,0.97,-0.76,-0.05,-0.98,33.41,12.52,-4.25,0.21,0.53,0.77,-1.71,1.12,-0.08
365,1900-01-01 20:07:37.168,14.39,-1.04,1.96,-0.02,0.25,0.97,1.17,-1.17,-1.02,33.35,12.42,-4.27,0.21,0.53,0.78,-0.14,1.25,-0.34
366,1900-01-01 20:07:37.244,13.94,-0.69,1.96,-0.01,0.24,0.97,0.93,0.02,-0.76,33.08,12.85,-4.33,0.21,0.53,0.78,-1.6,1.69,0.27
367,1900-01-01 20:07:37.320,14.78,-1.08,2.01,-0.02,0.26,0.97,0.47,0.17,-0.99,33.36,12.66,-4.3,0.21,0.53,0.78,-1.12,1.53,0.24
368,1900-01-01 20:07:37.394,14.82,-1.05,2.02,-0.02,0.26,0.97,-0.57,-0.53,-1.06,33.51,12.62,-4.27,0.21,0.53,0.78,-1.02,1.45,0.05
369,1900-01-01 20:07:37.505,14.47,-0.94,2.01,-0.02,0.25,0.97,-0.88,-0.59,-1.08,33.53,12.6,-4.27,0.21,0.53,0.77,-0.95,1.25,-0.05
370,1900-01-01 20:07:37.610,14.62,-0.98,2.01,-0.02,0.25,0.97,-0.89,-0.43,-1.03,33.34,12.49,-4.29,0.21,0.53,0.78,-1.11,1.31,-0.01
371,1900-01-01 20:07:37.646,14.56,-0.87,2.01,-0.02,0.25,0.97,-0.9,-0.44,-1.14,33.33,12.62,-4.3,0.21,0.53,0.78,-1.21,1.25,-0.03
372,1900-01-01 20:07:37.730,14.45,-0.95,1.99,-0.02,0.25,0.97,-1.1,0.01,-1.03,33.01,12.76,-4.31,0.21,0.53,0.78,-1.87,1.47,-0.1
373,1900-01-01 20:07:37.824,14.45,-0.88,1.99,-0.02,0.25,0.97,-3.78,-0.18,-1.31,33.42,12.67,-4.33,0.21,0.53,0.77,-1.54,1.08,-0.44
374,1900-01-01 20:07:37.933,13.65,-1.05,1.95,-0.02,0.24,0.98,-2.52,-1.05,-1.11,32.98,12.42,-4.41,0.21,0.52,0.78,-1.21,0.77,-0.29
375,1900-01-01 20:07:37.933,14.76,-0.75,1.94,-0.01,0.26,0.98,2.51,-1.76,-1.01,34.01,12.06,-4.46,0.2,0.54,0.77,-0.15,1.22,-0.14
376,1900-01-01 20:07:38.041,13.24,-0.42,1.95,-0.01,0.23,0.97,0.08,0.27,-1.1,33.13,12.93,-4.49,0.22,0.53,0.78,-1.32,1.48,-0.05
377,1900-01-01 20:07:38.112,13.92,-0.84,1.94,-0.01,0.24,0.97,-2.43,0.37,-1.16,32.89,12.58,-4.51,0.21,0.52,0.78,-1.51,1.02,-0.03
378,1900-01-01 20:07:38.159,14.61,-0.98,1.92,-0.02,0.25,0.97,0.66,-1.91,-0.57,33.46,12.29,-4.52,0.21,0.53,0.78,-0.73,1.21,0.08
379,1900-01-01 20:07:38.241,13.67,-0.39,1.99,-0.01,0.24,0.97,-0.2,-0.08,-1.11,33.62,12.77,-4.52,0.21,0.53,0.77,-1.4,1.4,-0.05
380,1900-01-01 20:07:38.345,13.83,-0.7,1.98,-0.01,0.24,0.97,-2.34,0.39,-1.27,33.37,12.65,-4.53,0.21,0.53,0.78,-1.57,1.06,0.03
381,1900-01-01 20:07:38.392,13.63,-0.84,1.95,-0.01,0.24,0.97,1.6,-0.98,-0.5,33.1,12.72,-4.54,0.21,0.53,0.78,-0.75,1.27,0.11
382,1900-01-01 20:07:38.486,13.86,-0.49,2.03,-0.01,0.24,0.97,-0.11,0.63,-1.14,33.42,12.92,-4.53,0.22,0.53,0.77,-1.6,1.37,0.13
383,1900-01-01 20:07:38.582,14.27,-0.83,2.02,-0.01,0.25,0.97,-3.16,-0.23,-1.27,33.67,12.38,-4.52,0.21,0.54,0.78,-1.24,1.13,-0.25
384,1900-01-01 20:07:38.688,13.04,-0.84,1.98,-0.01,0.23,0.97,1.57,-1.08,-0.52,32.99,12.88,-4.57,0.21,0.52,0.78,-0.82,1.26,0.26
385,1900-01-01 20:07:38.688,14.09,-0.53,2.06,-0.01,0.24,0.97,-0.18,0.92,-1.22,33.53,12.79,-4.53,0.21,0.53,0.77,-1.76,1.38,0.2
386,1900-01-01 20:07:38.796,14.82,-1.1,2.03,-0.02,0.26,0.97,-2.57,-0.68,-1.11,33.51,12.26,-4.51,0.2,0.53,0.78,-1.01,1.18,-0.35
387,1900-01-01 20:07:38.856,12.84,-0.56,2.02,-0.01,0.22,0.97,0.31,-0.88,-0.61,32.8,13.02,-4.57,0.22,0.52,0.78,-1.02,1.51,0.09
388,1900-01-01 20:07:38.911,14.02,-0.49,2.09,-0.01,0.24,0.97,-0.65,0.83,-1.17,33.33,12.93,-4.57,0.22,0.53,0.78,-1.74,1.25,0.21
389,1900-01-01 20:07:39.026,15.14,-0.99,2.07,-0.02,0.26,0.97,-1.46,-1.45,-1.25,33.86,11.92,-4.55,0.2,0.54,0.78,-0.77,0.98,-0.23
390,1900-01-01 20:07:39.118,13.1,-0.55,2.03,-0.01,0.23,0.97,0.59,-0.41,-0.88,32.92,13.06,-4.59,0.22,0.52,0.78,-1.09,1.48,0.05
391,1900-01-01 20:07:39.141,14.29,-0.74,2.06,-0.01,0.25,0.97,-0.86,0.69,-1.15,33.34,12.84,-4.59,0.21,0.53,0.78,-1.64,1.21,0.11
392,1900-01-01 20:07:39.248,14.72,-1.05,2.04,-0.02,0.25,0.97,-2.08,-1.25,-1.17,33.86,12.02,-4.58,0.2,0.54,0.78,-1.05,1.05,-0.18
393,1900-01-01 20:07:39.355,13.45,-0.56,2.02,-0.01,0.23,0.97,0.4,-1.22,-0.73,33.35,12.63,-4.62,0.21,0.53,0.78,-0.62,1.42,-0.27
394,1900-01-01 20:07:39.377,13.4,-0.29,2.07,-0.01,0.23,0.97,-0.89,0.28,-1.16,33.22,12.91,-4.67,0.22,0.53,0.78,-1.4,1.25,0.06
395,1900-01-01 20:07:39.465,14.97,-0.72,2.05,-0.01,0.26,0.97,-1.82,-0.66,-1.14,33.83,12.22,-4.67,0.2,0.54,0.78,-0.91,1.2,-0.18
396,1900-01-01 20:07:39.547,13.49,-0.52,2.04,-0.01,0.23,0.98,0.77,-0.98,-0.74,33.64,12.42,-4.7,0.21,0.53,0.77,-1.15,1.27,0.33
397,1900-01-01 20:07:39.631,13.51,-0.29,2.09,-0.01,0.23,0.97,-0.06,0.73,-1.17,33.19,13.01,-4.66,0.22,0.53,0.77,-1.78,1.61,0.07
398,1900-01-01 20:07:39.700,13.94,-0.7,2.07,-0.01,0.24,0.97,-1.98,0.46,-1.17,33.26,12.69,-4.66,0.21,0.53,0.78,-1.4,1.11,0.05
399,1900-01-01 20:07:39.769,14.19,-0.81,2.05,-0.01,0.25,0.98,-0.29,-1.69,-0.75,33.48,12.36,-4.66,0.21,0.53,0.78,-0.5,1.1,-0.26
400,1900-01-01 20:07:39.896,13.23,-0.31,2.09,-0.01,0.23,0.98,0.44,0.38,-0.99,33.15,12.85,-4.71,0.21,0.53,0.78,-1.53,1.6,0.21
401,1900-01-01 20:07:39.896,13.87,-0.56,2.1,-0.01,0.24,0.97,-1.2,0.72,-1.15,33.44,12.86,-4.69,0.21,0.53,0.77,-1.49,1.23,0.13
402,1900-01-01 20:07:39.989,14.54,-1.0,2.08,-0.02,0.25,0.97,-1.78,-1.62,-0.97,33.96,12.03,-4.67,0.2,0.54,0.77,-0.7,1.21,-0.31
403,1900-01-01 20:07:40.078,12.86,-0.38,2.09,-0.01,0.22,0.97,0.47,-0.55,-0.7,32.97,13.05,-4.73,0.22,0.52,0.78,-1.29,1.61,0.04
404,1900-01-01 20:07:40.256,13.73,-0.38,2.15,-0.01,0.24,0.97,-1.11,0.93,-1.22,33.42,12.94,-4.73,0.22,0.53,0.77,-1.81,1.36,0.18
405,1900-01-01 20:07:40.256,14.52,-0.77,2.12,-0.01,0.25,0.97,-1.45,-0.31,-1.02,33.87,12.17,-4.72,0.2,0.54,0.77,-1.24,1.17,0.05
406,1900-01-01 20:07:40.344,14.0,-0.6,2.12,-0.01,0.24,0.98,2.56,-0.63,-0.59,33.67,12.77,-4.72,0.21,0.53,0.77,-0.91,1.41,0.08
407,1900-01-01 20:07:40.432,13.73,-0.46,2.19,-0.01,0.24,0.97,-0.08,1.18,-1.18,33.33,12.77,-4.71,0.21,0.53,0.78,-1.82,1.53,0.17
408,1900-01-01 20:07:40.432,14.33,-0.97,2.17,-0.02,0.25,0.97,-2.87,-0.27,-1.11,33.46,12.26,-4.7,0.2,0.53,0.78,-1.38,1.01,-0.14
409,1900-01-01 20:07:40.538,14.31,-0.84,2.16,-0.01,0.25,0.98,-0.95,-1.53,-1.15,33.4,12.35,-4.73,0.21,0.53,0.78,-0.62,1.11,-0.33
410,1900-01-01 20:07:40.643,13.25,-0.39,2.14,-0.01,0.23,0.97,0.73,0.0,-0.89,33.02,12.91,-4.78,0.22,0.53,0.78,-1.5,1.59,0.08
411,1900-01-01 20:07:40.681,14.27,-0.81,2.17,-0.01,0.25,0.97,-0.3,0.27,-1.15,33.4,12.55,-4.78,0.21,0.53,0.78,-1.63,1.48,0.18
412,1900-01-01 20:07:40.772,14.22,-0.77,2.15,-0.01,0.25,0.97,-0.2,0.11,-1.02,33.41,12.54,-4.76,0.21,0.53,0.78,-1.51,1.42,0.15
413,1900-01-01 20:07:40.867,14.37,-0.81,2.15,-0.01,0.25,0.97,-0.44,-0.31,-1.08,33.58,12.43,-4.75,0.21,0.53,0.78,-1.21,1.28,0.02
414,1900-01-01 20:07:40.915,14.14,-0.95,2.15,-0.02,0.24,0.97,-0.64,-0.51,-1.05,33.45,12.62,-4.75,0.21,0.53,0.78,-1.22,1.4,-0.01
415,1900-01-01 20:07:40.985,13.78,-0.73,2.14,-0.01,0.24,0.97,-1.42,0.29,-1.26,33.31,12.78,-4.76,0.21,0.53,0.78,-1.82,1.03,-0.04
416,1900-01-01 20:07:41.094,14.5,-1.24,2.11,-0.02,0.25,0.97,-3.85,-0.95,-0.85,33.42,12.06,-4.78,0.2,0.53,0.78,-3.05,1.56,-0.2
417,1900-01-01 20:07:41.184,13.15,-0.68,2.14,-0.01,0.23,0.98,-1.69,-1.35,-1.1,33.13,12.51,-4.82,0.21,0.53,0.78,-0.94,1.27,-0.54
418,1900-01-01 20:07:41.271,13.26,-0.6,2.13,-0.01,0.23,0.98,-0.74,-0.6,-1.09,32.91,12.64,-4.91,0.21,0.52,0.78,-1.16,0.85,-0.15
419,1900-01-01 20:07:41.289,13.86,-0.58,2.12,-0.01,0.24,0.98,0.5,-0.67,-1.22,33.35,12.38,-4.94,0.21,0.53,0.78,-0.75,1.27,0.21
420,1900-01-01 20:07:41.413,13.13,-0.58,2.1,-0.01,0.23,0.97,1.38,-0.05,-0.77,33.1,12.49,-4.91,0.21,0.53,0.78,-1.09,1.58,0.32
421,1900-01-01 20:07:41.500,14.15,-0.66,2.14,-0.01,0.24,0.97,0.05,0.61,-1.28,33.3,12.47,-4.87,0.21,0.53,0.78,-1.32,1.54,0.2
422,1900-01-01 20:07:41.500,14.16,-0.76,2.1,-0.01,0.24,0.97,0.02,-0.14,-0.93,33.34,12.38,-4.85,0.21,0.53,0.78,-1.08,1.4,0.08
423,1900-01-01 20:07:41.606,13.91,-0.75,2.12,-0.01,0.24,0.97,-0.3,-0.11,-1.06,33.24,12.52,-4.85,0.21,0.53,0.78,-1.11,1.35,0.03
424,1900-01-01 20:07:41.662,13.95,-0.87,2.12,-0.02,0.24,0.97,-0.41,0.11,-1.1,33.11,12.37,-4.85,0.21,0.53,0.78,-1.34,1.36,0.16
425,1900-01-01 20:07:41.755,13.97,-0.76,2.11,-0.01,0.24,0.97,-0.02,-0.32,-0.85,33.44,12.63,-4.84,0.21,0.53,0.77,-0.92,1.05,0.25
426,1900-01-01 20:07:41.801,14.35,-0.85,2.14,-0.01,0.25,0.97,0.32,0.36,-1.09,33.54,12.39,-4.81,0.21,0.53,0.77,-1.47,1.34,0.28
427,1900-01-01 20:07:41.895,13.69,-1.51,2.13,-0.03,0.23,0.96,5.25,1.52,-0.98,32.85,12.91,-4.77,0.21,0.52,0.78,2.37,0.58,2.82
428,1900-01-01 20:07:41.996,15.57,-1.91,2.14,-0.03,0.27,0.97,-0.05,1.89,-1.03,33.4,13.65,-4.36,0.22,0.52,0.76,-1.08,-0.44,0.82
429,1900-01-01 20:07:42.045,15.29,-1.4,2.14,-0.02,0.26,0.96,-0.38,1.28,-0.47,33.57,13.06,-4.24,0.22,0.53,0.77,-1.71,-1.03,-0.86
430,1900-01-01 20:07:42.131,15.28,-1.79,2.23,-0.03,0.26,0.97,-0.44,0.02,-0.73,33.78,13.44,-4.38,0.22,0.54,0.77,-0.92,0.08,-1.09
431,1900-01-01 20:07:42.178,15.38,-1.58,2.27,-0.03,0.27,0.96,0.66,0.24,-0.66,33.12,12.84,-4.55,0.22,0.53,0.79,-0.6,-0.56,1.24
432,1900-01-01 20:07:42.302,15.21,-1.61,2.33,-0.03,0.26,0.96,-0.59,-0.21,-1.45,33.92,14.35,-4.37,0.24,0.53,0.76,-0.78,1.06,-0.58
433,1900-01-01 20:07:42.339,15.36,-1.51,2.27,-0.03,0.27,0.96,-3.14,-1.98,-1.23,34.79,13.36,-4.47,0.22,0.55,0.76,-2.61,1.98,-0.44
434,1900-01-01 20:07:42.411,14.87,-1.41,2.24,-0.02,0.26,0.97,-0.56,-1.13,-0.94,33.48,13.2,-4.55,0.22,0.53,0.78,-1.27,1.89,-0.31
435,1900-01-01 20:07:42.503,15.36,-1.03,2.26,-0.02,0.27,0.97,-0.32,-0.26,-0.77,33.61,13.16,-4.6,0.22,0.53,0.77,-2.1,1.85,-0.02
436,1900-01-01 20:07:42.631,14.6,-1.0,2.3,-0.02,0.25,0.97,-0.76,-0.15,-0.88,32.87,13.75,-4.61,0.23,0.52,0.77,-3.08,2.2,-0.36
437,1900-01-01 20:07:42.631,14.18,-1.18,2.32,-0.02,0.24,0.96,-2.44,1.2,-1.13,32.25,13.51,-4.68,0.23,0.51,0.78,-1.98,2.46,-1.47
438,1900-01-01 20:07:42.747,16.05,-1.7,2.31,-0.03,0.28,0.97,-2.54,-2.6,-1.04,33.79,11.71,-4.91,0.2,0.54,0.78,-0.75,0.7,-0.39
439,1900-01-01 20:07:42.785,13.5,-0.85,2.31,-0.01,0.23,0.98,0.95,-0.68,-0.9,32.81,13.47,-4.98,0.22,0.52,0.77,-0.4,1.23,0.46
440,1900-01-01 20:07:42.879,14.86,-1.02,2.33,-0.02,0.26,0.97,1.73,1.13,-1.09,33.26,13.1,-4.91,0.22,0.53,0.77,-1.18,1.49,0.67
441,1900-01-01 20:07:42.974,15.71,-1.49,2.32,-0.03,0.27,0.96,0.71,0.49,-1.01,33.51,13.0,-4.82,0.22,0.53,0.77,-1.29,1.45,0.35
442,1900-01-01 20:07:43.018,15.31,-1.37,2.33,-0.02,0.26,0.96,-0.98,-0.51,-1.05,32.95,13.07,-4.78,0.22,0.52,0.78,-0.91,0.49,-0.46
443,1900-01-01 20:07:43.113,15.3,-1.33,2.33,-0.02,0.26,0.97,-1.03,-0.07,-1.01,33.37,13.08,-4.86,0.22,0.53,0.77,-1.27,1.35,0.05
444,1900-01-01 20:07:43.214,15.05,-1.41,2.33,-0.02,0.26,0.97,-0.46,0.42,-1.23,33.79,13.28,-4.86,0.22,0.54,0.77,-0.41,1.33,0.6
445,1900-01-01 20:07:43.309,15.77,-1.78,2.3,-0.03,0.27,0.96,-0.06,0.57,-1.08,33.67,13.03,-4.77,0.22,0.53,0.77,-1.25,1.37,0.61
446,1900-01-01 20:07:43.348,15.19,-1.64,2.3,-0.03,0.26,0.97,-1.5,-0.32,-1.37,33.82,12.81,-4.69,0.21,0.54,0.77,-1.33,1.47,-0.7
447,1900-01-01 20:07:43.395,14.83,-1.47,2.25,-0.03,0.26,0.97,-1.11,0.7,-0.99,33.73,12.73,-4.8,0.21,0.54,0.78,-2.65,0.95,0.22
448,1900-01-01 20:07:43.493,14.19,-1.37,2.26,-0.02,0.25,0.99,5.57,1.45,0.21,32.4,14.15,-4.78,0.23,0.51,0.78,-7.36,1.83,5.72
449,1900-01-01 20:07:43.546,14.75,-4.54,2.45,-0.08,0.26,0.98,7.47,1.87,-1.29,30.6,11.63,-3.92,0.21,0.53,0.87,-3.66,0.11,1.25
450,1900-01-01 20:07:43.627,17.79,-5.95,2.41,-0.11,0.33,1.02,1.89,-9.38,-3.29,27.14,12.08,-3.74,0.22,0.48,0.92,-4.94,-6.85,0.98
451,1900-01-01 20:07:43.721,14.82,-5.14,2.07,-0.09,0.27,1.0,-7.12,-14.18,-6.53,26.38,10.9,-3.6,0.2,0.47,0.93,-15.08,-20.66,-1.59
452,1900-01-01 20:07:43.779,12.03,-3.19,1.22,-0.06,0.21,1.0,-13.35,-20.2,-13.91,19.88,16.54,-3.86,0.28,0.33,0.87,-27.77,-33.01,-6.38
453,1900-01-01 20:07:43.873,12.59,1.0,-0.77,0.02,0.22,0.98,-7.76,-18.85,-23.34,20.64,21.29,-4.85,0.35,0.34,0.83,-18.59,-30.7,-18.16
454,1900-01-01 20:07:43.964,12.71,4.05,-4.23,0.07,0.22,0.96,-11.6,-20.3,-27.63,22.07,24.53,-7.67,0.39,0.36,0.79,-23.01,-31.85,-19.66
455,1900-01-01 20:07:44.048,11.28,8.51,-8.36,0.14,0.19,0.93,-7.29,-20.79,-29.36,22.22,29.6,-10.73,0.46,0.35,0.73,-16.86,-35.23,-24.66
456,1900-01-01 20:07:44.095,10.78,12.48,-12.76,0.21,0.18,0.91,-7.35,-20.92,-31.57,23.04,33.32,-14.57,0.5,0.36,0.68,-21.22,-42.28,-30.03
457,1900-01-01 20:07:44.188,11.31,13.26,-17.52,0.22,0.19,0.93,-6.02,-18.51,-31.08,24.61,38.43,-19.26,0.58,0.39,0.62,-23.34,-49.23,-34.71
458,1900-01-01 20:07:44.331,11.74,16.69,-22.21,0.28,0.2,0.92,-1.34,-14.8,-29.89,26.11,45.1,-24.68,0.64,0.4,0.5,-14.83,-34.93,-45.62
459,1900-01-01 20:07:44.331,12.75,17.8,-26.71,0.3,0.22,0.91,10.72,-8.82,-25.89,34.11,39.26,-31.8,0.6,0.53,0.5,-11.02,-13.21,-46.21
460,1900-01-01 20:07:44.422,21.32,17.21,-30.58,0.3,0.37,0.91,9.56,-2.37,-16.46,42.83,31.81,-38.99,0.5,0.65,0.49,0.97,10.6,-22.25
461,1900-01-01 20:07:44.476,20.26,15.98,-32.95,0.27,0.34,0.89,0.55,5.78,-3.73,38.95,29.79,-42.43,0.5,0.64,0.6,-13.44,6.08,-8.5
462,1900-01-01 20:07:44.583,13.43,12.92,-33.37,0.23,0.24,0.99,-2.89,2.0,-2.85,29.6,33.57,-43.75,0.59,0.53,0.71,-6.34,0.08,-6.4
463,1900-01-01 20:07:44.656,16.63,12.65,-33.65,0.23,0.3,0.98,0.67,-1.85,-2.15,33.67,33.47,-44.74,0.55,0.56,0.62,3.73,2.5,-5.14
464,1900-01-01 20:07:44.703,12.75,14.3,-33.82,0.25,0.22,0.95,-0.27,0.71,-4.02,31.07,36.91,-45.53,0.56,0.48,0.57,8.67,12.79,-9.76
465,1900-01-01 20:07:44.828,16.89,12.36,-34.28,0.22,0.3,0.95,5.73,-0.1,-5.93,37.14,28.81,-47.04,0.49,0.61,0.64,11.49,8.81,-1.87
466,1900-01-01 20:07:44.860,18.94,13.27,-35.03,0.23,0.33,0.92,3.73,0.41,-4.14,39.0,27.66,-47.34,0.45,0.61,0.61,3.69,6.76,-2.6
467,1900-01-01 20:07:44.937,18.44,12.45,-35.5,0.22,0.32,0.95,1.66,-0.97,-4.09,39.8,27.57,-47.74,0.47,0.65,0.62,2.69,1.6,0.16
468,1900-01-01 20:07:45.029,18.5,12.56,-35.97,0.23,0.33,0.96,1.29,-3.39,-2.91,37.62,29.22,-47.72,0.49,0.62,0.63,-0.43,0.2,0.0
469,1900-01-01 20:07:45.122,17.93,13.57,-36.26,0.24,0.31,0.94,0.59,-5.22,-3.9,37.77,30.84,-47.73,0.5,0.59,0.58,0.34,-2.12,0.5
470,1900-01-01 20:07:45.169,22.7,12.41,-36.7,0.22,0.4,0.92,1.7,-3.11,-3.37,42.3,25.14,-47.67,0.43,0.68,0.61,0.94,-4.47,7.13
471,1900-01-01 20:07:45.327,20.12,13.31,-37.05,0.23,0.34,0.91,1.32,-3.99,-0.83,39.38,28.59,-46.58,0.46,0.62,0.59,5.14,-0.66,1.01
472,1900-01-01 20:07:45.327,20.57,14.0,-37.02,0.24,0.35,0.9,1.79,-3.01,0.6,40.59,29.27,-46.44,0.47,0.63,0.56,5.25,0.1,0.12
473,1900-01-01 20:07:45.405,21.78,13.6,-36.77,0.24,0.37,0.91,-0.89,-3.4,2.47,40.7,30.3,-46.43,0.48,0.62,0.54,4.08,-3.8,5.07
474,1900-01-01 20:07:45.498,20.81,14.89,-36.24,0.26,0.35,0.9,0.06,-1.24,3.27,41.82,32.44,-45.66,0.52,0.64,0.5,3.37,-1.61,8.02
475,1900-01-01 20:07:45.550,19.91,15.84,-35.58,0.28,0.34,0.91,-0.53,-0.15,3.85,40.06,33.84,-44.44,0.55,0.63,0.52,5.58,0.02,7.22
476,1900-01-01 20:07:45.639,19.94,16.42,-34.83,0.28,0.34,0.9,-0.47,0.11,4.53,41.27,34.73,-43.34,0.55,0.63,0.47,3.34,3.84,6.6
477,1900-01-01 20:07:45.734,19.02,16.82,-33.98,0.29,0.32,0.9,-1.28,2.05,4.64,37.77,36.59,-42.35,0.57,0.58,0.49,1.37,4.98,3.63
478,1900-01-01 20:07:45.781,20.35,15.69,-33.11,0.27,0.34,0.88,-1.81,2.92,3.98,40.24,34.84,-41.8,0.54,0.61,0.48,-0.99,2.9,6.49
479,1900-01-01 20:07:45.875,17.29,14.7,-32.35,0.25,0.29,0.9,-1.02,3.31,2.23,34.4,38.02,-40.82,0.59,0.54,0.52,0.56,0.16,5.42
480,1900-01-01 20:07:45.922,17.75,15.17,-31.85,0.26,0.3,0.91,-0.08,1.31,-2.31,37.44,38.27,-40.0,0.6,0.59,0.48,1.26,-3.76,3.15
481,1900-01-01 20:07:46.036,18.52,14.68,-32.04,0.26,0.33,0.95,-0.27,1.02,-2.82,35.64,40.49,-39.53,0.65,0.59,0.49,-1.15,-1.15,2.4
482,1900-01-01 20:07:46.109,19.42,15.1,-32.32,0.26,0.34,0.92,0.68,1.52,-3.16,38.29,37.91,-39.17,0.61,0.62,0.49,-1.24,-3.59,1.78
483,1900-01-01 20:07:46.156,18.57,14.01,-32.64,0.25,0.32,0.93,-2.98,2.24,-3.81,35.94,40.6,-38.9,0.64,0.57,0.47,-4.51,-0.65,-1.36
484,1900-01-01 20:07:46.247,19.1,12.7,-33.07,0.23,0.34,0.96,-2.62,2.79,-3.85,36.73,39.34,-39.12,0.65,0.62,0.51,-5.93,5.16,3.22
485,1900-01-01 20:07:46.340,18.35,13.69,-33.5,0.24,0.32,0.94,0.06,3.74,-3.77,38.25,38.17,-38.63,0.63,0.63,0.5,-2.16,8.85,-0.13
486,1900-01-01 20:07:46.389,19.29,13.8,-33.92,0.23,0.32,0.9,-0.08,1.51,-2.63,37.11,34.76,-38.66,0.56,0.59,0.55,0.76,4.28,-4.8
487,1900-01-01 20:07:46.483,19.8,12.28,-34.17,0.21,0.33,0.91,-3.62,1.92,-1.02,37.88,36.3,-39.41,0.57,0.59,0.5,-3.67,4.65,-2.15
488,1900-01-01 20:07:46.576,19.23,11.66,-34.16,0.21,0.33,0.94,-2.11,2.24,-1.08,36.52,37.02,-39.75,0.6,0.59,0.53,-4.85,5.98,-0.68
489,1900-01-01 20:07:46.623,19.06,11.71,-34.17,0.21,0.34,0.96,0.47,1.02,-1.68,37.64,35.31,-39.86,0.6,0.63,0.56,-0.6,3.95,-1.05
490,1900-01-01 20:07:46.718,19.49,11.32,-34.27,0.2,0.34,0.94,2.23,0.02,-0.4,38.78,33.71,-40.03,0.56,0.63,0.55,0.02,3.05,-2.95
491,1900-01-01 20:07:46.815,19.14,10.81,-34.17,0.19,0.33,0.93,-1.48,-0.25,0.25,37.22,34.23,-40.49,0.55,0.59,0.55,-2.04,3.39,-1.38
492,1900-01-01 20:07:46.857,19.05,10.53,-33.98,0.18,0.33,0.93,-0.39,-0.15,-0.38,36.98,34.49,-40.71,0.56,0.59,0.55,-1.16,3.66,-0.83
493,1900-01-01 20:07:46.950,18.39,11.6,-33.88,0.21,0.33,0.96,-2.06,-1.11,-1.12,35.81,35.23,-40.84,0.6,0.6,0.59,-4.02,3.22,0.78
494,1900-01-01 20:07:46.997,17.36,13.19,-33.89,0.23,0.31,0.95,0.87,-5.44,-2.93,35.54,36.3,-40.73,0.6,0.59,0.56,1.34,-2.14,-6.82
495,1900-01-01 20:07:47.120,21.2,13.46,-34.18,0.24,0.38,0.95,5.69,-6.53,-1.78,41.46,32.43,-41.79,0.55,0.67,0.53,5.45,1.74,-5.34
496,1900-01-01 20:07:47.150,21.77,12.16,-34.3,0.21,0.38,0.92,1.28,-4.34,1.14,41.34,30.29,-42.61,0.5,0.65,0.55,0.23,-0.63,0.21
497,1900-01-01 20:07:47.231,19.9,11.52,-33.96,0.19,0.33,0.89,-1.66,-4.37,-0.05,39.66,31.62,-42.59,0.5,0.61,0.54,-0.21,-3.45,1.8
498,1900-01-01 20:07:47.388,19.64,14.63,-33.81,0.25,0.33,0.9,-1.46,-5.63,-1.54,39.2,34.94,-42.32,0.55,0.61,0.5,0.22,-2.44,-0.56
499,1900-01-01 20:07:47.415,20.02,15.81,-33.89,0.28,0.35,0.91,-2.04,-3.95,-1.83,40.62,34.84,-42.42,0.56,0.64,0.49,-2.56,-3.2,1.3
500,1900-01-01 20:07:47.485,19.31,16.76,-34.01,0.29,0.33,0.9,0.98,-3.58,-2.43,40.74,33.8,-42.23,0.54,0.63,0.5,2.88,-0.66,-2.76
501,1900-01-01 20:07:47.570,22.57,15.38,-34.23,0.26,0.37,0.85,0.58,0.25,-1.26,44.39,30.77,-42.66,0.48,0.66,0.47,1.49,0.44,0.05
502,1900-01-01 20:07:47.652,20.38,14.52,-34.26,0.25,0.34,0.89,-4.47,2.02,0.37,39.81,34.86,-42.66,0.54,0.61,0.49,-3.0,0.85,4.23
503,1900-01-01 20:07:47.699,19.89,14.31,-34.05,0.24,0.33,0.89,-0.47,2.92,-0.69,40.62,34.64,-42.02,0.54,0.62,0.48,0.01,2.13,2.47
504,1900-01-01 20:07:47.792,19.29,15.69,-33.99,0.27,0.34,0.92,-2.36,2.74,-1.27,39.67,36.44,-41.65,0.59,0.64,0.49,-2.85,0.64,4.07
505,1900-01-01 20:07:47.838,19.24,14.66,-34.03,0.26,0.34,0.94,-1.11,1.48,-0.81,38.53,36.95,-41.04,0.6,0.62,0.5,-2.56,1.55,2.0
506,1900-01-01 20:07:47.934,19.52,14.7,-34.0,0.25,0.33,0.91,0.27,2.58,-1.0,40.11,36.47,-40.74,0.57,0.62,0.46,-2.08,2.38,0.47
507,1900-01-01 20:07:48.026,19.26,13.74,-33.99,0.24,0.33,0.91,-2.11,3.85,-0.73,37.72,36.73,-40.68,0.58,0.6,0.5,-4.93,3.21,1.76
508,1900-01-01 20:07:48.074,18.58,12.9,-33.94,0.23,0.32,0.94,-0.7,3.44,-1.38,37.68,36.87,-40.42,0.61,0.62,0.52,-3.41,3.41,2.45
509,1900-01-01 20:07:48.168,19.05,12.98,-34.0,0.23,0.33,0.94,0.32,1.49,-1.34,38.36,36.28,-40.05,0.59,0.62,0.51,-2.71,4.79,0.15
510,1900-01-01 20:07:48.266,19.6,12.78,-34.04,0.22,0.34,0.92,-1.53,3.91,-0.45,37.3,35.4,-40.03,0.57,0.6,0.54,-4.19,4.88,0.74
511,1900-01-01 20:07:48.373,18.7,11.51,-33.95,0.2,0.33,0.94,-1.02,1.71,-1.26,35.77,36.64,-39.93,0.59,0.57,0.54,-3.49,3.89,0.08
512,1900-01-01 20:07:48.401,19.91,11.98,-33.99,0.21,0.35,0.94,0.97,1.32,-1.55,37.86,34.93,-39.93,0.58,0.62,0.55,-1.47,3.07,-0.37
513,1900-01-01 20:07:48.448,19.56,11.53,-34.07,0.21,0.35,0.95,0.65,0.76,-0.6,37.28,35.3,-39.99,0.58,0.61,0.55,-1.33,1.86,1.21
514,1900-01-01 20:07:48.565,19.6,11.02,-34.0,0.2,0.34,0.94,-0.06,0.44,-0.8,37.58,34.68,-39.81,0.56,0.61,0.55,-0.98,1.44,2.22
515,1900-01-01 20:07:48.633,19.81,10.78,-33.96,0.19,0.35,0.94,-1.53,-0.5,0.24,35.2,36.52,-39.48,0.58,0.56,0.55,-5.74,7.93,0.71
516,1900-01-01 20:07:48.680,20.01,11.52,-33.77,0.2,0.34,0.9,1.51,-0.09,-2.23,37.69,34.16,-39.38,0.54,0.58,0.53,0.48,-1.04,-2.66
517,1900-01-01 20:07:48.775,18.45,10.51,-33.95,0.18,0.32,0.94,-1.35,1.03,-1.95,37.55,34.57,-39.8,0.57,0.61,0.55,1.45,0.06,-1.89
518,1900-01-01 20:07:48.869,19.82,10.7,-34.09,0.19,0.35,0.94,-0.35,0.13,-1.62,37.02,34.75,-40.1,0.57,0.6,0.56,-0.56,2.35,-0.15
519,1900-01-01 20:07:48.916,19.7,10.95,-34.18,0.19,0.34,0.94,-0.92,0.44,-1.13,37.02,34.84,-40.13,0.57,0.6,0.55,-1.99,2.26,0.2
520,1900-01-01 20:07:49.009,19.38,10.52,-34.2,0.19,0.34,0.94,-2.4,0.67,-1.37,36.58,34.98,-40.11,0.57,0.6,0.56,-4.37,1.92,1.65
521,1900-01-01 20:07:49.104,19.7,9.78,-34.25,0.17,0.35,0.95,-1.5,-1.12,-1.22,36.32,34.3,-39.86,0.57,0.6,0.58,-4.09,3.36,1.95
522,1900-01-01 20:07:49.152,18.8,10.69,-34.28,0.18,0.32,0.92,0.3,-1.73,-2.38,35.66,34.43,-39.57,0.55,0.56,0.56,-1.73,2.37,-3.24
523,1900-01-01 20:07:49.244,19.54,11.23,-34.48,0.2,0.34,0.93,-2.17,-1.66,-3.1,36.03,34.6,-40.08,0.56,0.58,0.57,-3.24,-0.53,-1.92
524,1900-01-01 20:07:49.402,20.65,11.03,-34.8,0.19,0.35,0.92,-0.11,-1.06,-2.67,38.21,32.87,-40.38,0.53,0.61,0.56,-2.05,0.48,-1.67
525,1900-01-01 20:07:49.402,19.37,10.5,-35.06,0.18,0.33,0.93,-0.39,-1.01,-2.06,36.55,33.33,-40.65,0.55,0.59,0.58,-1.97,-0.16,-1.11
526,1900-01-01 20:07:49.476,19.19,11.19,-35.22,0.19,0.33,0.93,-0.15,-2.28,-2.35,37.37,34.21,-40.83,0.55,0.6,0.55,-0.72,-0.24,-1.34
527,1900-01-01 20:07:49.606,19.79,11.57,-35.42,0.2,0.34,0.92,-0.48,-1.01,-2.16,37.37,34.03,-41.04,0.55,0.59,0.55,-1.99,0.34,-1.31
528,1900-01-01 20:07:49.606,19.67,11.32,-35.59,0.2,0.34,0.93,-0.16,-1.27,-1.7,37.63,33.78,-41.25,0.54,0.6,0.55,-0.52,1.08,-1.26
529,1900-01-01 20:07:49.714,20.36,11.25,-35.7,0.2,0.35,0.92,-0.26,0.03,-1.17,38.07,33.3,-41.45,0.53,0.6,0.55,-1.22,1.02,-0.47
530,1900-01-01 20:07:49.759,19.55,10.95,-35.72,0.19,0.34,0.93,-0.82,0.48,-0.98,37.28,33.61,-41.53,0.54,0.6,0.56,-1.76,2.08,0.38
531,1900-01-01 20:07:49.854,20.03,11.34,-35.71,0.2,0.35,0.93,-0.45,-0.05,-0.87,37.69,33.64,-41.48,0.54,0.6,0.55,-1.34,1.6,-0.25
532,1900-01-01 20:07:49.944,19.97,11.49,-35.68,0.2,0.34,0.91,-0.02,0.66,-0.63,37.69,33.46,-41.53,0.53,0.59,0.55,-1.63,2.08,0.11
533,1900-01-01 20:07:49.990,19.81,10.79,-35.62,0.19,0.34,0.92,-0.69,0.81,-0.76,37.41,33.24,-41.52,0.54,0.6,0.57,-2.05,2.03,0.16
534,1900-01-01 20:07:50.085,19.84,10.98,-35.58,0.19,0.34,0.93,0.05,0.02,-0.82,36.79,33.71,-41.5,0.55,0.59,0.57,-0.95,1.59,-0.44
535,1900-01-01 20:07:50.204,20.52,11.02,-35.55,0.19,0.36,0.93,0.15,0.11,-0.78,38.03,32.81,-41.58,0.53,0.61,0.56,-0.91,1.7,-0.05
536,1900-01-01 20:07:50.241,19.59,10.79,-35.51,0.19,0.34,0.93,-0.36,0.74,-0.84,37.09,33.48,-41.6,0.54,0.6,0.57,-1.37,1.81,-0.28
537,1900-01-01 20:07:50.416,20.26,11.02,-35.48,0.19,0.35,0.93,-1.18,0.75,-0.46,37.9,32.95,-41.65,0.54,0.61,0.56,-2.15,1.79,-0.32
538,1900-01-01 20:07:50.445,20.08,10.66,-35.39,0.19,0.34,0.92,-0.85,0.57,-0.53,37.74,33.1,-41.7,0.53,0.6,0.56,-0.61,2.6,-0.61
539,1900-01-01 20:07:50.490,19.85,10.6,-35.31,0.19,0.34,0.93,-1.17,1.44,-0.07,37.17,32.96,-41.81,0.54,0.6,0.58,-2.37,2.46,1.22
540,1900-01-01 20:07:50.521,19.76,10.73,-35.16,0.19,0.34,0.93,0.08,0.05,-0.37,37.46,33.17,-41.63,0.54,0.6,0.57,-0.66,2.17,0.31
541,1900-01-01 20:07:50.645,20.0,10.64,-35.06,0.19,0.34,0.92,-0.08,-0.19,0.08,37.46,33.3,-41.59,0.54,0.6,0.56,-1.31,2.1,0.63
542,1900-01-01 20:07:50.691,20.38,11.04,-34.89,0.19,0.35,0.93,0.41,-0.5,0.27,38.35,32.36,-41.5,0.53,0.61,0.57,-0.17,2.11,1.24
543,1900-01-01 20:07:50.785,19.34,10.69,-34.69,0.19,0.33,0.93,0.33,0.0,0.32,37.25,32.97,-41.32,0.54,0.6,0.57,0.14,1.91,1.15
544,1900-01-01 20:07:50.833,20.04,11.16,-34.48,0.2,0.35,0.93,-0.31,-0.24,0.82,37.08,33.67,-41.15,0.55,0.6,0.57,-0.18,2.05,1.05
545,1900-01-01 20:07:50.925,20.16,10.75,-34.2,0.19,0.35,0.92,0.08,-0.11,1.14,37.52,32.61,-41.0,0.53,0.6,0.57,0.35,2.03,1.6
546,1900-01-01 20:07:51.017,20.2,10.1,-33.87,0.18,0.35,0.94,-0.09,-0.51,1.33,36.67,33.26,-40.77,0.54,0.59,0.58,0.06,2.02,2.08
547,1900-01-01 20:07:51.063,20.31,11.51,-33.51,0.2,0.35,0.93,0.09,-1.2,0.96,38.11,33.13,-40.46,0.54,0.61,0.56,0.66,1.88,1.75
548,1900-01-01 20:07:51.157,20.49,11.36,-33.2,0.2,0.35,0.92,-0.73,-0.28,1.31,36.71,33.8,-40.2,0.54,0.58,0.56,-0.56,2.05,1.69
549,1900-01-01 20:07:51.239,19.81,10.91,-32.84,0.19,0.34,0.94,-1.27,0.05,0.79,36.12,34.14,-39.95,0.56,0.58,0.58,-0.31,1.63,2.07
550,1900-01-01 20:07:51.291,20.17,11.78,-32.56,0.21,0.35,0.93,-0.76,-1.59,0.89,36.82,34.33,-39.64,0.55,0.59,0.56,-0.81,2.28,1.6
551,1900-01-01 20:07:51.413,20.32,11.65,-32.27,0.2,0.35,0.91,-0.7,-2.14,1.21,37.46,33.4,-39.4,0.53,0.59,0.55,-0.58,2.07,1.7
552,1900-01-01 20:07:51.530,19.89,11.94,-31.93,0.21,0.34,0.91,-0.77,-0.34,1.06,36.77,33.74,-39.15,0.54,0.58,0.56,-0.47,1.6,2.37
553,1900-01-01 20:07:51.555,19.64,11.98,-31.61,0.21,0.34,0.93,-0.55,-0.47,0.87,35.71,34.54,-38.8,0.56,0.58,0.57,-1.31,1.5,1.47
554,1900-01-01 20:07:51.626,19.62,12.15,-31.31,0.21,0.34,0.93,-0.92,0.27,0.63,36.02,34.75,-38.58,0.56,0.58,0.56,-1.25,2.11,1.64
555,1900-01-01 20:07:51.683,19.53,11.55,-31.06,0.2,0.34,0.93,-0.73,0.45,0.11,36.28,34.07,-38.34,0.55,0.58,0.57,-0.25,1.96,1.4
556,1900-01-01 20:07:51.765,19.55,11.84,-30.88,0.21,0.34,0.92,-0.82,0.16,0.12,35.73,34.67,-38.13,0.55,0.57,0.56,-1.27,2.15,1.02
557,1900-01-01 20:07:51.866,19.59,11.81,-30.71,0.21,0.34,0.92,-0.78,0.58,-0.75,35.99,34.55,-37.98,0.55,0.57,0.56,-0.93,1.76,0.53
558,1900-01-01 20:07:51.905,19.8,11.81,-30.66,0.21,0.34,0.92,-0.77,0.41,-0.79,35.78,34.62,-37.91,0.55,0.57,0.56,-1.48,1.84,0.56
559,1900-01-01 20:07:51.998,19.3,11.47,-30.63,0.2,0.33,0.91,-0.95,1.61,-1.81,35.48,34.94,-37.83,0.55,0.56,0.55,-1.77,2.01,0.11
560,1900-01-01 20:07:52.134,19.79,11.33,-30.74,0.2,0.34,0.93,-1.65,1.5,-2.61,36.47,34.07,-37.83,0.55,0.59,0.57,-2.59,2.42,0.43
561,1900-01-01 20:07:52.134,19.26,11.51,-30.99,0.2,0.33,0.93,-1.11,2.5,-2.31,36.19,34.53,-37.77,0.56,0.58,0.57,-3.83,4.34,-0.27
562,1900-01-01 20:07:52.232,19.01,11.07,-31.18,0.2,0.34,0.96,-1.23,2.92,-2.21,35.01,34.54,-37.82,0.57,0.58,0.6,-3.18,3.43,-0.29
563,1900-01-01 20:07:52.298,19.39,10.69,-31.36,0.19,0.33,0.93,-1.26,2.04,-2.45,34.35,34.37,-37.87,0.54,0.54,0.58,-3.4,3.47,-1.92
564,1900-01-01 20:07:52.430,19.37,9.03,-31.58,0.16,0.33,0.92,-2.14,1.13,-4.1,35.2,32.35,-38.18,0.52,0.56,0.6,-0.27,-0.52,-2.65
565,1900-01-01 20:07:52.466,19.06,9.33,-32.05,0.16,0.33,0.93,0.16,-0.45,-4.5,36.32,33.12,-38.59,0.53,0.58,0.58,2.02,1.16,-1.83
566,1900-01-01 20:07:52.510,19.68,9.61,-32.58,0.17,0.34,0.95,-0.66,0.18,-3.63,36.51,33.57,-38.88,0.56,0.6,0.59,-1.41,0.63,-1.13
567,1900-01-01 20:07:52.606,18.9,9.08,-32.98,0.16,0.33,0.96,-1.05,-1.05,-2.98,35.11,33.44,-39.06,0.56,0.58,0.61,-1.46,0.7,-1.79
568,1900-01-01 20:07:52.698,19.48,9.36,-33.28,0.17,0.34,0.95,0.22,-2.07,-3.21,36.52,33.14,-39.34,0.54,0.59,0.58,-2.1,-1.97,-3.37
569,1900-01-01 20:07:52.743,20.55,9.02,-33.61,0.16,0.35,0.93,-0.11,-1.34,-2.79,38.48,32.09,-39.87,0.52,0.61,0.56,-0.56,-0.37,-1.25
570,1900-01-01 20:07:52.837,19.98,8.64,-33.88,0.15,0.35,0.94,-1.44,-0.85,-2.33,36.08,32.91,-40.07,0.54,0.58,0.59,-0.99,-0.29,-2.78
571,1900-01-01 20:07:52.930,19.74,9.37,-34.08,0.16,0.34,0.94,-0.26,-1.36,-2.46,37.97,33.21,-40.51,0.54,0.6,0.56,-2.8,0.33,-1.46
572,1900-01-01 20:07:52.977,20.26,10.08,-34.3,0.18,0.35,0.93,0.34,-1.88,-2.69,37.31,32.54,-40.74,0.52,0.59,0.57,-1.05,0.33,-2.82
573,1900-01-01 20:07:53.071,20.18,9.92,-34.56,0.17,0.35,0.93,-0.05,-0.98,-1.59,39.06,32.71,-41.18,0.53,0.62,0.54,-1.49,2.72,-0.17
574,1900-01-01 20:07:53.181,20.54,9.09,-34.64,0.16,0.37,0.96,-1.48,-1.39,-0.59,35.88,33.07,-41.21,0.55,0.59,0.6,-4.31,4.01,-1.31
575,1900-01-01 20:07:53.212,21.46,10.05,-34.57,0.17,0.35,0.88,1.91,0.06,-1.92,41.15,30.5,-41.42,0.48,0.62,0.52,-0.6,-1.81,-1.28
576,1900-01-01 20:07:53.304,19.19,9.22,-34.71,0.16,0.33,0.94,-1.73,1.07,-1.66,35.85,33.03,-41.63,0.55,0.59,0.6,-1.7,1.52,1.07
577,1900-01-01 20:07:53.432,20.58,10.04,-34.8,0.18,0.36,0.93,0.23,-1.54,-1.27,38.01,32.06,-41.47,0.52,0.61,0.57,0.04,0.86,-0.68
578,1900-01-01 20:07:53.456,20.5,10.78,-34.84,0.19,0.35,0.93,-0.92,-0.25,-0.76,38.11,33.4,-41.59,0.54,0.61,0.55,-2.5,0.24,0.35
579,1900-01-01 20:07:53.550,20.26,12.0,-34.8,0.22,0.36,0.96,-2.93,-2.2,-1.74,36.15,36.51,-41.54,0.61,0.61,0.56,-7.31,-4.7,-0.9
580,1900-01-01 20:07:53.587,19.28,12.52,-34.91,0.22,0.34,0.93,1.33,-3.15,-5.27,37.86,35.3,-41.69,0.57,0.6,0.53,-3.11,-2.27,-6.04
581,1900-01-01 20:07:53.680,20.99,10.08,-35.56,0.17,0.36,0.91,-4.4,-0.27,-5.31,39.08,30.79,-42.63,0.5,0.61,0.57,-5.87,-3.06,0.61
582,1900-01-01 20:07:53.774,17.12,7.56,-36.22,0.13,0.29,0.93,-8.23,-1.28,-4.66,32.28,33.46,-42.54,0.52,0.51,0.61,-9.19,2.03,-5.66
583,1900-01-01 20:07:53.821,20.28,5.61,-36.77,0.1,0.35,0.95,-0.15,-1.42,-3.2,39.22,27.0,-43.42,0.45,0.63,0.63,-2.98,0.42,-1.62
584,1900-01-01 20:07:53.913,16.44,9.1,-37.1,0.16,0.28,0.95,-4.28,0.09,-1.76,34.14,33.36,-43.68,0.53,0.54,0.6,-6.11,-0.31,0.5
585,1900-01-01 20:07:54.006,16.95,9.07,-37.22,0.16,0.29,0.95,-0.71,1.95,-0.85,34.74,31.24,-43.61,0.51,0.56,0.62,-2.1,6.2,-2.42
586,1900-01-01 20:07:54.055,19.83,5.91,-37.19,0.1,0.34,0.95,1.84,1.15,0.92,36.94,28.58,-43.99,0.46,0.58,0.62,6.35,9.72,-0.02
587,1900-01-01 20:07:54.149,19.91,6.25,-36.89,0.11,0.33,0.91,5.92,0.41,3.58,37.4,27.35,-44.0,0.45,0.6,0.64,5.55,5.42,0.81
588,1900-01-01 20:07:54.198,18.5,9.51,-36.19,0.16,0.31,0.91,-0.25,-1.02,2.19,36.33,30.52,-43.88,0.49,0.57,0.6,-4.47,0.78,2.44
589,1900-01-01 20:07:54.289,18.72,11.83,-35.69,0.21,0.33,0.96,0.16,-1.83,0.83,36.16,34.71,-43.52,0.56,0.58,0.56,-1.36,2.18,-1.17
590,1900-01-01 20:07:54.433,21.24,11.57,-35.41,0.21,0.38,0.95,9.12,-0.42,2.76,40.96,28.61,-43.71,0.51,0.69,0.62,5.79,-1.55,-1.24
591,1900-01-01 20:07:54.433,18.76,10.23,-34.83,0.18,0.32,0.92,1.26,-2.63,4.37,35.96,30.84,-43.9,0.5,0.57,0.61,3.0,2.45,1.76
592,1900-01-01 20:07:54.525,21.99,12.08,-34.0,0.21,0.37,0.9,0.28,-3.23,4.4,38.29,31.03,-43.64,0.48,0.58,0.56,-1.63,0.6,4.21
593,1900-01-01 20:07:54.618,20.6,13.31,-33.17,0.23,0.35,0.91,-0.02,-0.74,2.98,36.36,33.79,-43.01,0.54,0.58,0.57,-0.75,0.65,1.92
594,1900-01-01 20:07:54.666,19.67,12.42,-32.56,0.22,0.34,0.94,-1.8,-0.53,0.73,35.32,36.36,-42.72,0.58,0.57,0.55,0.04,0.83,2.66
595,1900-01-01 20:07:54.759,19.99,13.78,-32.29,0.24,0.35,0.92,-3.22,0.58,-2.09,36.8,35.67,-42.33,0.57,0.59,0.54,2.27,-2.93,2.05
596,1900-01-01 20:07:54.806,19.94,13.63,-32.45,0.24,0.35,0.93,-1.48,1.1,-3.96,38.6,33.51,-42.02,0.55,0.63,0.55,3.18,-2.14,-2.5
597,1900-01-01 20:07:54.917,19.17,12.89,-32.9,0.22,0.33,0.92,-0.56,0.95,-3.37,38.08,34.13,-42.41,0.55,0.6,0.54,0.11,-1.25,-3.15
598,1900-01-01 20:07:54.995,23.28,8.75,-33.26,0.15,0.4,0.92,0.99,0.14,-3.4,41.58,29.47,-42.9,0.48,0.65,0.55,1.98,-7.63,-1.11
599,1900-01-01 20:07:55.041,21.72,8.91,-33.62,0.15,0.36,0.9,0.05,-0.44,-1.22,40.44,32.19,-43.08,0.51,0.62,0.52,3.63,-7.47,-0.18
600,1900-01-01 20:07:55.134,20.22,11.0,-33.65,0.19,0.35,0.92,1.56,0.58,-1.9,38.62,35.28,-43.12,0.57,0.61,0.52,5.05,-5.08,-5.78
601,1900-01-01 20:07:55.240,21.16,10.5,-33.78,0.19,0.38,0.96,3.15,-1.84,-1.54,40.67,35.07,-44.01,0.58,0.66,0.5,4.59,1.64,-3.14
602,1900-01-01 20:07:55.275,21.95,12.25,-33.86,0.22,0.38,0.92,6.32,-1.76,-0.53,42.44,32.21,-44.5,0.52,0.66,0.5,2.03,7.05,-6.33
603,1900-01-01 20:07:55.446,23.38,10.65,-33.78,0.18,0.39,0.89,-3.61,-0.52,-0.31,41.05,35.17,-45.48,0.52,0.6,0.44,-4.41,3.86,-1.75
604,1900-01-01 20:07:55.446,23.34,10.96,-33.67,0.19,0.4,0.9,-2.63,3.4,-0.84,44.54,30.44,-45.76,0.51,0.71,0.51,-2.91,2.7,4.32
605,1900-01-01 20:07:55.544,21.72,10.76,-33.64,0.19,0.38,0.93,-5.33,0.96,-0.53,41.41,33.34,-45.1,0.54,0.65,0.5,-4.74,1.66,4.01
606,1900-01-01 20:07:55.572,21.91,10.47,-33.56,0.18,0.38,0.92,-1.22,0.5,-0.59,42.48,32.12,-44.5,0.53,0.67,0.51,-4.19,2.08,1.4
607,1900-01-01 20:07:55.703,21.53,10.78,-33.49,0.19,0.37,0.91,-1.34,-0.24,-1.4,40.8,32.86,-44.29,0.52,0.63,0.51,-7.67,4.63,-0.27
608,1900-01-01 20:07:55.739,21.48,10.65,-33.55,0.19,0.37,0.92,-7.03,-1.14,-1.33,39.22,32.74,-44.34,0.53,0.62,0.55,-10.55,3.27,3.11
609,1900-01-01 20:07:55.834,20.8,10.61,-33.6,0.19,0.36,0.94,-2.79,-0.15,-1.3,39.89,33.09,-43.87,0.55,0.64,0.54,-3.82,3.56,1.6
610,1900-01-01 20:07:55.880,19.15,10.79,-33.64,0.19,0.33,0.93,-3.69,0.02,-0.21,38.15,33.63,-43.64,0.54,0.61,0.55,-6.95,1.46,3.98
611,1900-01-01 20:07:55.974,18.79,10.41,-33.51,0.18,0.32,0.92,-1.64,-0.08,-1.4,36.59,33.04,-43.03,0.53,0.58,0.57,-4.26,1.82,1.19
612,1900-01-01 20:07:56.066,18.7,10.28,-33.57,0.18,0.32,0.93,-1.86,-0.15,-1.73,35.56,33.06,-42.86,0.53,0.57,0.59,-3.66,2.79,-0.24
613,1900-01-01 20:07:56.115,18.92,10.14,-33.67,0.18,0.33,0.94,-2.36,-1.41,-1.73,34.99,33.29,-42.9,0.54,0.56,0.6,-3.84,0.65,0.54
614,1900-01-01 20:07:56.207,19.22,10.42,-33.78,0.18,0.33,0.93,-1.63,-1.71,-2.21,36.75,33.18,-42.83,0.53,0.58,0.57,-3.17,0.52,0.6
615,1900-01-01 20:07:56.320,19.07,10.29,-33.96,0.18,0.33,0.94,-2.89,-1.11,-2.01,35.35,33.33,-42.75,0.54,0.57,0.59,-6.63,2.14,0.46
616,1900-01-01 20:07:56.352,18.69,10.71,-34.11,0.19,0.32,0.94,-1.46,-1.59,-2.53,35.91,33.26,-42.68,0.53,0.57,0.57,-15.42,5.61,-4.37
617,1900-01-01 20:07:56.474,19.53,11.54,-34.34,0.2,0.34,0.92,-3.9,-1.69,-1.93,34.81,30.94,-43.37,0.5,0.56,0.63,-11.91,7.4,-6.24
618,1900-01-01 20:07:56.500,19.13,11.27,-34.48,0.2,0.33,0.94,0.09,-1.02,-0.62,32.75,31.18,-44.34,0.51,0.54,0.66,0.5,2.76,-0.32
619,1900-01-01 20:07:56.584,18.35,11.23,-34.42,0.2,0.32,0.94,1.27,-1.18,-1.27,33.55,31.75,-44.39,0.52,0.54,0.63,5.27,-0.47,1.84
620,1900-01-01 20:07:56.675,19.29,11.4,-34.46,0.2,0.33,0.93,-0.57,0.11,-1.11,33.96,31.28,-44.12,0.5,0.54,0.63,1.85,-0.85,0.32
621,1900-01-01 20:07:56.722,19.61,10.85,-34.47,0.19,0.34,0.94,1.08,0.25,-0.85,34.87,31.52,-44.08,0.52,0.56,0.62,2.6,-0.55,0.93
622,1900-01-01 20:07:56.858,19.04,10.63,-34.44,0.19,0.33,0.93,1.32,-0.5,-1.6,36.0,31.39,-43.95,0.51,0.58,0.61,3.76,-0.24,1.03
623,1900-01-01 20:07:56.886,20.11,10.61,-34.53,0.18,0.34,0.92,-0.33,-0.33,-1.43,36.74,31.66,-43.8,0.51,0.58,0.59,-0.62,-0.3,1.95
624,1900-01-01 20:07:56.956,19.66,11.53,-34.59,0.2,0.34,0.92,-0.91,0.12,-1.17,35.89,32.74,-43.51,0.52,0.57,0.58,-1.02,0.77,1.3
625,1900-01-01 20:07:57.050,19.7,11.03,-34.61,0.19,0.34,0.92,-0.35,0.14,-1.56,35.82,32.68,-43.31,0.52,0.57,0.58,1.18,1.29,1.25
626,1900-01-01 20:07:57.175,19.84,10.53,-34.69,0.19,0.34,0.94,-1.18,0.15,-1.21,35.67,32.93,-43.13,0.54,0.58,0.6,-1.48,0.63,1.15
627,1900-01-01 20:07:57.206,19.35,10.91,-34.71,0.19,0.33,0.93,0.3,-0.5,-1.3,36.07,33.06,-42.96,0.54,0.58,0.59,-0.51,1.23,0.13
628,1900-01-01 20:07:57.286,19.45,10.35,-34.76,0.18,0.34,0.95,-0.83,0.49,-0.84,35.09,33.24,-42.95,0.55,0.57,0.61,-3.69,1.76,0.95
629,1900-01-01 20:07:57.333,19.7,10.79,-34.73,0.19,0.34,0.93,-0.73,0.21,-1.09,35.52,32.66,-42.81,0.53,0.57,0.6,-2.42,1.99,0.24
630,1900-01-01 20:07:57.556,19.44,10.24,-34.73,0.18,0.34,0.94,-1.14,-0.28,-1.2,34.33,33.28,-42.79,0.54,0.55,0.61,-1.08,1.47,0.17
631,1900-01-01 20:07:57.556,19.64,10.8,-34.76,0.19,0.34,0.93,-0.92,0.13,-1.37,35.5,33.33,-42.77,0.54,0.57,0.59,-0.44,0.93,0.8
632,1900-01-01 20:07:57.585,19.84,10.79,-34.81,0.19,0.34,0.93,-0.4,-0.31,-1.11,35.35,33.27,-42.66,0.54,0.57,0.59,-0.17,0.5,0.12
633,1900-01-01 20:07:57.662,19.63,10.18,-34.82,0.18,0.34,0.93,-0.53,0.03,-1.0,35.44,33.15,-42.65,0.54,0.57,0.59,-0.89,0.88,0.52
634,1900-01-01 20:07:57.755,18.87,9.91,-34.82,0.18,0.33,0.96,-1.05,0.23,-0.18,35.32,33.45,-42.57,0.56,0.59,0.61,-1.57,0.92,4.9
635,1900-01-01 20:07:57.801,20.26,10.14,-34.69,0.18,0.35,0.94,-0.72,-2.08,0.02,36.12,32.66,-41.83,0.53,0.58,0.6,-2.59,2.6,0.21
636,1900-01-01 20:07:57.895,18.53,11.45,-34.53,0.19,0.31,0.9,0.71,-1.52,-1.94,35.47,33.65,-41.81,0.52,0.54,0.56,2.33,-1.18,-4.51
637,1900-01-01 20:07:58.018,20.85,10.57,-34.66,0.18,0.36,0.92,-1.06,0.37,-0.6,36.46,32.59,-42.51,0.53,0.59,0.59,1.17,1.29,1.96
638,1900-01-01 20:07:58.052,21.02,11.36,-34.6,0.2,0.37,0.94,1.92,-1.45,1.02,37.13,33.24,-42.22,0.55,0.61,0.58,7.33,2.33,0.37
639,1900-01-01 20:07:58.116,20.78,11.0,-34.29,0.19,0.36,0.92,0.57,0.6,2.66,38.45,32.73,-42.17,0.52,0.6,0.55,1.77,2.76,2.91
640,1900-01-01 20:07:58.184,19.0,10.69,-33.72,0.18,0.32,0.92,-1.46,3.03,1.79,35.91,34.33,-41.74,0.54,0.56,0.55,-4.31,3.05,4.11
641,1900-01-01 20:07:58.268,20.35,11.52,-33.29,0.2,0.35,0.91,-2.18,3.95,0.67,37.01,34.13,-41.12,0.54,0.58,0.55,-2.94,3.22,4.24
642,1900-01-01 20:07:58.360,19.99,11.0,-33.03,0.2,0.36,0.97,-1.0,2.53,1.25,35.11,34.53,-40.48,0.59,0.6,0.62,0.41,3.87,3.47
643,1900-01-01 20:07:58.485,19.78,10.94,-32.68,0.2,0.35,0.96,1.91,-1.55,1.95,36.38,35.13,-39.96,0.59,0.6,0.57,4.88,2.15,2.54
644,1900-01-01 20:07:58.485,19.67,10.36,-32.22,0.18,0.34,0.93,-0.73,-1.79,2.72,35.27,33.56,-39.58,0.54,0.57,0.59,1.75,1.21,5.66
645,1900-01-01 20:07:58.570,19.16,9.71,-31.65,0.17,0.33,0.94,-0.42,-2.58,2.01,34.32,35.83,-38.72,0.57,0.55,0.57,0.79,1.5,2.98
646,1900-01-01 20:07:58.649,20.37,11.4,-31.18,0.2,0.35,0.92,0.79,-2.39,1.6,36.42,34.81,-38.27,0.56,0.58,0.56,3.31,2.06,4.35
647,1900-01-01 20:07:58.735,20.01,12.15,-30.78,0.21,0.35,0.93,-0.26,-1.08,1.58,35.3,36.17,-37.62,0.58,0.57,0.55,1.89,2.54,1.13
648,1900-01-01 20:07:58.840,19.04,12.11,-30.38,0.21,0.33,0.93,-0.3,-1.87,1.02,34.03,37.02,-37.46,0.58,0.54,0.55,2.59,0.69,0.82
649,1900-01-01 20:07:58.876,20.23,11.67,-30.07,0.2,0.34,0.91,0.24,0.02,-0.79,37.81,35.35,-37.34,0.57,0.6,0.53,-0.47,-0.67,1.79
650,1900-01-01 20:07:58.969,19.81,11.23,-30.03,0.19,0.34,0.91,-0.11,-0.56,-1.23,35.91,34.58,-37.07,0.55,0.56,0.56,-0.21,0.93,2.11
651,1900-01-01 20:07:59.016,19.91,11.6,-30.06,0.2,0.34,0.92,-0.95,-0.66,-3.15,37.15,36.33,-36.76,0.58,0.59,0.52,-3.14,-1.7,-0.31
652,1900-01-01 20:07:59.149,18.35,12.34,-30.39,0.21,0.32,0.93,-4.1,0.05,-2.1,35.43,36.81,-36.81,0.59,0.57,0.54,-5.27,1.44,0.62
653,1900-01-01 20:07:59.180,18.7,10.81,-30.55,0.19,0.32,0.92,-3.71,0.94,-2.52,33.46,36.23,-36.73,0.57,0.54,0.57,-5.64,-0.43,1.08
654,1900-01-01 20:07:59.251,18.84,11.91,-30.78,0.21,0.32,0.93,-2.52,0.74,-4.45,35.29,35.64,-36.57,0.57,0.57,0.56,-3.73,-0.07,-0.62
655,1900-01-01 20:07:59.343,18.44,11.06,-31.31,0.2,0.33,0.96,-2.47,-1.08,-3.76,34.67,37.87,-36.67,0.63,0.58,0.56,-4.92,0.5,0.69
656,1900-01-01 20:07:59.507,18.62,12.82,-31.73,0.23,0.33,0.94,-0.92,-0.43,-2.56,35.64,38.21,-36.58,0.62,0.58,0.53,-3.71,1.35,-0.28
657,1900-01-01 20:07:59.507,18.37,12.21,-31.96,0.21,0.32,0.93,-0.6,0.94,-1.79,33.18,36.22,-36.63,0.58,0.54,0.58,-4.96,3.16,-2.05
658,1900-01-01 20:07:59.569,18.34,11.38,-32.08,0.19,0.31,0.91,-0.7,0.47,-2.85,33.64,37.63,-36.95,0.58,0.53,0.54,-2.2,1.52,-3.92
659,1900-01-01 20:07:59.672,19.5,10.91,-32.36,0.19,0.33,0.92,0.08,1.56,-2.55,35.25,35.72,-37.56,0.58,0.57,0.56,-0.26,4.5,0.28
660,1900-01-01 20:07:59.736,19.26,10.77,-32.59,0.19,0.34,0.94,0.42,-0.12,-2.21,35.15,35.68,-37.53,0.58,0.58,0.57,-0.34,0.45,-0.62
661,1900-01-01 20:07:59.851,18.98,10.96,-32.77,0.19,0.33,0.94,-0.38,-0.22,-1.73,35.52,36.55,-37.63,0.59,0.58,0.55,-2.4,0.47,0.77
662,1900-01-01 20:07:59.880,19.69,10.17,-32.88,0.18,0.35,0.95,-1.8,0.08,-0.33,33.84,36.27,-37.52,0.59,0.56,0.58,-7.74,1.49,3.05
663,1900-01-01 20:07:59.974,19.34,10.56,-32.77,0.18,0.33,0.92,-0.5,-1.6,-2.5,33.2,35.48,-37.06,0.56,0.53,0.58,-0.64,-0.73,-2.43
664,1900-01-01 20:08:00.045,18.77,11.1,-33.0,0.19,0.31,0.91,-0.28,0.9,-1.68,34.39,36.13,-37.44,0.56,0.53,0.55,1.31,2.85,-1.4
665,1900-01-01 20:08:00.090,18.56,9.73,-33.09,0.17,0.32,0.95,-1.16,1.82,-1.82,34.27,35.73,-37.67,0.59,0.57,0.59,-1.06,5.09,0.9
666,1900-01-01 20:08:00.208,19.57,10.32,-33.21,0.18,0.34,0.95,-0.14,-1.04,-0.63,34.09,36.01,-37.54,0.58,0.55,0.58,-2.99,2.37,-0.11
667,1900-01-01 20:08:00.274,19.21,9.42,-33.15,0.17,0.33,0.94,-3.08,0.73,-0.33,33.0,35.73,-37.56,0.57,0.53,0.59,-7.88,2.43,4.12
668,1900-01-01 20:08:00.384,17.44,10.43,-33.04,0.18,0.3,0.93,-1.52,0.42,-2.67,32.17,37.44,-36.94,0.58,0.51,0.57,2.63,0.28,-2.7
669,1900-01-01 20:08:00.514,18.46,9.97,-33.29,0.17,0.32,0.94,-2.21,1.29,-1.53,33.17,36.04,-37.37,0.59,0.55,0.59,0.08,4.43,1.04
670,1900-01-01 20:08:00.541,19.4,10.09,-33.37,0.18,0.33,0.93,1.11,-1.17,-1.98,34.78,35.35,-37.22,0.56,0.55,0.56,1.21,-0.4,-1.96
671,1900-01-01 20:08:00.587,18.85,9.56,-33.51,0.17,0.33,0.95,0.57,-0.78,-1.51,34.27,35.89,-37.53,0.59,0.56,0.58,-2.31,0.37,-1.41
672,1900-01-01 20:08:00.655,18.67,9.97,-33.59,0.18,0.33,0.95,-0.17,-0.59,-0.98,33.85,36.23,-37.75,0.59,0.55,0.58,-0.15,1.89,-2.27
673,1900-01-01 20:08:00.770,19.25,10.35,-33.58,0.19,0.34,0.96,0.77,-1.32,-0.54,33.56,35.61,-38.11,0.58,0.55,0.59,2.88,4.13,-4.02
674,1900-01-01 20:08:00.803,18.3,9.15,-33.5,0.16,0.32,0.95,2.1,-1.15,-1.81,36.36,35.87,-38.73,0.58,0.59,0.55,6.92,-2.5,4.3
675,1900-01-01 20:08:00.900,20.13,9.59,-33.62,0.17,0.34,0.92,-1.37,-1.01,-2.17,37.76,34.1,-38.08,0.54,0.59,0.54,-6.86,1.79,3.51
676,1900-01-01 20:08:00.934,19.91,10.49,-33.8,0.18,0.33,0.9,0.76,-0.39,-2.54,35.63,34.96,-37.55,0.54,0.55,0.54,-4.21,-0.94,-3.63
677,1900-01-01 20:08:01.027,19.36,10.2,-34.03,0.18,0.33,0.92,-1.82,1.53,-1.69,34.36,35.82,-38.12,0.57,0.55,0.56,-3.4,5.24,-4.24
678,1900-01-01 20:08:01.120,18.99,9.4,-34.13,0.17,0.34,0.97,-0.85,0.29,-1.4,34.55,35.57,-38.78,0.59,0.58,0.59,-0.69,5.43,-1.62
679,1900-01-01 20:08:01.167,18.8,9.68,-34.19,0.17,0.33,0.96,0.88,0.71,-0.5,35.66,34.15,-39.04,0.56,0.58,0.59,1.54,1.86,-0.03
680,1900-01-01 20:08:01.258,19.2,9.11,-34.1,0.16,0.34,0.96,-0.82,1.85,-0.63,34.8,34.32,-39.05,0.56,0.57,0.59,-1.6,2.64,-0.31
681,1900-01-01 20:08:01.380,19.44,8.68,-34.04,0.15,0.34,0.95,-1.27,1.95,-1.25,35.88,33.77,-39.11,0.55,0.59,0.59,-5.53,2.59,-0.77
682,1900-01-01 20:08:01.412,18.77,9.43,-34.07,0.16,0.32,0.92,-2.39,1.05,-1.81,34.84,34.52,-39.23,0.54,0.54,0.57,-2.19,0.2,-3.02
683,1900-01-01 20:08:01.524,20.03,9.2,-34.19,0.16,0.35,0.94,-0.46,-0.8,-2.14,35.9,34.81,-39.7,0.56,0.57,0.56,-5.44,1.83,-4.56
684,1900-01-01 20:08:01.581,18.75,8.91,-34.36,0.15,0.32,0.92,0.44,0.6,-1.78,35.69,30.41,-40.41,0.5,0.58,0.63,-4.57,-0.03,-7.33
685,1900-01-01 20:08:01.633,16.7,8.18,-34.48,0.13,0.27,0.9,-0.76,0.48,-3.21,34.92,31.55,-41.54,0.48,0.53,0.58,-0.65,0.08,-11.85
686,1900-01-01 20:08:01.727,21.81,8.04,-34.81,0.14,0.36,0.9,3.67,1.82,-4.03,41.36,26.5,-43.37,0.44,0.65,0.6,7.14,1.68,0.79
687,1900-01-01 20:08:01.773,19.63,9.2,-35.26,0.16,0.34,0.95,-3.2,1.11,-1.52,35.66,34.44,-43.26,0.55,0.56,0.56,6.27,-1.2,9.6
688,1900-01-01 20:08:01.867,18.4,6.85,-35.34,0.12,0.33,0.97,2.82,1.24,-2.85,35.28,34.74,-41.8,0.57,0.58,0.59,1.4,0.4,3.35
689,1900-01-01 20:08:01.960,17.95,6.17,-35.61,0.11,0.31,0.95,1.85,1.52,-5.34,32.12,35.64,-41.3,0.56,0.51,0.59,3.16,1.69,-3.11
690,1900-01-01 20:08:02.007,22.57,6.03,-36.27,0.11,0.39,0.94,0.86,0.11,-6.29,41.95,30.93,-41.78,0.52,0.68,0.54,-3.54,-0.07,0.56
691,1900-01-01 20:08:02.099,23.87,5.69,-37.07,0.1,0.41,0.93,2.03,-1.37,-2.11,39.75,31.76,-41.71,0.52,0.63,0.55,-2.14,1.73,-3.41
692,1900-01-01 20:08:02.219,20.14,6.89,-37.24,0.12,0.34,0.92,2.45,-1.33,-2.76,38.57,32.77,-42.24,0.53,0.61,0.55,-0.69,1.24,-4.13
693,1900-01-01 20:08:02.251,21.27,5.88,-37.5,0.1,0.37,0.94,0.46,-0.58,-3.13,38.9,31.89,-42.88,0.52,0.62,0.57,-1.56,2.24,-3.72
694,1900-01-01 20:08:02.335,22.47,7.22,-37.82,0.13,0.39,0.93,2.5,-1.04,0.07,40.65,31.17,-43.46,0.52,0.66,0.56,-0.37,3.25,-2.05
695,1900-01-01 20:08:02.404,22.4,6.16,-37.65,0.11,0.38,0.9,-0.51,-1.03,-0.09,40.15,31.03,-43.78,0.5,0.62,0.54,-1.79,1.95,0.85
696,1900-01-01 20:08:02.558,22.63,6.76,-37.51,0.12,0.39,0.92,-1.08,-0.98,-0.56,39.55,31.7,-43.66,0.51,0.62,0.55,-1.83,1.29,0.44
697,1900-01-01 20:08:02.558,22.72,6.38,-37.44,0.11,0.39,0.93,-0.34,-0.69,-0.34,39.86,30.55,-43.6,0.5,0.63,0.57,-2.08,2.53,0.6
698,1900-01-01 20:08:02.610,22.79,6.42,-37.33,0.11,0.39,0.91,-0.26,-1.56,0.02,39.29,30.8,-43.51,0.5,0.62,0.57,-0.53,1.47,0.18
699,1900-01-01 20:08:02.705,22.91,7.47,-37.17,0.13,0.39,0.91,0.16,-1.62,-0.12,39.68,31.47,-43.49,0.51,0.62,0.55,-0.38,0.27,-0.1
700,1900-01-01 20:08:02.778,22.55,7.75,-37.03,0.14,0.39,0.93,0.47,-0.73,-0.02,39.4,31.52,-43.52,0.52,0.63,0.57,-1.11,1.82,-0.44
701,1900-01-01 20:08:02.847,22.24,6.72,-36.87,0.12,0.38,0.92,-0.69,-0.42,-0.22,38.89,31.1,-43.59,0.51,0.62,0.57,-1.08,3.5,0.47
702,1900-01-01 20:08:02.941,23.83,7.55,-36.75,0.13,0.41,0.92,-0.56,-0.47,-1.41,40.64,30.22,-43.53,0.5,0.64,0.56,-0.83,2.7,1.34
703,1900-01-01 20:08:03.035,22.69,7.76,-36.81,0.13,0.39,0.91,0.04,-0.23,-1.31,40.21,30.07,-43.34,0.49,0.63,0.57,0.0,1.39,-0.84
704,1900-01-01 20:08:03.082,22.26,7.1,-36.85,0.12,0.38,0.92,-1.48,-0.12,-0.85,39.05,31.13,-43.47,0.5,0.61,0.56,-1.79,0.9,-0.06
705,1900-01-01 20:08:03.174,22.14,7.44,-36.82,0.13,0.38,0.92,-0.95,-1.37,-1.34,39.27,30.86,-43.49,0.5,0.62,0.57,-0.89,0.34,0.1
706,1900-01-01 20:08:03.225,22.62,7.88,-36.87,0.14,0.39,0.92,-0.99,-0.83,-0.53,39.43,31.28,-43.48,0.51,0.62,0.56,-1.63,0.56,0.41
707,1900-01-01 20:08:03.323,22.55,7.46,-36.79,0.13,0.39,0.92,-2.09,-0.81,-1.47,38.87,31.06,-43.43,0.51,0.62,0.58,-2.37,-0.06,0.31
708,1900-01-01 20:08:03.408,23.02,8.23,-36.86,0.14,0.39,0.92,-1.31,-2.19,-1.78,40.01,31.07,-43.39,0.51,0.63,0.56,-2.44,-0.57,-0.63
709,1900-01-01 20:08:03.554,22.11,7.9,-36.97,0.13,0.37,0.9,-0.44,-1.83,-2.05,39.45,31.37,-43.49,0.49,0.6,0.54,-1.15,-0.76,-1.19
710,1900-01-01 20:08:03.614,21.1,8.6,-37.13,0.15,0.36,0.93,-2.11,-0.64,-1.73,38.83,32.45,-43.69,0.53,0.62,0.56,-2.02,-0.18,0.58
711,1900-01-01 20:08:03.644,22.31,7.64,-37.23,0.13,0.38,0.92,-0.61,-1.63,-0.76,39.53,31.26,-43.61,0.51,0.63,0.56,-0.35,0.05,0.15
712,1900-01-01 20:08:03.756,21.82,9.14,-37.19,0.16,0.37,0.91,0.56,-1.66,0.01,39.6,32.26,-43.59,0.51,0.61,0.53,1.04,1.35,-1.41
713,1900-01-01 20:08:03.787,22.6,8.74,-37.03,0.15,0.38,0.89,-0.57,-0.5,0.39,40.7,31.15,-43.82,0.5,0.63,0.53,0.09,2.63,-0.72
714,1900-01-01 20:08:03.877,22.04,8.78,-36.82,0.15,0.38,0.92,-0.4,-1.63,0.32,40.74,31.17,-43.93,0.52,0.65,0.55,0.8,0.05,1.21
715,1900-01-01 20:08:03.923,22.93,8.6,-36.61,0.15,0.4,0.93,-0.05,-1.92,1.47,39.9,31.92,-43.76,0.52,0.63,0.55,0.02,-1.16,1.3
716,1900-01-01 20:08:04.017,22.23,10.22,-36.23,0.18,0.38,0.92,-0.3,-1.03,0.61,40.56,32.54,-43.57,0.54,0.65,0.54,0.03,-0.52,2.44
717,1900-01-01 20:08:04.065,24.32,8.69,-35.97,0.15,0.41,0.9,-1.15,-1.29,0.27,40.07,31.89,-43.2,0.49,0.6,0.52,0.31,-0.14,-0.03
718,1900-01-01 20:08:04.157,22.63,9.76,-35.77,0.17,0.38,0.9,-1.62,0.79,-1.55,41.29,33.92,-43.21,0.54,0.64,0.49,-4.59,-0.56,-1.83
719,1900-01-01 20:08:04.251,20.49,10.33,-35.85,0.18,0.35,0.93,-2.79,0.72,-2.47,41.15,32.03,-43.5,0.54,0.67,0.54,-5.08,2.46,2.69
720,1900-01-01 20:08:04.300,22.55,8.67,-36.07,0.15,0.39,0.92,-9.79,0.74,-1.47,38.42,32.28,-43.1,0.52,0.61,0.56,-16.2,4.2,5.75
721,1900-01-01 20:08:04.397,19.68,9.13,-36.14,0.16,0.34,0.93,-5.88,1.39,-2.16,37.13,33.11,-42.23,0.53,0.59,0.56,-8.37,4.21,0.43
722,1900-01-01 20:08:04.566,18.23,8.1,-36.31,0.14,0.32,0.96,-0.83,0.89,-1.19,33.92,32.71,-42.17,0.54,0.56,0.63,-0.27,2.53,-0.47
723,1900-01-01 20:08:04.566,19.16,8.13,-36.33,0.14,0.33,0.93,-1.08,0.03,-1.99,36.18,32.77,-42.25,0.53,0.57,0.58,-0.04,-0.5,-0.86
724,1900-01-01 20:08:04.625,18.98,8.64,-36.48,0.15,0.33,0.95,-1.85,0.33,-1.37,36.21,32.68,-42.39,0.53,0.58,0.59,-2.96,2.42,-0.04
725,1900-01-01 20:08:04.717,20.1,8.37,-36.53,0.15,0.35,0.94,0.01,-0.05,-1.18,36.94,32.39,-42.41,0.53,0.59,0.58,-2.53,2.63,-1.26
726,1900-01-01 20:08:04.765,19.8,8.93,-36.55,0.16,0.34,0.94,0.64,0.45,-0.94,37.23,32.09,-42.61,0.53,0.6,0.59,-0.5,2.73,0.44
727,1900-01-01 20:08:04.858,19.46,8.26,-36.54,0.15,0.34,0.94,0.23,0.02,-0.08,35.96,32.42,-42.55,0.53,0.58,0.6,-0.5,2.27,-0.38
728,1900-01-01 20:08:04.952,19.41,8.11,-36.39,0.14,0.33,0.92,-0.6,0.55,-0.68,36.84,31.68,-42.62,0.5,0.58,0.58,-0.58,0.33,1.31
729,1900-01-01 20:08:04.999,20.15,8.09,-36.34,0.14,0.35,0.93,-1.74,0.11,-1.02,36.63,32.15,-42.43,0.52,0.58,0.59,-1.08,-0.4,1.28
730,1900-01-01 20:08:05.094,19.8,8.47,-36.33,0.15,0.35,0.96,-1.23,0.24,0.58,37.94,33.09,-42.24,0.56,0.63,0.58,-3.7,2.16,1.63
731,1900-01-01 20:08:05.140,18.98,10.05,-36.09,0.17,0.31,0.89,4.31,-1.95,0.29,35.79,30.66,-42.0,0.48,0.55,0.59,8.4,-0.59,-7.2
732,1900-01-01 20:08:05.235,20.98,7.54,-35.88,0.13,0.36,0.93,-5.6,-1.18,1.89,38.0,31.66,-43.11,0.52,0.62,0.59,-4.9,0.41,7.12
733,1900-01-01 20:08:05.326,19.9,9.97,-35.44,0.18,0.35,0.96,2.98,-2.12,2.21,36.45,32.71,-42.03,0.54,0.6,0.6,4.26,4.77,-2.59
734,1900-01-01 20:08:05.372,22.02,10.65,-34.94,0.19,0.39,0.94,-1.37,-2.62,4.24,38.9,32.03,-42.43,0.53,0.63,0.57,1.47,2.27,6.08
735,1900-01-01 20:08:05.467,19.01,10.59,-34.13,0.19,0.33,0.94,-1.16,0.12,4.96,35.9,33.0,-41.51,0.54,0.58,0.59,-0.08,3.13,5.08
736,1900-01-01 20:08:05.583,19.15,9.58,-33.22,0.17,0.33,0.93,-2.85,0.6,4.62,35.99,33.15,-40.74,0.53,0.57,0.58,-0.4,1.84,6.95
737,1900-01-01 20:08:05.631,19.54,10.24,-32.35,0.18,0.33,0.92,-1.92,-0.7,3.72,35.87,33.51,-39.69,0.54,0.58,0.58,0.41,0.69,5.85
738,1900-01-01 20:08:05.701,19.44,11.21,-31.63,0.19,0.33,0.92,0.66,-1.16,3.22,36.14,34.57,-38.81,0.56,0.58,0.56,2.72,0.56,3.5
739,1900-01-01 20:08:05.748,18.98,11.05,-30.98,0.2,0.33,0.94,-0.73,-1.35,3.41,35.41,34.92,-38.28,0.57,0.57,0.57,1.0,1.15,3.33
740,1900-01-01 20:08:05.843,18.48,11.32,-30.3,0.19,0.31,0.92,-0.6,-0.57,2.91,36.69,34.43,-37.78,0.55,0.58,0.55,0.85,2.15,3.14
741,1900-01-01 20:08:05.936,19.05,11.46,-29.69,0.2,0.33,0.92,-1.96,0.58,2.58,34.73,35.45,-37.31,0.57,0.56,0.57,-0.4,2.14,3.44
742,1900-01-01 20:08:05.984,18.18,11.76,-29.14,0.21,0.32,0.94,0.01,-0.46,1.73,34.84,36.14,-36.79,0.58,0.57,0.56,1.68,1.16,1.22
743,1900-01-01 20:08:06.076,18.91,11.44,-28.72,0.2,0.33,0.94,-0.71,-0.58,1.44,36.13,35.33,-36.61,0.58,0.59,0.56,0.76,1.67,3.27
744,1900-01-01 20:08:06.203,18.56,11.36,-28.34,0.2,0.32,0.94,-1.07,0.99,1.54,34.6,36.49,-36.12,0.58,0.55,0.56,-0.5,0.88,2.74
745,1900-01-01 20:08:06.230,18.09,10.89,-27.95,0.19,0.31,0.92,-2.34,1.41,0.13,33.71,37.31,-35.71,0.58,0.53,0.54,-2.24,1.67,0.84
746,1900-01-01 20:08:06.312,18.2,11.02,-27.77,0.19,0.31,0.93,-2.65,0.39,-1.53,34.98,36.42,-35.59,0.58,0.56,0.56,-2.53,1.7,1.63
747,1900-01-01 20:08:06.369,17.89,10.9,-27.85,0.2,0.32,0.97,-3.0,-0.92,-0.99,33.44,37.0,-35.35,0.6,0.55,0.58,-2.68,1.98,0.15
748,1900-01-01 20:08:06.452,17.87,11.2,-27.84,0.19,0.3,0.92,-0.91,0.5,-2.06,34.95,36.03,-35.34,0.56,0.55,0.54,-2.02,0.31,-0.56
749,1900-01-01 20:08:06.585,17.41,9.51,-28.0,0.17,0.3,0.94,-3.69,1.12,-2.45,33.42,36.45,-35.43,0.58,0.54,0.57,-3.97,1.31,0.29
750,1900-01-01 20:08:06.610,16.93,10.43,-28.21,0.18,0.29,0.94,-2.01,0.91,-3.0,33.86,36.64,-35.39,0.58,0.54,0.56,-3.9,0.08,0.82
751,1900-01-01 20:08:06.720,16.42,10.21,-28.52,0.18,0.28,0.94,-1.79,0.4,-5.07,33.75,37.01,-35.28,0.59,0.54,0.56,-0.95,-0.01,-0.77
752,1900-01-01 20:08:06.747,17.41,10.24,-29.14,0.18,0.3,0.94,1.2,-0.89,-4.57,31.74,37.37,-35.41,0.59,0.51,0.58,3.63,-0.79,-4.95
753,1900-01-01 20:08:06.824,17.19,10.91,-29.68,0.19,0.3,0.94,4.5,-1.54,-4.47,36.0,36.56,-36.17,0.59,0.59,0.54,6.53,-1.15,-6.2
754,1900-01-01 20:08:06.917,19.18,10.47,-30.21,0.19,0.34,0.95,2.25,-0.58,-4.06,38.59,36.17,-37.13,0.59,0.62,0.51,1.82,-2.94,-2.82
755,1900-01-01 20:08:07.012,18.62,10.49,-30.67,0.19,0.33,0.95,1.44,0.39,-2.43,38.44,36.04,-37.58,0.59,0.63,0.52,-0.24,-0.16,-1.24
756,1900-01-01 20:08:07.059,19.08,9.91,-30.89,0.17,0.33,0.94,0.39,-0.56,-1.51,37.44,36.63,-37.77,0.59,0.6,0.51,-1.06,1.36,-0.56
757,1900-01-01 20:08:07.152,19.61,10.21,-30.96,0.18,0.34,0.93,0.21,-1.59,-1.47,37.88,35.53,-37.87,0.57,0.6,0.52,-2.16,1.24,1.02
758,1900-01-01 20:08:07.248,19.89,9.86,-31.03,0.17,0.34,0.92,-0.36,0.02,-0.89,36.76,36.51,-37.72,0.58,0.58,0.52,-1.98,0.78,0.26
759,1900-01-01 20:08:07.293,18.86,10.06,-31.0,0.17,0.32,0.93,-0.25,0.93,-1.66,36.36,36.88,-37.69,0.59,0.58,0.53,-1.04,1.1,-0.56
760,1900-01-01 20:08:07.387,19.61,10.25,-31.1,0.18,0.34,0.95,-0.3,-0.52,-1.93,37.24,36.77,-37.79,0.6,0.61,0.52,-0.7,1.26,-1.21
761,1900-01-01 20:08:07.434,19.01,10.55,-31.24,0.18,0.33,0.94,-0.57,-0.03,-1.37,37.61,36.95,-37.98,0.59,0.6,0.51,-0.27,2.37,-1.54
762,1900-01-01 20:08:07.593,19.69,10.24,-31.29,0.18,0.34,0.94,-0.96,0.18,-0.89,38.19,35.89,-38.23,0.58,0.61,0.52,-0.66,2.5,0.26
763,1900-01-01 20:08:07.593,19.99,9.57,-31.27,0.17,0.35,0.94,-0.09,-0.37,-0.36,38.15,35.52,-38.2,0.58,0.62,0.53,-0.66,1.0,0.41
764,1900-01-01 20:08:07.673,19.46,10.0,-31.17,0.17,0.33,0.92,0.27,-0.62,-0.73,38.03,36.11,-38.14,0.57,0.6,0.5,-1.76,0.32,-0.09
765,1900-01-01 20:08:07.761,19.83,9.39,-31.12,0.17,0.34,0.94,-1.22,-0.14,-1.05,36.35,36.39,-38.16,0.59,0.59,0.54,-2.24,0.02,0.24
766,1900-01-01 20:08:07.883,20.0,9.99,-31.12,0.18,0.35,0.94,0.18,-1.15,-2.19,38.41,36.26,-38.13,0.59,0.62,0.51,-1.68,-0.49,-0.95
767,1900-01-01 20:08:07.911,19.84,10.29,-31.3,0.18,0.34,0.94,-0.02,-0.63,-1.29,37.83,36.31,-38.29,0.59,0.61,0.52,-1.03,0.9,-1.01
768,1900-01-01 20:08:07.994,19.45,9.78,-31.34,0.17,0.33,0.93,-0.97,-0.52,-1.6,37.25,36.14,-38.45,0.58,0.59,0.52,-0.94,0.57,-0.96
769,1900-01-01 20:08:08.115,19.65,9.86,-31.43,0.17,0.33,0.92,-0.27,-0.43,-2.2,37.48,36.56,-38.61,0.58,0.59,0.51,-0.9,1.21,-1.39
770,1900-01-01 20:08:08.143,20.15,10.13,-31.61,0.18,0.35,0.93,-0.55,-0.27,-2.29,38.57,35.96,-38.83,0.58,0.62,0.51,-1.5,1.26,-0.95
771,1900-01-01 20:08:08.228,20.7,9.88,-31.8,0.17,0.36,0.93,-0.12,-0.2,-1.78,38.85,35.35,-38.99,0.57,0.62,0.52,-1.2,1.52,-0.6
772,1900-01-01 20:08:08.277,20.17,9.94,-31.91,0.17,0.35,0.93,-0.24,-0.12,-1.15,38.64,35.58,-39.09,0.58,0.62,0.52,-1.8,1.59,-0.06
773,1900-01-01 20:08:08.384,19.98,9.76,-31.93,0.17,0.34,0.93,-0.83,-0.24,-0.92,38.0,35.92,-39.1,0.58,0.61,0.52,-1.98,1.43,-0.02
774,1900-01-01 20:08:08.469,19.83,9.92,-31.92,0.17,0.34,0.93,-0.73,-0.03,-1.02,38.27,35.82,-39.12,0.58,0.61,0.52,-1.87,1.69,0.3
775,1900-01-01 20:08:08.505,20.02,9.78,-31.91,0.17,0.34,0.93,-1.76,0.07,-1.06,37.51,36.21,-39.08,0.58,0.6,0.52,-1.82,1.81,0.35
776,1900-01-01 20:08:08.599,20.53,9.61,-31.92,0.17,0.35,0.93,-1.04,0.01,-1.03,37.81,35.82,-39.03,0.58,0.6,0.52,-1.66,1.26,0.08
777,1900-01-01 20:08:08.695,20.05,9.5,-31.92,0.17,0.34,0.93,-0.52,-0.34,-0.94,37.71,35.7,-39.03,0.57,0.6,0.52,-1.59,1.49,0.04
778,1900-01-01 20:08:08.738,20.42,9.24,-31.9,0.16,0.35,0.92,2.37,0.26,-1.8,35.08,37.21,-39.03,0.57,0.54,0.52,7.86,3.08,-7.76
779,1900-01-01 20:08:08.831,21.63,9.41,-32.02,0.17,0.37,0.93,7.16,-1.74,-1.45,41.89,33.52,-40.22,0.56,0.67,0.5,6.34,2.72,-6.18
780,1900-01-01 20:08:08.925,21.46,9.95,-32.08,0.18,0.37,0.93,-2.01,0.5,-1.82,40.96,33.98,-41.18,0.55,0.65,0.5,-3.43,1.46,0.58
781,1900-01-01 20:08:08.971,21.65,9.55,-32.2,0.17,0.37,0.92,-0.97,-0.32,-1.82,40.72,34.09,-41.1,0.55,0.64,0.5,-2.34,1.68,-0.92
782,1900-01-01 20:08:09.066,21.73,9.6,-32.32,0.17,0.37,0.91,-1.34,0.36,-1.73,41.25,33.51,-41.25,0.54,0.65,0.5,-3.0,1.46,0.4
783,1900-01-01 20:08:09.172,21.16,9.13,-32.43,0.16,0.36,0.93,-2.04,0.28,-1.65,40.16,34.03,-41.2,0.56,0.64,0.52,-3.58,1.37,0.88
784,1900-01-01 20:08:09.208,21.15,9.48,-32.52,0.17,0.36,0.93,-0.79,-0.08,-1.23,40.58,33.91,-41.07,0.55,0.65,0.51,-2.05,1.32,0.09
785,1900-01-01 20:08:09.301,21.39,9.07,-32.55,0.16,0.37,0.92,-1.47,-0.05,-1.29,39.73,34.07,-41.06,0.55,0.63,0.52,-2.14,1.41,0.18
786,1900-01-01 20:08:09.349,21.16,9.21,-32.59,0.16,0.36,0.92,-0.84,-0.26,-1.4,39.79,34.14,-41.05,0.55,0.63,0.51,-1.67,1.32,-0.21
787,1900-01-01 20:08:09.442,21.4,8.62,-32.65,0.15,0.36,0.92,-0.27,0.24,-1.76,40.61,33.29,-41.09,0.54,0.64,0.51,-0.79,0.59,-0.51
788,1900-01-01 20:08:09.628,21.07,8.82,-32.76,0.15,0.36,0.93,-0.45,0.08,-1.46,39.73,34.16,-41.17,0.55,0.63,0.51,-1.79,1.64,-0.28
789,1900-01-01 20:08:09.628,21.21,9.08,-32.82,0.16,0.37,0.93,-1.17,0.1,-1.66,39.88,34.18,-41.23,0.56,0.64,0.52,-2.69,1.57,-0.15
790,1900-01-01 20:08:09.675,21.64,9.15,-32.92,0.16,0.37,0.93,-0.35,-0.83,-1.69,40.13,33.99,-41.26,0.55,0.64,0.52,-1.73,1.11,-0.94
791,1900-01-01 20:08:09.769,21.76,8.96,-33.02,0.16,0.37,0.92,-0.47,-0.85,-1.53,40.47,33.43,-41.41,0.54,0.63,0.51,-1.66,0.81,-0.63
792,1900-01-01 20:08:09.814,21.56,8.75,-33.1,0.15,0.37,0.92,-0.59,-0.13,-1.21,40.07,33.66,-41.51,0.55,0.64,0.52,-1.55,1.27,-0.1
793,1900-01-01 20:08:09.909,21.53,9.04,-33.12,0.16,0.37,0.92,-0.52,-0.21,-1.08,40.43,33.56,-41.54,0.54,0.64,0.52,-1.65,1.23,0.02
794,1900-01-01 20:08:10.033,21.43,8.84,-33.13,0.15,0.37,0.92,-1.03,0.05,-1.06,39.63,33.88,-41.54,0.55,0.63,0.52,-1.56,2.44,0.26
795,1900-01-01 20:08:10.033,21.19,8.85,-33.13,0.15,0.36,0.92,-0.78,0.28,-1.32,39.98,33.27,-41.51,0.54,0.63,0.53,-0.8,3.3,0.41
796,1900-01-01 20:08:10.143,21.56,8.79,-33.18,0.15,0.37,0.93,-1.74,-0.29,-0.92,39.91,33.55,-41.46,0.55,0.64,0.53,-1.99,0.98,0.95
797,1900-01-01 20:08:10.189,21.19,8.96,-33.16,0.16,0.36,0.92,0.4,-1.07,-1.02,40.07,33.66,-41.32,0.54,0.63,0.52,-1.12,0.44,-0.88
798,1900-01-01 20:08:10.283,21.33,8.29,-33.16,0.14,0.37,0.92,-0.87,0.28,-1.31,39.85,33.38,-41.46,0.54,0.63,0.53,-1.55,1.02,0.6
799,1900-01-01 20:08:10.375,21.67,8.84,-33.2,0.16,0.38,0.93,-0.36,-1.09,-0.56,39.92,33.79,-41.38,0.55,0.64,0.52,-2.22,-0.6,-0.13
800,1900-01-01 20:08:10.422,21.22,8.81,-33.13,0.15,0.36,0.93,-0.36,-0.47,-0.66,39.59,33.91,-41.41,0.55,0.63,0.52,-1.7,1.54,0.1
801,1900-01-01 20:08:10.515,21.25,9.07,-33.07,0.16,0.36,0.92,-0.79,-0.18,-0.99,39.25,34.05,-41.4,0.55,0.62,0.53,-1.82,0.96,0.01
802,1900-01-01 20:08:10.627,21.06,9.17,-33.06,0.16,0.36,0.93,-0.16,-0.6,-1.41,39.54,34.08,-41.41,0.55,0.63,0.52,-1.07,0.73,-0.82
803,1900-01-01 20:08:10.659,21.87,8.82,-33.12,0.15,0.37,0.91,-0.87,0.27,-1.24,40.47,33.14,-41.54,0.53,0.63,0.52,-1.82,1.18,0.34
804,1900-01-01 20:08:10.752,21.37,9.06,-33.15,0.16,0.37,0.92,-0.79,0.34,-1.33,39.85,33.67,-41.5,0.55,0.64,0.53,-1.61,1.39,-0.12
805,1900-01-01 20:08:10.798,21.07,8.79,-33.2,0.15,0.36,0.93,-0.37,-0.3,-0.71,39.5,33.78,-41.53,0.55,0.63,0.53,-1.77,1.83,0.11
806,1900-01-01 20:08:10.891,20.8,8.81,-33.15,0.15,0.36,0.93,-1.2,-0.2,-1.31,38.93,34.29,-41.52,0.55,0.61,0.52,-1.18,2.98,-0.32
807,1900-01-01 20:08:10.987,21.43,8.68,-33.19,0.15,0.37,0.92,-0.7,-0.56,-1.6,39.58,33.43,-41.58,0.54,0.62,0.53,-0.95,3.44,0.27
808,1900-01-01 20:08:11.033,21.72,8.76,-33.28,0.15,0.37,0.92,-1.15,-0.5,-1.85,40.18,33.02,-41.54,0.53,0.63,0.52,-1.44,2.14,-0.24
809,1900-01-01 20:08:11.126,22.17,9.01,-33.4,0.16,0.38,0.93,-1.98,-0.89,-1.62,40.28,33.28,-41.59,0.55,0.65,0.53,-6.48,3.28,-1.37
810,1900-01-01 20:08:11.220,18.56,9.67,-33.49,0.16,0.31,0.9,0.93,0.31,-1.09,38.2,32.47,-41.81,0.52,0.6,0.55,-3.87,2.44,-0.89
811,1900-01-01 20:08:11.267,21.05,8.41,-33.5,0.15,0.36,0.93,0.53,0.6,-1.39,38.15,32.9,-41.95,0.54,0.62,0.57,2.12,-4.21,-1.02
812,1900-01-01 20:08:11.360,21.46,8.33,-33.55,0.15,0.37,0.93,2.34,0.05,-1.62,41.35,32.98,-42.12,0.54,0.66,0.51,2.75,-2.44,-1.43
813,1900-01-01 20:08:11.473,21.7,8.64,-33.64,0.15,0.38,0.94,-2.61,0.12,0.49,39.61,34.13,-42.34,0.55,0.63,0.52,-2.59,3.02,1.82
814,1900-01-01 20:08:11.500,21.8,8.01,-33.41,0.14,0.37,0.91,-1.8,0.2,0.21,38.5,33.4,-42.07,0.53,0.59,0.53,-4.06,2.27,0.5
815,1900-01-01 20:08:11.654,20.98,8.46,-33.22,0.14,0.35,0.91,-0.94,0.95,-1.23,39.31,33.55,-42.01,0.53,0.61,0.52,-1.36,3.15,0.41
816,1900-01-01 20:08:11.654,21.39,8.48,-33.25,0.15,0.37,0.93,-0.39,0.54,-1.79,39.42,33.14,-41.95,0.55,0.63,0.54,-1.11,2.17,-0.45
817,1900-01-01 20:08:11.734,21.23,8.96,-33.36,0.16,0.36,0.92,-0.16,-0.01,-1.18,39.82,33.28,-42.03,0.54,0.63,0.52,-1.09,2.77,-0.45
818,1900-01-01 20:08:11.827,21.4,8.02,-33.39,0.14,0.37,0.93,-0.82,0.72,-0.86,38.78,32.95,-42.11,0.54,0.62,0.55,-1.87,3.12,-0.12
819,1900-01-01 20:08:11.873,21.16,7.9,-33.36,0.14,0.36,0.93,-0.19,-0.27,-1.18,39.17,32.9,-42.13,0.53,0.62,0.54,-0.89,1.91,-0.38
820,1900-01-01 20:08:11.970,21.43,8.03,-33.38,0.14,0.36,0.91,-0.27,0.59,-1.08,39.15,32.75,-42.2,0.52,0.61,0.54,-1.47,2.62,-0.79
821,1900-01-01 20:08:12.064,20.86,7.55,-33.39,0.13,0.36,0.94,-0.76,0.85,-1.41,38.31,32.81,-42.33,0.54,0.62,0.56,-1.56,2.21,-0.42
822,1900-01-01 20:08:12.110,22.18,8.51,-33.45,0.15,0.39,0.93,-0.17,-1.37,-1.87,39.18,32.7,-42.4,0.53,0.62,0.54,-1.76,0.54,-1.44
823,1900-01-01 20:08:12.203,21.33,7.55,-33.57,0.13,0.37,0.93,-0.19,-0.92,-1.65,38.75,32.59,-42.63,0.53,0.62,0.56,-3.97,0.94,-2.11
824,1900-01-01 20:08:12.319,22.17,8.82,-33.67,0.15,0.38,0.92,-2.31,-2.85,-0.52,40.37,32.74,-42.97,0.52,0.63,0.52,-5.47,3.85,1.85
825,1900-01-01 20:08:12.346,21.15,8.37,-33.59,0.15,0.37,0.93,-2.68,-1.51,0.16,36.64,32.09,-42.69,0.53,0.6,0.6,-3.68,3.38,-0.76
826,1900-01-01 20:08:12.438,20.79,8.09,-33.41,0.14,0.36,0.94,-1.34,-2.77,-0.79,37.44,31.71,-42.82,0.52,0.6,0.59,-1.3,-1.53,0.68
827,1900-01-01 20:08:12.496,21.7,8.32,-33.37,0.14,0.37,0.92,-0.34,-0.83,-0.82,38.62,31.29,-42.72,0.51,0.61,0.57,-1.14,-0.17,1.09
828,1900-01-01 20:08:12.651,20.58,8.09,-33.34,0.14,0.36,0.94,-2.44,-1.37,-0.99,36.77,32.87,-42.56,0.54,0.59,0.58,-2.31,-0.95,1.76
829,1900-01-01 20:08:12.651,21.64,9.11,-33.33,0.16,0.37,0.91,-1.63,-1.34,-1.27,38.24,32.81,-42.3,0.52,0.6,0.55,-1.12,-1.37,1.15
830,1900-01-01 20:08:12.727,21.05,9.51,-33.37,0.16,0.36,0.91,-1.62,0.31,-1.37,38.25,32.61,-42.13,0.53,0.61,0.56,-0.48,0.67,0.93
831,1900-01-01 20:08:12.809,21.04,9.18,-33.42,0.16,0.36,0.93,-1.05,-1.79,-1.31,37.85,33.3,-42.0,0.54,0.6,0.56,-1.05,-0.65,0.25
832,1900-01-01 20:08:12.903,21.31,9.89,-33.46,0.17,0.36,0.91,0.15,-0.85,-1.15,38.52,33.64,-41.97,0.53,0.6,0.53,-1.11,0.13,-0.4
833,1900-01-01 20:08:12.949,20.19,9.08,-33.48,0.16,0.35,0.94,-1.05,-0.17,-0.95,36.79,33.9,-42.04,0.55,0.59,0.57,-0.76,1.63,-0.23
834,1900-01-01 20:08:13.045,20.54,9.34,-33.47,0.16,0.35,0.92,-0.46,-0.15,-1.22,38.06,33.7,-42.08,0.54,0.6,0.54,-0.15,1.34,-0.47
835,1900-01-01 20:08:13.151,20.57,8.94,-33.5,0.16,0.35,0.93,-1.05,0.47,-1.27,37.4,33.67,-42.16,0.54,0.59,0.56,-0.85,1.88,-0.15
836,1900-01-01 20:08:13.184,20.66,9.02,-33.53,0.16,0.36,0.93,-0.89,0.42,-1.21,37.95,33.28,-42.19,0.54,0.6,0.56,-0.93,1.88,-0.19
837,1900-01-01 20:08:13.277,20.67,8.84,-33.56,0.15,0.35,0.93,-1.1,0.75,-1.17,37.71,33.49,-42.23,0.54,0.6,0.56,-1.57,2.24,-0.13
838,1900-01-01 20:08:13.372,20.49,9.11,-33.58,0.16,0.36,0.94,-1.05,0.06,-1.02,37.98,33.66,-42.26,0.55,0.61,0.56,-1.56,1.83,-0.01
839,1900-01-01 20:08:13.419,20.35,8.41,-33.58,0.15,0.35,0.94,-0.82,-0.44,-0.34,37.57,33.28,-42.27,0.55,0.61,0.57,-1.76,2.34,-0.19
840,1900-01-01 20:08:13.513,21.15,9.15,-33.47,0.16,0.36,0.92,-0.58,-0.33,-0.51,38.1,33.06,-42.31,0.53,0.6,0.55,-2.14,1.65,-0.31
841,1900-01-01 20:08:13.558,20.74,8.3,-33.39,0.15,0.36,0.94,-1.19,-0.95,-0.67,37.45,33.29,-42.36,0.55,0.61,0.57,-0.91,0.39,-0.15
842,1900-01-01 20:08:13.674,20.63,10.0,-33.34,0.17,0.34,0.9,3.08,-0.95,-1.31,39.24,33.23,-42.39,0.52,0.6,0.51,1.05,-0.45,-3.11
843,1900-01-01 20:08:13.717,20.51,8.69,-33.38,0.15,0.35,0.92,0.37,1.05,-1.79,38.42,32.66,-42.88,0.53,0.61,0.56,0.84,3.49,0.86
844,1900-01-01 20:08:13.794,23.22,9.66,-33.49,0.17,0.4,0.92,22.18,-0.21,2.58,44.13,30.43,-42.76,0.51,0.7,0.51,28.46,9.4,-18.48
845,1900-01-01 20:08:13.887,24.82,9.52,-32.94,0.17,0.43,0.92,3.73,-0.5,3.85,43.73,29.6,-45.6,0.51,0.71,0.54,4.3,1.98,0.52
846,1900-01-01 20:08:13.980,22.74,9.6,-32.19,0.16,0.38,0.89,-0.11,-0.52,0.57,43.0,31.31,-45.53,0.5,0.65,0.49,2.45,3.63,-0.24
847,1900-01-01 20:08:14.026,25.5,9.5,-31.95,0.16,0.43,0.88,-7.25,-0.49,0.52,44.7,29.16,-45.58,0.48,0.69,0.51,-8.89,-0.27,9.46
848,1900-01-01 20:08:14.120,22.91,9.27,-31.71,0.16,0.39,0.9,-1.91,0.1,0.34,40.91,32.02,-44.14,0.51,0.63,0.52,-0.91,1.84,2.5
849,1900-01-01 20:08:14.167,22.94,9.67,-31.5,0.17,0.4,0.92,-0.65,-0.21,-0.64,42.12,32.0,-43.76,0.53,0.67,0.52,1.31,1.12,1.66
850,1900-01-01 20:08:14.261,23.07,10.21,-31.44,0.18,0.4,0.92,0.42,-1.02,0.0,41.91,32.09,-43.52,0.52,0.66,0.51,1.31,3.76,0.24
851,1900-01-01 20:08:14.356,23.66,9.73,-31.28,0.17,0.4,0.9,-1.63,0.4,-0.13,42.67,31.81,-43.49,0.52,0.67,0.5,-3.54,2.51,2.6
852,1900-01-01 20:08:14.405,23.44,9.7,-31.14,0.17,0.4,0.91,-4.7,-0.08,-0.67,41.03,31.39,-43.1,0.51,0.65,0.54,-6.19,1.82,3.64
853,1900-01-01 20:08:14.496,23.16,10.1,-31.09,0.17,0.39,0.89,0.69,-1.15,-2.17,41.38,31.61,-42.56,0.49,0.62,0.5,-0.23,-0.43,-0.97
854,1900-01-01 20:08:14.654,22.65,10.1,-31.26,0.17,0.38,0.89,-0.01,0.5,-2.47,41.0,32.51,-42.71,0.52,0.63,0.51,-0.13,-0.33,1.88
855,1900-01-01 20:08:14.654,23.66,10.42,-31.48,0.18,0.4,0.9,3.34,2.15,-2.02,41.79,31.69,-42.43,0.53,0.67,0.53,3.56,-0.77,-0.74
856,1900-01-01 20:08:14.755,23.35,9.07,-31.63,0.16,0.41,0.94,0.84,-0.21,-1.08,40.46,33.34,-42.56,0.56,0.66,0.53,2.7,-0.81,-1.61
857,1900-01-01 20:08:14.781,25.01,8.63,-31.64,0.15,0.43,0.9,-0.62,-1.18,-1.35,43.81,30.9,-42.81,0.5,0.67,0.49,-0.11,-1.08,-1.21
858,1900-01-01 20:08:14.873,23.84,9.05,-31.69,0.16,0.41,0.91,-2.54,1.11,-1.44,42.6,32.16,-43.01,0.53,0.67,0.5,-4.05,0.44,0.91
859,1900-01-01 20:08:14.967,23.45,9.23,-31.75,0.16,0.41,0.92,-0.6,-0.76,-1.34,43.25,32.1,-42.88,0.54,0.69,0.5,-1.75,0.58,-0.73
860,1900-01-01 20:08:15.032,23.65,10.24,-31.8,0.18,0.4,0.9,-0.01,-1.59,-0.76,42.4,33.07,-42.99,0.53,0.65,0.48,-2.82,0.88,-1.24
861,1900-01-01 20:08:15.107,24.13,9.28,-31.76,0.16,0.41,0.91,-0.28,-1.03,-1.22,42.84,32.17,-43.19,0.52,0.66,0.49,-2.13,2.28,-0.53
862,1900-01-01 20:08:15.237,23.68,9.42,-31.78,0.16,0.4,0.9,1.07,0.03,-1.48,42.58,31.96,-43.29,0.51,0.66,0.5,-0.65,3.55,-1.19
863,1900-01-01 20:08:15.267,24.0,9.02,-31.85,0.16,0.41,0.9,-0.6,0.59,-1.82,42.18,31.87,-43.48,0.52,0.66,0.51,-1.69,2.17,-1.32
864,1900-01-01 20:08:15.340,24.18,10.18,-31.97,0.18,0.41,0.9,0.01,-0.09,-1.98,43.97,31.68,-43.69,0.51,0.68,0.48,-1.18,2.13,-1.24
865,1900-01-01 20:08:15.450,24.06,9.55,-32.12,0.17,0.41,0.9,-0.73,0.53,-1.89,42.68,32.06,-43.89,0.52,0.66,0.5,-1.57,1.85,-1.17
866,1900-01-01 20:08:15.478,23.62,8.92,-32.25,0.16,0.4,0.9,0.09,0.27,-2.44,42.65,31.13,-44.07,0.51,0.66,0.51,-1.18,1.77,-1.77
867,1900-01-01 20:08:15.572,24.34,8.68,-32.46,0.15,0.41,0.9,0.39,0.42,-2.64,43.49,30.67,-44.35,0.5,0.67,0.51,-1.25,1.79,-1.53
868,1900-01-01 20:08:15.672,24.77,8.91,-32.71,0.16,0.42,0.91,-0.44,0.52,-2.17,44.18,30.38,-44.59,0.5,0.69,0.5,-2.18,1.84,-0.9
869,1900-01-01 20:08:15.738,24.28,8.34,-32.88,0.15,0.42,0.91,-0.66,0.37,-1.7,43.32,30.33,-44.74,0.5,0.69,0.52,-2.02,1.73,-0.67
870,1900-01-01 20:08:15.805,24.82,8.22,-32.98,0.14,0.42,0.9,-0.31,-0.11,-1.42,43.93,29.92,-44.85,0.49,0.68,0.51,-1.98,1.52,-0.61
871,1900-01-01 20:08:15.899,24.41,7.93,-33.04,0.14,0.41,0.9,-0.37,-0.01,-1.36,43.44,30.13,-44.95,0.49,0.68,0.52,-1.67,1.93,-0.79
872,1900-01-01 20:08:15.944,24.4,8.39,-33.09,0.15,0.41,0.9,-0.18,0.04,-1.98,43.56,30.14,-45.08,0.49,0.67,0.51,-1.57,1.7,-0.89
873,1900-01-01 20:08:16.040,24.64,8.36,-33.24,0.15,0.42,0.91,-0.15,-0.24,-1.63,43.54,30.17,-45.23,0.5,0.69,0.52,-1.38,1.39,-1.05
874,1900-01-01 20:08:16.086,25.09,8.27,-33.33,0.15,0.43,0.9,0.26,-0.68,-1.53,43.83,29.88,-45.4,0.49,0.68,0.51,-1.18,0.9,-1.08
875,1900-01-01 20:08:16.180,24.66,7.9,-33.4,0.14,0.42,0.9,0.2,-0.51,-1.47,43.86,29.68,-45.57,0.49,0.68,0.51,-1.11,1.22,-0.97
876,1900-01-01 20:08:16.272,25.25,8.07,-33.47,0.14,0.43,0.9,-0.83,-0.22,-1.27,44.4,29.43,-45.73,0.48,0.69,0.51,-1.8,1.19,-0.14
877,1900-01-01 20:08:16.319,25.01,8.0,-33.51,0.14,0.42,0.89,-0.46,-0.41,-1.15,44.27,29.29,-45.76,0.48,0.68,0.51,-1.61,1.36,-0.45
878,1900-01-01 20:08:16.413,25.14,7.83,-33.53,0.14,0.43,0.9,-0.53,-0.31,-1.12,44.18,29.2,-45.83,0.48,0.68,0.51,-1.24,1.34,-0.2
879,1900-01-01 20:08:16.505,24.81,8.29,-33.54,0.14,0.42,0.9,-0.99,-0.13,-1.2,43.89,29.72,-45.87,0.49,0.68,0.51,-1.59,1.11,-0.09
880,1900-01-01 20:08:16.553,24.82,8.01,-33.57,0.14,0.42,0.91,-0.52,-0.5,-1.03,44.15,29.36,-45.9,0.48,0.68,0.51,-1.72,1.21,-0.32
881,1900-01-01 20:08:16.682,24.76,7.7,-33.57,0.13,0.42,0.9,-0.96,-0.21,-1.21,43.81,29.39,-45.95,0.48,0.68,0.52,-1.87,1.65,-0.24
882,1900-01-01 20:08:16.709,25.08,8.13,-33.59,0.14,0.43,0.9,-0.78,-0.19,-1.21,43.85,29.5,-46.0,0.48,0.68,0.52,-1.44,1.82,-0.33
883,1900-01-01 20:08:16.788,24.86,8.06,-33.62,0.14,0.42,0.9,-0.61,-0.06,-1.06,43.88,29.41,-46.06,0.48,0.68,0.52,-1.63,1.58,-0.21
884,1900-01-01 20:08:16.880,24.72,7.76,-33.63,0.13,0.42,0.9,-0.66,-0.35,-1.5,43.54,29.34,-46.1,0.48,0.67,0.52,-1.31,1.24,-0.68
885,1900-01-01 20:08:16.927,25.2,7.88,-33.7,0.14,0.43,0.9,-0.36,-0.63,-1.53,44.25,29.03,-46.21,0.48,0.69,0.52,-1.24,1.08,-0.56
886,1900-01-01 20:08:17.021,24.76,7.9,-33.78,0.14,0.42,0.9,-0.66,-0.51,-1.23,43.97,29.25,-46.31,0.48,0.68,0.52,-1.25,1.22,-0.45
887,1900-01-01 20:08:17.113,24.92,7.66,-33.81,0.13,0.42,0.9,-0.92,-0.4,-1.29,44.06,28.89,-46.38,0.47,0.68,0.52,-1.5,1.44,-0.06
888,1900-01-01 20:08:17.160,24.82,7.88,-33.84,0.14,0.42,0.89,-0.57,-0.34,-1.62,44.32,29.11,-46.4,0.47,0.68,0.51,-1.53,1.22,-0.38
889,1900-01-01 20:08:17.255,25.87,7.84,-33.93,0.14,0.43,0.89,-0.63,-0.29,-1.39,45.36,28.26,-46.47,0.46,0.69,0.5,-1.53,1.01,-0.26
890,1900-01-01 20:08:17.348,25.34,8.02,-33.99,0.14,0.42,0.88,0.24,1.48,-1.23,45.23,28.59,-46.52,0.46,0.68,0.49,-0.07,2.38,-1.58
891,1900-01-01 20:08:17.397,24.87,6.64,-34.02,0.12,0.43,0.92,-0.44,0.04,-0.77,42.73,29.11,-46.77,0.49,0.68,0.55,-0.18,3.18,-0.31
892,1900-01-01 20:08:17.490,25.68,8.14,-33.98,0.14,0.43,0.88,1.85,1.18,-1.37,46.11,27.87,-46.82,0.45,0.7,0.5,-1.47,3.49,-3.5
893,1900-01-01 20:08:17.536,24.62,7.32,-34.03,0.13,0.43,0.93,-4.63,0.47,-1.99,43.75,28.54,-47.37,0.47,0.69,0.54,-4.04,9.49,-4.33
894,1900-01-01 20:08:17.621,25.29,6.31,-34.18,0.11,0.42,0.89,1.17,2.03,-1.99,46.38,25.41,-48.04,0.42,0.7,0.53,-1.74,6.46,-3.24
895,1900-01-01 20:08:17.694,25.03,6.05,-34.32,0.1,0.42,0.89,-0.63,2.07,-1.4,45.21,25.53,-48.54,0.42,0.69,0.54,-2.17,4.16,-0.4
896,1900-01-01 20:08:17.770,24.67,5.95,-34.38,0.1,0.42,0.9,0.24,0.96,-1.1,44.43,25.63,-48.61,0.42,0.68,0.55,-2.3,3.24,-1.19
897,1900-01-01 20:08:17.862,24.69,6.48,-34.39,0.11,0.42,0.91,-0.69,1.95,-2.13,44.8,25.16,-48.8,0.42,0.69,0.56,-2.48,3.85,-0.95
898,1900-01-01 20:08:17.955,25.14,5.93,-34.56,0.1,0.43,0.91,-0.02,1.24,-1.92,44.62,25.05,-48.96,0.42,0.7,0.57,-2.86,3.49,-2.01
899,1900-01-01 20:08:18.002,25.48,5.53,-34.69,0.1,0.43,0.9,1.18,1.18,-2.6,45.6,23.81,-49.27,0.4,0.7,0.56,-1.06,2.74,-1.52
900,1900-01-01 20:08:18.095,25.74,5.47,-34.93,0.1,0.44,0.91,0.94,0.25,-1.87,45.4,23.62,-49.51,0.39,0.7,0.57,-0.82,2.81,-2.11
901,1900-01-01 20:08:18.195,26.26,5.07,-35.06,0.09,0.45,0.9,0.77,-0.11,-1.59,46.17,22.99,-49.84,0.38,0.71,0.56,-1.15,2.33,-1.61
902,1900-01-01 20:08:18.237,26.07,4.64,-35.14,0.08,0.44,0.9,-0.57,0.08,-1.21,45.56,22.79,-50.1,0.37,0.69,0.56,-1.95,3.45,-1.09
903,1900-01-01 20:08:18.329,26.03,5.06,-35.17,0.09,0.44,0.9,-1.24,0.58,-1.02,45.59,22.99,-50.27,0.39,0.71,0.57,-1.85,2.25,0.15
904,1900-01-01 20:08:18.421,25.63,4.99,-35.17,0.09,0.44,0.9,0.15,-0.55,-0.83,45.37,22.79,-50.26,0.38,0.7,0.58,-1.27,1.27,-0.4
905,1900-01-01 20:08:18.469,26.36,4.98,-35.14,0.09,0.44,0.89,-0.18,-0.13,-0.93,45.8,22.64,-50.33,0.37,0.69,0.56,-1.41,1.26,-0.05
906,1900-01-01 20:08:18.563,25.89,4.97,-35.12,0.09,0.44,0.9,-0.4,-0.13,-0.71,45.3,22.97,-50.35,0.38,0.69,0.57,-1.56,1.56,0.19
907,1900-01-01 20:08:18.610,26.21,4.87,-35.07,0.08,0.44,0.89,-0.21,-0.17,-0.99,45.51,22.7,-50.33,0.38,0.69,0.57,-1.18,1.2,0.0
908,1900-01-01 20:08:18.709,26.03,4.92,-35.07,0.09,0.44,0.9,0.01,-0.31,-0.77,45.36,22.8,-50.33,0.38,0.69,0.57,-0.82,1.44,-0.04
909,1900-01-01 20:08:18.798,26.21,4.94,-35.03,0.09,0.44,0.9,-0.24,-0.27,-0.98,45.31,22.96,-50.35,0.38,0.69,0.57,-1.01,1.28,-0.11
910,1900-01-01 20:08:18.848,26.69,5.04,-35.02,0.09,0.45,0.89,0.13,-0.52,-0.86,45.83,22.52,-50.37,0.37,0.7,0.57,-0.95,1.06,-0.14
911,1900-01-01 20:08:18.937,26.29,4.75,-34.99,0.08,0.44,0.89,-0.4,-0.32,-0.86,45.53,22.69,-50.4,0.37,0.69,0.57,-0.9,1.33,0.11
912,1900-01-01 20:08:19.030,26.84,5.06,-34.97,0.09,0.45,0.89,-0.49,-0.34,-0.95,45.85,22.64,-50.39,0.37,0.7,0.56,-1.2,1.19,0.14
913,1900-01-01 20:08:19.077,26.46,4.99,-34.95,0.09,0.45,0.89,-0.44,-0.35,-1.01,45.7,22.76,-50.38,0.38,0.7,0.57,-1.09,1.28,-0.04
914,1900-01-01 20:08:19.170,26.65,4.93,-34.95,0.09,0.45,0.89,-0.66,-0.53,-0.89,45.54,22.89,-50.4,0.38,0.69,0.57,-1.01,1.37,0.04
915,1900-01-01 20:08:19.263,26.31,5.18,-34.93,0.09,0.45,0.9,-0.64,0.02,-0.91,45.22,23.22,-50.4,0.39,0.7,0.58,-1.32,1.24,0.16
916,1900-01-01 20:08:19.310,26.38,5.05,-34.91,0.09,0.44,0.88,0.24,-0.28,-1.06,45.52,23.05,-50.38,0.38,0.69,0.56,-1.03,0.47,-1.42
917,1900-01-01 20:08:19.404,26.84,4.66,-34.91,0.08,0.45,0.89,-0.5,-0.46,-1.23,46.24,22.23,-50.61,0.37,0.71,0.57,-1.08,1.19,-0.43
918,1900-01-01 20:08:19.450,26.96,4.8,-34.94,0.08,0.45,0.88,-0.21,-0.59,-1.04,46.3,22.29,-50.68,0.37,0.7,0.56,-1.32,0.95,-0.44
919,1900-01-01 20:08:19.543,26.67,4.76,-34.94,0.08,0.45,0.89,-0.94,-0.23,-0.8,45.36,22.72,-50.76,0.38,0.69,0.57,-1.66,1.08,-0.39
920,1900-01-01 20:08:19.638,26.72,5.05,-34.91,0.09,0.45,0.89,-0.62,-0.43,-1.37,45.77,22.98,-50.83,0.38,0.69,0.56,-1.07,0.77,-0.63
921,1900-01-01 20:08:19.716,27.09,5.33,-34.96,0.09,0.45,0.87,0.86,-0.85,-1.52,46.36,22.27,-50.93,0.36,0.69,0.55,0.5,-0.08,-1.5
922,1900-01-01 20:08:19.777,26.13,5.19,-35.03,0.09,0.44,0.9,0.24,-0.72,-2.7,44.19,24.07,-51.17,0.4,0.68,0.57,0.46,-0.05,-0.81
923,1900-01-01 20:08:19.868,25.61,4.96,-35.29,0.09,0.44,0.91,-1.3,-3.02,-4.82,45.72,25.1,-51.3,0.43,0.73,0.57,1.74,-4.66,4.19
924,1900-01-01 20:08:19.915,27.08,5.19,-35.87,0.09,0.47,0.92,1.22,-5.89,-4.0,47.48,23.02,-50.67,0.39,0.74,0.56,2.0,-2.7,1.24
925,1900-01-01 20:08:20.010,29.1,4.84,-36.32,0.09,0.49,0.88,-3.65,-3.89,-1.36,47.86,23.32,-50.49,0.38,0.71,0.52,-3.76,-5.98,6.53
926,1900-01-01 20:08:20.135,27.66,4.34,-36.37,0.08,0.46,0.88,-3.98,0.79,-0.69,46.54,24.52,-49.49,0.4,0.71,0.53,-5.51,-0.32,3.43
927,1900-01-01 20:08:20.162,25.65,5.14,-36.32,0.09,0.44,0.9,-1.89,-0.86,-1.01,44.2,27.05,-48.98,0.45,0.68,0.54,-1.24,0.95,0.59
928,1900-01-01 20:08:20.232,26.67,6.46,-36.31,0.11,0.45,0.89,-1.69,-1.69,-0.5,44.85,27.21,-48.9,0.45,0.69,0.53,-2.46,0.73,0.63
929,1900-01-01 20:08:20.315,25.91,6.56,-36.23,0.11,0.43,0.88,-0.8,-1.66,-1.21,45.0,26.74,-48.81,0.43,0.68,0.52,-0.6,-0.29,-0.07
930,1900-01-01 20:08:20.412,26.09,6.71,-36.26,0.12,0.44,0.89,-0.12,-1.84,-1.82,45.73,26.62,-48.83,0.44,0.7,0.52,-1.04,0.5,-1.05
931,1900-01-01 20:08:20.481,26.28,6.61,-36.38,0.12,0.44,0.89,-0.81,-0.99,-0.91,45.29,26.75,-48.99,0.44,0.69,0.53,-1.54,0.66,-0.19
932,1900-01-01 20:08:20.524,25.71,6.73,-36.36,0.12,0.43,0.89,-0.53,-0.6,-1.24,45.2,26.42,-49.03,0.43,0.69,0.53,-1.26,0.54,-0.38
933,1900-01-01 20:08:20.646,26.45,6.58,-36.39,0.11,0.45,0.89,-0.76,-0.53,-1.02,45.69,26.46,-49.1,0.44,0.7,0.53,-1.51,1.09,-0.24
934,1900-01-01 20:08:20.756,26.25,6.57,-36.39,0.11,0.44,0.89,-0.29,-0.37,-0.76,45.44,26.51,-49.14,0.44,0.7,0.53,-1.11,1.16,0.02
935,1900-01-01 20:08:20.777,25.82,6.35,-36.35,0.11,0.44,0.9,-0.43,-0.61,-0.74,44.69,27.22,-49.15,0.45,0.69,0.53,-0.81,0.6,-0.21
936,1900-01-01 20:08:20.851,26.05,6.98,-36.3,0.12,0.44,0.89,-0.89,-0.92,-1.13,45.53,26.64,-49.19,0.44,0.69,0.52,-1.29,0.89,-0.27
937,1900-01-01 20:08:20.943,26.23,6.63,-36.32,0.12,0.44,0.89,-0.82,-0.21,-0.86,45.53,26.68,-49.24,0.44,0.7,0.52,-1.45,1.2,-0.02
938,1900-01-01 20:08:20.991,26.31,6.58,-36.29,0.11,0.44,0.89,-0.69,-0.21,-1.22,45.77,26.58,-49.25,0.44,0.7,0.52,-0.85,1.24,0.22
939,1900-01-01 20:08:21.085,25.85,6.8,-36.32,0.12,0.44,0.9,-0.79,-1.66,-1.11,45.33,26.89,-49.23,0.45,0.71,0.54,-1.96,0.3,0.97
940,1900-01-01 20:08:21.190,26.09,7.4,-36.33,0.13,0.44,0.89,-0.18,-2.89,-0.98,44.86,27.81,-49.09,0.45,0.69,0.52,-0.76,-0.79,0.24
941,1900-01-01 20:08:21.225,25.99,7.34,-36.33,0.13,0.44,0.89,-0.55,-0.92,-1.08,45.42,27.07,-49.06,0.44,0.7,0.52,-1.17,0.15,0.16
942,1900-01-01 20:08:21.318,25.79,7.18,-36.33,0.13,0.44,0.89,0.13,-0.68,-0.73,44.61,27.49,-49.04,0.46,0.7,0.54,-0.32,0.54,2.04
943,1900-01-01 20:08:21.365,24.65,7.93,-36.29,0.14,0.42,0.91,-0.57,-3.71,-1.85,43.23,30.32,-48.74,0.5,0.68,0.52,3.44,0.76,5.21
944,1900-01-01 20:08:21.464,27.01,8.91,-36.41,0.16,0.46,0.88,-0.04,-4.56,-3.11,48.55,27.34,-47.95,0.45,0.73,0.46,2.02,2.75,5.66
