,Time,Roll1,Pitch1,Yaw1,AccX1,AccY1,AccZ1,RotX1,RotY1,RotZ1,Roll2,Pitch2,Yaw2,AccX2,AccY2,AccZ2,RotX2,RotY2,RotZ2
0,1900-01-01 13:37:26.155,51.09,0.44,0.16,0.01,0.86,0.7,3.63,14.98,-15.96,48.23,-3.61,-0.01,-0.07,0.87,0.77,1.68,10.2,-4.69
1,1900-01-01 13:37:26.249,55.47,-0.95,-2.11,-0.02,0.86,0.59,13.37,9.88,-2.71,45.12,-5.5,-0.73,-0.1,0.76,0.75,0.26,-0.27,0.57
2,1900-01-01 13:37:26.297,58.6,-3.61,-2.36,-0.06,0.87,0.53,-5.72,5.98,-2.51,44.99,-5.99,-0.65,-0.1,0.66,0.65,-2.34,1.44,3.85
3,1900-01-01 13:37:26.416,52.99,-3.96,-2.59,-0.07,0.77,0.58,-15.14,1.31,-1.66,40.58,-8.83,-0.08,-0.14,0.61,0.7,8.38,10.47,-0.46
4,1900-01-01 13:37:26.488,48.1,-2.86,-2.68,-0.05,0.71,0.64,2.63,-2.05,1.03,38.22,-6.94,-0.15,-0.11,0.58,0.73,4.87,10.37,-4.76
5,1900-01-01 13:37:26.535,54.22,-0.46,-2.36,-0.01,0.8,0.58,9.0,-3.08,3.38,46.16,-6.16,-0.89,-0.1,0.68,0.65,4.32,0.95,-4.37
6,1900-01-01 13:37:26.639,55.15,1.77,-1.69,0.03,0.8,0.55,6.34,0.5,-1.7,50.02,-4.64,-1.56,-0.07,0.7,0.59,11.16,5.25,-5.73
7,1900-01-01 13:37:26.677,55.32,-1.78,-1.79,-0.03,0.82,0.57,13.27,3.99,-7.66,49.32,-8.96,-2.43,-0.16,0.76,0.63,12.59,10.14,-8.69
8,1900-01-01 13:37:26.774,61.51,-2.51,-2.8,-0.04,0.89,0.48,10.28,1.08,-4.5,55.28,-12.88,-3.77,-0.24,0.87,0.55,-2.55,-2.88,-1.47
9,1900-01-01 13:37:26.867,59.58,-2.95,-3.33,-0.05,0.83,0.49,4.19,1.6,-3.34,51.1,-10.65,-4.0,-0.16,0.69,0.53,7.69,11.98,-4.05
10,1900-01-01 13:37:26.920,58.6,-3.49,-3.68,-0.06,0.81,0.49,19.1,1.57,-2.98,50.17,-12.35,-4.63,-0.19,0.67,0.52,37.44,27.68,-12.49
11,1900-01-01 13:37:27.031,66.63,-3.47,-3.98,-0.06,0.91,0.39,19.98,-0.04,-3.03,58.0,-18.53,-6.55,-0.33,0.88,0.44,6.76,9.24,-7.43
12,1900-01-01 13:37:27.056,68.8,-3.48,-4.28,-0.06,0.93,0.35,10.08,2.2,-1.05,60.77,-18.97,-7.69,-0.33,0.88,0.37,14.79,10.76,-5.4
13,1900-01-01 13:37:27.156,69.12,-3.73,-4.29,-0.06,0.92,0.34,-5.39,1.76,-2.21,59.3,-18.83,-8.52,-0.3,0.8,0.37,-7.84,3.67,-1.93
14,1900-01-01 13:37:27.304,66.3,-4.31,-4.47,-0.07,0.89,0.38,-5.86,0.29,-1.85,56.23,-19.98,-8.83,-0.33,0.81,0.43,-4.63,4.66,-1.36
15,1900-01-01 13:37:27.304,64.94,-4.45,-4.59,-0.08,0.88,0.41,0.63,-0.27,-0.5,56.1,-19.76,-9.04,-0.33,0.81,0.43,2.63,-0.25,1.21
16,1900-01-01 13:37:27.401,66.93,-4.04,-4.51,-0.07,0.89,0.37,5.02,-1.35,-0.37,58.74,-19.12,-8.87,-0.31,0.81,0.38,3.18,-2.85,1.08
17,1900-01-01 13:37:27.434,68.1,-4.32,-4.4,-0.08,0.93,0.37,1.73,-1.4,2.85,59.56,-19.08,-8.71,-0.33,0.88,0.39,0.23,-5.14,3.74
18,1900-01-01 13:37:27.531,66.78,-4.26,-3.81,-0.08,0.97,0.41,5.88,-6.76,12.4,57.05,-17.1,-8.15,-0.35,0.98,0.54,4.71,-24.62,14.05
19,1900-01-01 13:37:27.624,67.02,1.64,-1.76,0.03,1.07,0.45,-26.15,-22.11,19.06,61.51,-11.84,-6.01,-0.24,1.01,0.49,1.86,-25.61,16.6
20,1900-01-01 13:37:27.671,62.16,6.59,1.33,0.14,1.05,0.54,-20.81,-16.36,26.92,63.7,-6.9,-3.47,-0.15,1.1,0.52,-26.92,-16.62,22.11
21,1900-01-01 13:37:27.765,55.33,14.08,5.63,0.28,0.94,0.59,-27.11,-10.4,35.82,61.26,-0.93,-0.07,-0.02,1.0,0.55,-25.82,-10.21,38.36
22,1900-01-01 13:37:27.859,46.81,24.24,11.32,0.41,0.73,0.54,-31.35,-4.97,37.14,53.32,11.87,5.83,0.18,0.69,0.49,-25.66,-23.19,54.48
23,1900-01-01 13:37:27.906,43.93,26.37,17.2,0.37,0.58,0.47,-32.01,-1.47,26.79,48.67,20.4,14.23,0.23,0.51,0.38,-38.45,-11.18,24.89
24,1900-01-01 13:37:28.029,40.47,27.3,21.5,0.38,0.53,0.5,-22.58,3.89,11.39,45.15,20.24,18.06,0.25,0.52,0.45,-28.0,-2.28,19.37
25,1900-01-01 13:37:28.062,37.13,24.39,23.41,0.37,0.54,0.61,-24.02,5.81,4.03,38.04,22.31,21.03,0.31,0.51,0.57,-33.53,-1.68,15.13
26,1900-01-01 13:37:28.143,34.93,24.2,24.19,0.37,0.52,0.65,-19.27,6.89,1.57,31.39,23.92,23.35,0.33,0.43,0.62,-29.82,1.85,8.79
27,1900-01-01 13:37:28.234,35.06,20.98,24.59,0.34,0.54,0.7,-7.69,7.96,-3.7,34.36,18.06,24.68,0.28,0.51,0.69,-19.74,7.76,2.6
28,1900-01-01 13:37:28.298,32.76,15.11,24.18,0.25,0.52,0.77,-8.08,8.5,-4.47,25.02,13.45,25.07,0.22,0.41,0.84,-17.61,9.76,2.11
29,1900-01-01 13:37:28.409,30.87,14.4,23.65,0.24,0.5,0.81,-2.59,4.53,-2.45,19.03,11.17,25.38,0.2,0.33,0.94,-5.66,-4.92,0.67
30,1900-01-01 13:37:28.520,31.2,13.95,23.44,0.24,0.51,0.8,5.53,-0.36,-4.15,21.1,17.19,25.48,0.27,0.33,0.8,5.14,-10.91,-2.41
31,1900-01-01 13:37:28.520,34.76,12.51,22.96,0.22,0.58,0.81,16.76,3.7,-7.19,28.84,11.93,25.1,0.27,0.62,1.1,3.34,-25.61,1.21
32,1900-01-01 13:37:28.681,29.72,18.28,22.02,0.32,0.51,0.83,14.03,-11.76,0.49,27.99,26.92,25.28,0.44,0.46,0.74,7.76,9.5,-7.6
33,1900-01-01 13:37:28.681,37.32,19.46,22.25,0.33,0.6,0.72,0.42,-4.72,0.21,36.5,19.66,24.11,0.33,0.58,0.72,-3.73,-1.86,2.28
34,1900-01-01 13:37:28.782,35.51,17.97,22.44,0.32,0.59,0.77,-0.11,-0.4,1.46,22.86,25.12,24.45,0.42,0.38,0.8,-6.6,-4.51,3.9
35,1900-01-01 13:37:28.833,35.41,20.12,22.82,0.36,0.6,0.77,1.17,-1.92,0.21,27.26,27.51,25.03,0.46,0.45,0.75,1.07,-1.4,2.02
36,1900-01-01 13:37:28.928,36.7,20.9,23.02,0.36,0.6,0.72,1.8,-1.87,-0.34,27.73,24.9,25.33,0.41,0.46,0.76,-1.15,-1.42,-0.46
37,1900-01-01 13:37:28.972,35.53,20.1,23.12,0.34,0.57,0.73,0.75,1.11,-0.71,26.14,24.9,25.25,0.41,0.43,0.78,-2.21,-8.18,1.89
38,1900-01-01 13:37:29.060,35.56,20.29,23.17,0.35,0.59,0.75,-0.01,1.75,-1.43,27.36,28.38,25.53,0.46,0.45,0.73,0.34,-2.85,2.82
39,1900-01-01 13:37:29.188,36.4,20.43,23.11,0.35,0.59,0.72,0.74,1.41,-1.33,27.91,26.45,25.96,0.44,0.46,0.75,-0.63,3.08,-1.52
40,1900-01-01 13:37:29.308,37.06,18.83,23.07,0.33,0.61,0.74,-0.4,0.73,-1.47,26.68,28.07,25.72,0.46,0.44,0.74,-2.16,1.79,-0.57
41,1900-01-01 13:37:29.308,36.87,20.61,23.0,0.35,0.59,0.71,1.14,-2.71,-1.33,28.49,25.13,25.62,0.42,0.47,0.75,-1.85,5.89,-2.85
42,1900-01-01 13:37:29.361,35.97,19.98,22.96,0.34,0.58,0.73,1.07,-3.08,-1.73,26.82,25.04,25.17,0.41,0.44,0.76,-2.5,3.76,-2.14
43,1900-01-01 13:37:29.455,36.49,19.65,22.85,0.34,0.61,0.74,-0.37,-1.46,-2.12,27.41,26.27,24.84,0.44,0.45,0.76,-2.37,-1.18,0.85
44,1900-01-01 13:37:29.553,35.92,20.51,22.69,0.35,0.59,0.74,-0.44,0.16,-1.92,27.53,25.52,24.96,0.42,0.45,0.76,0.02,1.89,0.36
45,1900-01-01 13:37:29.697,35.87,19.41,22.55,0.33,0.59,0.74,-2.17,3.71,-2.16,26.45,25.73,25.01,0.42,0.43,0.76,-0.69,1.73,0.83
46,1900-01-01 13:37:29.697,36.33,19.48,22.38,0.33,0.59,0.73,-0.37,4.2,-2.96,27.72,25.74,25.13,0.42,0.45,0.75,0.63,0.72,1.29
47,1900-01-01 13:37:29.743,36.76,18.28,22.09,0.31,0.6,0.74,-2.05,3.89,-2.62,27.78,26.48,25.31,0.44,0.46,0.75,-2.09,0.21,1.92
48,1900-01-01 13:37:29.929,36.99,18.15,21.85,0.31,0.6,0.73,-1.29,0.69,-1.3,26.97,27.31,25.6,0.45,0.44,0.75,-1.5,-0.73,1.53
49,1900-01-01 13:37:29.929,36.85,18.53,21.81,0.32,0.6,0.73,-0.34,-1.86,0.02,26.87,26.84,25.82,0.44,0.44,0.75,-2.99,-0.39,-0.26
50,1900-01-01 13:37:29.969,36.92,17.5,21.97,0.3,0.61,0.75,0.27,-3.13,-0.38,26.02,27.48,25.77,0.45,0.43,0.75,-1.69,0.49,-0.63
51,1900-01-01 13:37:30.049,36.76,18.73,22.07,0.33,0.61,0.74,-0.03,-2.28,-1.55,27.07,27.14,25.67,0.45,0.45,0.75,-1.85,0.12,-0.27
52,1900-01-01 13:37:30.177,36.53,18.77,21.99,0.32,0.6,0.74,0.27,-1.21,-1.53,26.87,27.1,25.62,0.44,0.44,0.75,-0.94,1.83,-0.74
53,1900-01-01 13:37:30.292,36.96,18.95,21.92,0.32,0.6,0.73,0.23,-0.89,-1.58,27.16,27.0,25.5,0.44,0.45,0.75,-0.79,1.39,-0.38
54,1900-01-01 13:37:30.292,36.71,19.2,21.83,0.33,0.6,0.73,-0.22,-1.61,-0.87,26.86,27.07,25.43,0.45,0.44,0.75,-1.36,1.56,-0.36
55,1900-01-01 13:37:30.438,36.68,19.11,21.86,0.33,0.6,0.74,-0.89,-0.95,-0.75,26.57,27.05,25.37,0.44,0.44,0.75,-1.69,1.23,0.07
56,1900-01-01 13:37:30.545,36.7,18.91,21.9,0.33,0.6,0.74,-1.43,0.66,-1.27,26.28,27.26,25.37,0.45,0.43,0.75,-1.6,0.85,0.6
57,1900-01-01 13:37:30.545,36.74,18.88,21.87,0.33,0.61,0.74,-1.39,1.15,-1.22,26.65,27.63,25.45,0.45,0.44,0.75,-0.85,3.52,-0.14
58,1900-01-01 13:37:30.659,37.35,18.82,21.84,0.32,0.6,0.72,-1.5,0.89,-1.24,27.46,25.89,25.42,0.43,0.45,0.76,-1.74,2.41,0.09
59,1900-01-01 13:37:30.659,36.74,18.78,21.81,0.32,0.6,0.74,-0.81,0.0,-1.56,27.0,26.82,25.43,0.44,0.44,0.75,-1.29,1.64,-0.27
60,1900-01-01 13:37:30.785,36.59,18.64,21.73,0.32,0.6,0.74,-1.02,-0.13,-1.4,26.77,26.65,25.38,0.44,0.44,0.76,-2.14,0.69,0.15
61,1900-01-01 13:37:30.815,36.58,18.34,21.67,0.32,0.6,0.75,-1.63,-0.14,-1.45,26.13,26.83,25.39,0.44,0.43,0.76,-1.46,1.03,0.32
62,1900-01-01 13:37:30.921,33.33,18.08,21.61,0.33,0.58,0.81,3.89,1.68,0.76,24.12,27.87,25.43,0.47,0.41,0.78,14.69,7.79,6.18
63,1900-01-01 13:37:31.036,36.6,16.79,21.88,0.3,0.62,0.78,-1.37,3.29,3.05,30.28,23.44,26.36,0.41,0.53,0.8,19.05,15.32,-0.18
64,1900-01-01 13:37:31.036,35.9,16.89,22.51,0.31,0.63,0.81,-6.43,-1.95,3.97,31.95,22.58,26.33,0.44,0.61,0.87,-7.35,9.85,0.68
65,1900-01-01 13:37:31.158,32.59,18.19,23.27,0.33,0.57,0.82,-12.75,-7.63,4.09,25.68,21.37,26.42,0.38,0.46,0.87,-10.16,-4.07,2.16
66,1900-01-01 13:37:31.191,33.25,18.81,24.06,0.32,0.54,0.75,-12.05,-8.66,2.12,27.73,23.71,26.75,0.36,0.42,0.7,-7.63,-6.74,1.05
67,1900-01-01 13:37:31.283,34.49,19.23,24.54,0.3,0.52,0.69,-10.68,-4.09,-3.56,32.92,20.94,26.9,0.31,0.47,0.65,-12.37,-1.32,-3.7
68,1900-01-01 13:37:31.412,30.45,20.98,24.15,0.34,0.48,0.75,-15.25,-1.43,-7.6,25.78,23.9,26.32,0.37,0.4,0.74,-21.14,1.7,-7.44
69,1900-01-01 13:37:31.412,27.57,23.4,23.14,0.4,0.47,0.8,-12.98,-2.26,-7.31,24.4,26.79,25.17,0.45,0.42,0.8,-14.5,-4.74,-7.93
70,1900-01-01 13:37:31.537,23.68,23.75,22.17,0.43,0.43,0.88,-22.02,-1.83,-2.85,19.23,30.5,23.93,0.52,0.34,0.81,-34.86,-1.25,-3.68
71,1900-01-01 13:37:31.659,22.03,23.86,21.89,0.42,0.39,0.87,-9.56,-2.29,1.54,20.8,22.68,23.36,0.4,0.37,0.89,-13.69,11.22,-6.05
72,1900-01-01 13:37:31.659,19.55,22.67,22.29,0.39,0.34,0.88,-13.34,-2.39,2.35,13.56,24.6,22.42,0.42,0.23,0.88,-12.96,-0.7,2.29
73,1900-01-01 13:37:31.784,22.47,23.06,22.81,0.38,0.37,0.82,-4.22,-3.79,2.25,18.19,23.41,22.76,0.37,0.29,0.81,-0.11,-4.62,2.56
74,1900-01-01 13:37:31.812,22.41,22.92,23.31,0.36,0.36,0.78,-2.08,-4.39,1.54,18.27,23.89,23.15,0.36,0.28,0.77,0.34,-4.56,1.79
75,1900-01-01 13:37:31.905,20.18,23.81,23.7,0.38,0.33,0.8,0.15,-4.27,0.69,14.83,26.54,23.41,0.4,0.23,0.77,1.57,-2.41,0.44
76,1900-01-01 13:37:31.989,20.95,24.04,23.96,0.4,0.35,0.82,3.59,-3.85,-1.47,17.16,25.42,23.47,0.4,0.28,0.8,3.43,-0.21,-1.63
77,1900-01-01 13:37:32.036,21.63,24.68,23.9,0.42,0.37,0.84,3.28,-1.98,-1.08,19.14,25.61,23.21,0.42,0.32,0.82,2.08,0.69,0.06
78,1900-01-01 13:37:32.154,21.69,24.56,23.89,0.43,0.38,0.85,5.53,0.05,0.44,19.69,25.26,23.21,0.42,0.33,0.83,6.12,2.35,2.18
79,1900-01-01 13:37:32.184,19.49,24.73,24.12,0.44,0.35,0.89,0.93,-0.07,1.09,14.64,26.97,23.54,0.46,0.26,0.88,-0.02,0.82,2.82
80,1900-01-01 13:37:32.273,19.86,24.38,24.44,0.44,0.36,0.9,-2.05,-3.19,0.67,15.25,25.9,23.96,0.47,0.28,0.92,-3.89,-2.99,1.08
81,1900-01-01 13:37:32.417,20.98,24.96,24.7,0.45,0.38,0.88,-2.06,-6.63,1.32,17.94,25.59,24.11,0.45,0.32,0.89,-0.43,-7.59,1.24
82,1900-01-01 13:37:32.512,19.68,26.18,25.06,0.45,0.35,0.85,-4.99,-7.28,1.33,15.03,29.55,24.29,0.48,0.25,0.8,-2.85,-6.43,0.56
83,1900-01-01 13:37:32.536,17.76,28.96,25.42,0.48,0.3,0.82,-3.78,-4.52,-2.04,15.26,33.85,24.37,0.51,0.24,0.72,-4.22,-1.37,-3.13
84,1900-01-01 13:37:32.637,16.21,30.86,25.27,0.5,0.27,0.79,-6.05,-0.12,-4.82,13.77,33.58,23.88,0.51,0.22,0.74,-9.42,3.4,-4.76
85,1900-01-01 13:37:32.637,17.33,29.87,24.69,0.48,0.28,0.78,-0.73,-0.28,-7.05,15.45,30.02,23.15,0.47,0.25,0.77,-0.94,1.56,-5.58
86,1900-01-01 13:37:32.755,19.06,31.16,23.77,0.51,0.32,0.77,-0.64,-0.2,-7.03,18.5,34.23,22.28,0.53,0.3,0.72,-1.33,-2.7,-7.0
87,1900-01-01 13:37:32.829,23.48,29.11,22.85,0.51,0.42,0.81,-0.82,-1.73,-0.21,24.21,27.05,21.2,0.48,0.44,0.84,-4.52,2.47,-1.51
88,1900-01-01 13:37:32.878,23.49,31.65,22.98,0.55,0.42,0.79,11.47,0.21,5.77,22.43,32.04,20.96,0.54,0.39,0.77,23.93,-7.37,12.37
89,1900-01-01 13:37:33.001,23.63,28.86,24.02,0.51,0.43,0.83,8.07,1.08,0.27,20.93,33.18,22.84,0.54,0.35,0.74,12.4,5.7,13.27
90,1900-01-01 13:37:33.032,21.74,24.68,24.22,0.42,0.37,0.84,-2.68,4.64,-7.12,17.6,24.44,24.85,0.41,0.3,0.86,-8.22,-1.34,0.23
91,1900-01-01 13:37:33.120,22.16,21.48,23.29,0.39,0.4,0.9,-3.33,5.44,-14.56,20.62,32.35,24.88,0.53,0.35,0.76,4.07,-0.73,-3.43
92,1900-01-01 13:37:33.242,22.61,24.07,21.21,0.41,0.39,0.84,-10.63,7.01,-16.73,17.28,31.46,24.35,0.5,0.29,0.77,-3.76,-0.97,4.44
93,1900-01-01 13:37:33.242,20.1,24.77,18.81,0.38,0.32,0.77,3.7,9.48,-17.66,23.42,17.38,25.02,0.33,0.44,0.97,20.43,-52.09,35.92
94,1900-01-01 13:37:33.429,21.45,17.63,16.25,0.32,0.39,0.94,5.47,-9.23,-4.69,13.63,50.98,30.53,0.78,0.24,0.58,18.51,-11.54,19.97
95,1900-01-01 13:37:33.479,20.57,23.65,15.69,0.38,0.33,0.79,5.71,-13.52,-2.52,20.79,44.39,33.58,0.64,0.32,0.56,14.2,7.3,2.15
96,1900-01-01 13:37:33.600,24.18,22.97,15.46,0.37,0.39,0.78,-4.52,-9.0,-2.69,18.96,38.88,33.9,0.58,0.3,0.65,-12.93,3.22,-3.31
97,1900-01-01 13:37:33.627,21.44,20.89,15.21,0.35,0.36,0.85,-7.2,-9.29,-4.44,18.07,35.07,33.39,0.56,0.3,0.74,-22.34,2.93,-14.07
98,1900-01-01 13:37:33.726,19.12,21.85,14.68,0.37,0.33,0.87,-12.59,-9.65,-6.44,12.39,38.5,31.21,0.59,0.2,0.71,-29.85,5.21,-31.82
99,1900-01-01 13:37:33.726,16.62,26.44,13.85,0.44,0.28,0.83,-22.24,-4.78,-12.98,11.45,43.24,26.3,0.66,0.19,0.68,-50.0,-16.95,-27.78
100,1900-01-01 13:37:33.843,16.64,30.84,11.99,0.51,0.29,0.81,-7.43,-7.69,-10.64,18.02,38.03,21.98,0.62,0.31,0.73,-32.35,5.45,-28.95
101,1900-01-01 13:37:33.968,19.21,29.83,10.51,0.53,0.35,0.85,-16.24,-8.55,-5.44,17.95,42.54,17.5,0.69,0.31,0.68,-40.79,7.28,-25.44
102,1900-01-01 13:37:33.968,18.04,31.89,9.83,0.57,0.33,0.85,-7.1,-5.07,0.77,17.3,37.68,13.57,0.64,0.31,0.77,-13.48,3.53,-14.98
103,1900-01-01 13:37:34.077,15.15,31.72,10.11,0.57,0.29,0.88,-10.53,-1.69,4.16,13.31,35.53,11.27,0.61,0.24,0.82,-25.27,10.56,-6.31
104,1900-01-01 13:37:34.189,12.73,28.53,10.91,0.51,0.24,0.91,-10.05,4.32,5.02,7.06,33.11,10.29,0.55,0.12,0.83,-17.31,7.08,10.44
105,1900-01-01 13:37:34.189,12.76,24.8,11.83,0.43,0.23,0.91,-9.08,8.06,4.34,2.53,26.99,11.88,0.46,0.04,0.9,-11.29,6.86,10.61
106,1900-01-01 13:37:34.328,11.26,23.61,12.65,0.39,0.19,0.88,-8.02,7.4,0.73,0.16,29.74,13.49,0.46,0.0,0.81,-7.56,3.7,4.82
107,1900-01-01 13:37:34.328,13.8,21.78,12.92,0.36,0.23,0.87,-6.04,4.46,-4.15,2.98,25.95,14.21,0.42,0.05,0.85,-7.29,4.81,-1.58
108,1900-01-01 13:37:34.455,16.39,23.1,12.45,0.38,0.27,0.85,0.12,-0.48,-4.61,7.36,24.71,13.96,0.4,0.12,0.87,-0.08,0.91,-4.47
109,1900-01-01 13:37:34.482,12.2,25.94,11.9,0.45,0.22,0.89,1.79,-0.7,-5.88,5.98,30.99,13.27,0.5,0.1,0.83,2.18,3.5,-4.46
110,1900-01-01 13:37:34.565,15.54,22.63,11.17,0.41,0.29,0.95,0.83,-0.53,-4.35,6.82,25.21,12.58,0.45,0.12,0.94,1.44,4.16,-0.3
111,1900-01-01 13:37:34.689,15.55,21.33,10.66,0.38,0.28,0.93,-1.59,-2.63,-5.69,4.3,24.0,12.53,0.41,0.08,0.93,0.14,-0.74,-4.5
112,1900-01-01 13:37:34.717,13.69,22.0,9.95,0.38,0.24,0.92,-4.32,-3.77,-8.03,4.96,25.79,11.83,0.43,0.08,0.88,-4.78,-1.21,-6.11
113,1900-01-01 13:37:34.807,8.0,26.13,8.89,0.45,0.14,0.91,-3.67,-3.07,-8.9,2.04,33.11,10.89,0.53,0.03,0.81,-2.44,-2.19,-6.21
114,1900-01-01 13:37:34.928,8.09,28.62,7.69,0.47,0.14,0.84,-5.36,-2.07,-7.58,4.17,33.17,9.94,0.52,0.07,0.79,-7.33,0.3,-6.73
115,1900-01-01 13:37:34.928,11.88,31.07,6.69,0.48,0.19,0.78,-3.65,-2.98,-6.02,7.93,36.11,8.9,0.53,0.12,0.71,-1.89,0.6,-7.26
116,1900-01-01 13:37:35.040,14.23,26.92,5.94,0.43,0.23,0.81,3.75,-6.5,-6.1,8.24,28.78,7.79,0.45,0.13,0.8,5.1,0.08,-7.8
117,1900-01-01 13:37:35.081,12.2,26.55,5.17,0.46,0.22,0.9,8.04,-4.6,-4.24,8.61,31.13,6.6,0.5,0.14,0.81,7.26,3.21,-6.55
118,1900-01-01 13:37:35.169,9.66,27.87,4.69,0.51,0.18,0.95,2.15,2.24,-1.3,5.29,33.49,5.6,0.57,0.1,0.86,0.08,7.71,0.94
119,1900-01-01 13:37:35.312,9.17,28.0,4.65,0.51,0.17,0.95,-1.34,0.82,-1.81,2.45,30.83,5.73,0.56,0.05,0.93,-4.21,7.63,-1.83
120,1900-01-01 13:37:35.312,12.18,28.82,4.54,0.49,0.21,0.87,-0.4,-5.97,-1.69,6.36,29.48,5.45,0.5,0.11,0.87,2.24,-2.16,-4.93
121,1900-01-01 13:37:35.454,13.4,29.57,4.44,0.48,0.23,0.82,2.36,-8.65,0.19,9.57,29.06,4.69,0.46,0.16,0.81,3.72,-3.03,-3.85
122,1900-01-01 13:37:35.491,16.46,29.58,4.62,0.48,0.28,0.8,5.34,-8.1,0.56,13.09,29.22,4.1,0.46,0.21,0.79,7.63,-4.56,-1.41
123,1900-01-01 13:37:35.539,17.02,30.67,4.87,0.51,0.29,0.81,5.32,-6.47,-0.16,12.24,31.35,3.87,0.5,0.2,0.79,6.27,-3.66,-2.6
124,1900-01-01 13:37:35.651,17.14,32.69,5.0,0.57,0.31,0.83,5.7,-5.9,-0.09,15.76,31.69,3.47,0.53,0.27,0.81,6.4,-1.12,-1.16
125,1900-01-01 13:37:35.683,17.31,31.83,5.15,0.56,0.31,0.84,1.81,-5.04,1.78,14.54,29.79,3.29,0.51,0.26,0.86,1.93,-2.05,0.85
126,1900-01-01 13:37:35.772,17.63,33.1,5.57,0.55,0.3,0.79,0.15,-5.61,0.99,14.06,33.1,3.41,0.52,0.23,0.76,1.64,-4.47,-0.21
127,1900-01-01 13:37:35.899,17.39,35.61,5.88,0.59,0.3,0.76,-1.18,-2.69,-0.63,16.98,34.45,3.37,0.54,0.28,0.74,-2.89,-0.02,-1.96
128,1900-01-01 13:37:35.925,16.16,34.65,5.95,0.58,0.28,0.78,-2.68,-0.49,-0.29,14.83,33.03,3.06,0.53,0.25,0.78,-3.97,0.81,0.5
129,1900-01-01 13:37:36.010,14.45,33.97,6.06,0.56,0.25,0.8,-4.48,0.03,-0.23,11.27,34.35,3.13,0.55,0.19,0.78,-5.55,-0.44,0.66
130,1900-01-01 13:37:36.269,14.47,34.25,6.18,0.58,0.26,0.81,-2.94,3.87,-2.66,13.78,33.96,3.22,0.54,0.23,0.76,-5.98,4.23,0.2
131,1900-01-01 13:37:36.269,17.47,32.02,5.94,0.57,0.32,0.85,-3.03,8.01,-1.85,16.81,30.39,3.24,0.52,0.3,0.84,-5.87,10.2,4.87
132,1900-01-01 13:37:36.269,15.92,32.19,5.81,0.56,0.29,0.85,-5.06,9.02,3.22,12.04,31.35,3.97,0.54,0.22,0.86,-6.58,4.68,9.89
133,1900-01-01 13:37:36.301,12.88,31.44,6.46,0.54,0.23,0.85,-1.99,3.7,5.05,7.73,29.22,5.46,0.51,0.14,0.9,-0.73,0.71,9.76
134,1900-01-01 13:37:36.381,17.48,29.12,7.38,0.49,0.3,0.83,4.63,-1.6,2.87,12.35,30.46,6.93,0.49,0.21,0.81,16.37,-11.43,15.02
135,1900-01-01 13:37:36.468,15.82,29.88,7.98,0.5,0.27,0.82,0.0,-3.26,2.98,7.83,36.64,9.21,0.55,0.13,0.73,-0.6,-1.06,0.24
136,1900-01-01 13:37:36.530,14.12,29.35,8.59,0.49,0.25,0.84,-0.1,-2.16,-1.93,9.83,32.39,9.24,0.51,0.16,0.79,-3.49,3.41,-5.08
137,1900-01-01 13:37:36.635,12.93,27.21,8.45,0.47,0.23,0.88,-3.38,0.58,-0.71,9.92,28.63,8.46,0.48,0.17,0.85,-5.67,1.92,1.11
138,1900-01-01 13:37:36.745,15.33,26.05,8.5,0.44,0.27,0.87,-1.92,0.63,-0.95,9.15,29.15,8.62,0.47,0.15,0.83,0.08,2.47,1.44
139,1900-01-01 13:37:36.773,15.97,29.27,8.52,0.5,0.28,0.85,5.27,3.35,-1.46,14.91,31.82,8.82,0.51,0.25,0.78,6.37,7.92,0.2
140,1900-01-01 13:37:36.883,12.75,30.05,8.45,0.52,0.23,0.87,-0.34,7.12,0.65,9.26,32.84,8.84,0.54,0.16,0.82,-2.98,14.09,5.06
141,1900-01-01 13:37:36.990,13.46,30.36,8.71,0.51,0.24,0.84,0.22,4.45,1.44,8.86,29.08,9.6,0.49,0.16,0.87,-3.35,11.36,4.24
142,1900-01-01 13:37:36.990,11.66,31.08,9.09,0.53,0.21,0.85,1.02,1.5,0.24,8.45,32.36,10.24,0.54,0.15,0.83,3.18,2.56,1.56
143,1900-01-01 13:37:37.110,11.66,31.32,9.28,0.54,0.21,0.87,-1.91,-0.1,-1.04,8.02,32.39,10.46,0.55,0.14,0.85,-3.49,-0.72,-0.82
144,1900-01-01 13:37:37.141,14.18,30.16,9.28,0.52,0.26,0.86,-0.96,-2.85,-0.57,11.52,28.82,10.33,0.49,0.2,0.87,-1.34,-1.66,-1.34
145,1900-01-01 13:37:37.226,13.48,29.7,9.35,0.5,0.24,0.85,-0.88,-3.38,0.94,10.32,31.18,10.11,0.5,0.17,0.81,0.53,-2.79,0.25
146,1900-01-01 13:37:37.348,13.13,29.52,9.65,0.49,0.22,0.83,-1.23,-1.92,0.66,9.37,31.03,10.14,0.48,0.15,0.79,-0.74,-1.12,1.31
147,1900-01-01 13:37:37.465,13.41,29.44,9.91,0.48,0.23,0.83,0.11,-0.26,-0.97,10.27,31.16,10.33,0.48,0.17,0.78,-0.84,1.47,-0.13
148,1900-01-01 13:37:37.465,12.91,29.49,9.92,0.5,0.22,0.85,-0.17,1.68,-2.14,9.1,31.66,10.31,0.51,0.15,0.81,-1.25,4.05,-0.69
149,1900-01-01 13:37:37.598,14.16,29.32,9.75,0.5,0.25,0.86,0.15,0.98,-2.89,10.65,29.48,10.19,0.49,0.18,0.85,-2.11,3.63,-1.83
150,1900-01-01 13:37:37.598,14.77,29.36,9.47,0.5,0.26,0.86,0.34,-0.34,-2.34,11.4,29.16,9.91,0.49,0.2,0.85,-0.37,1.36,-1.5
151,1900-01-01 13:37:37.719,14.37,29.61,9.28,0.51,0.25,0.85,0.63,-0.52,-1.63,11.37,30.02,9.67,0.5,0.2,0.84,0.18,1.47,-0.82
152,1900-01-01 13:37:37.752,14.1,29.54,9.19,0.51,0.25,0.86,-0.56,-0.69,-1.56,10.38,30.14,9.54,0.5,0.18,0.84,-1.24,1.12,-0.73
153,1900-01-01 13:37:37.824,14.82,29.65,9.11,0.51,0.26,0.85,0.1,-1.27,-1.74,12.0,29.75,9.42,0.49,0.21,0.83,-0.73,0.66,-0.97
154,1900-01-01 13:37:37.968,15.05,29.68,9.0,0.51,0.26,0.85,-0.09,-0.46,-0.8,12.06,29.98,9.26,0.49,0.2,0.82,-0.79,1.45,0.21
155,1900-01-01 13:37:37.968,14.4,29.41,9.04,0.5,0.25,0.86,-0.69,-0.52,-0.72,10.4,29.89,9.28,0.49,0.18,0.84,-1.62,1.47,0.19
156,1900-01-01 13:37:38.095,14.65,29.9,9.09,0.51,0.26,0.85,-0.43,-1.02,-1.15,11.49,29.86,9.3,0.49,0.2,0.83,-1.73,0.33,-0.47
157,1900-01-01 13:37:38.125,14.67,29.94,9.07,0.51,0.26,0.85,-0.86,-0.97,-1.27,11.65,30.01,9.23,0.49,0.2,0.83,-1.55,0.59,-0.58
158,1900-01-01 13:37:38.215,14.46,30.34,9.03,0.52,0.26,0.84,-1.51,-0.55,-0.82,10.84,30.55,9.13,0.5,0.19,0.83,-2.57,0.38,0.12
159,1900-01-01 13:37:38.340,14.63,30.27,9.07,0.51,0.26,0.84,-0.24,-0.92,-0.69,11.86,30.03,9.14,0.49,0.2,0.83,-0.71,0.89,0.08
160,1900-01-01 13:37:38.371,14.37,30.37,9.12,0.52,0.25,0.84,-0.96,-0.52,-0.44,11.55,30.6,9.14,0.5,0.2,0.82,-1.75,1.48,0.38
161,1900-01-01 13:37:38.487,14.09,30.2,9.21,0.51,0.25,0.85,-0.56,-0.38,-0.44,10.85,30.57,9.19,0.5,0.19,0.83,-0.96,1.5,0.31
162,1900-01-01 13:37:38.576,14.12,30.42,9.3,0.52,0.25,0.85,-1.16,-0.7,-0.76,10.96,30.59,9.23,0.5,0.19,0.83,-1.73,0.54,-0.02
163,1900-01-01 13:37:38.576,13.95,30.76,9.35,0.52,0.25,0.85,-1.57,-0.5,-0.77,11.17,30.88,9.22,0.51,0.19,0.82,-2.47,0.79,0.14
164,1900-01-01 13:37:38.685,13.95,29.83,9.39,0.51,0.25,0.85,-1.64,-0.34,-0.65,10.59,29.97,9.23,0.49,0.18,0.83,-2.53,1.4,0.06
165,1900-01-01 13:37:38.727,13.42,30.09,9.45,0.5,0.23,0.84,-1.55,-0.13,-1.53,9.82,31.12,9.23,0.49,0.16,0.8,-2.51,2.73,-1.44
166,1900-01-01 13:37:38.830,14.41,29.75,9.37,0.5,0.25,0.84,-1.65,0.79,-1.92,10.84,29.38,9.0,0.48,0.18,0.82,-3.6,5.22,-2.3
167,1900-01-01 13:37:38.952,14.32,29.4,9.24,0.49,0.25,0.84,0.02,0.31,-1.68,10.67,27.95,8.65,0.46,0.18,0.85,-0.72,3.44,-0.91
168,1900-01-01 13:37:38.952,13.6,30.13,9.14,0.51,0.24,0.85,0.11,0.18,-2.11,10.38,30.31,8.5,0.49,0.17,0.82,-1.13,2.54,-1.21
169,1900-01-01 13:37:39.068,14.03,30.21,8.98,0.52,0.25,0.85,-0.05,0.63,-2.27,11.14,29.12,8.31,0.48,0.19,0.85,-1.5,3.56,-0.98
170,1900-01-01 13:37:39.188,14.55,29.69,8.8,0.51,0.26,0.85,0.83,-0.19,-1.26,11.09,27.76,8.15,0.46,0.19,0.86,0.4,2.84,-0.2
171,1900-01-01 13:37:39.188,14.08,29.82,8.76,0.5,0.25,0.84,-0.21,-0.24,-0.89,9.87,29.3,8.11,0.47,0.16,0.82,-0.48,1.59,-0.08
172,1900-01-01 13:37:39.305,14.82,29.8,8.79,0.49,0.25,0.82,0.18,0.98,-2.08,10.86,28.8,8.09,0.45,0.18,0.8,-1.59,3.63,-0.79
173,1900-01-01 13:37:39.338,16.1,28.59,8.63,0.46,0.27,0.81,2.37,2.46,-3.47,12.24,26.65,7.96,0.41,0.19,0.8,0.02,5.61,-1.63
174,1900-01-01 13:37:39.420,15.19,28.0,8.26,0.46,0.26,0.83,5.03,3.37,-4.95,10.68,26.86,7.71,0.42,0.17,0.82,3.63,7.48,-2.56
175,1900-01-01 13:37:39.538,15.51,27.97,7.67,0.47,0.27,0.84,5.59,4.8,-7.27,10.98,26.74,7.31,0.43,0.18,0.83,2.87,9.34,-4.39
176,1900-01-01 13:37:39.659,19.03,28.54,6.73,0.46,0.32,0.79,6.89,9.21,-8.37,16.22,26.33,6.64,0.39,0.25,0.75,2.96,12.72,-3.79
177,1900-01-01 13:37:39.659,18.7,29.18,5.61,0.46,0.3,0.77,9.39,16.08,-10.28,13.58,27.6,6.05,0.4,0.2,0.75,5.56,20.15,-2.03
178,1900-01-01 13:37:39.770,19.08,27.01,4.2,0.46,0.33,0.84,11.66,16.43,-15.37,14.62,22.78,5.74,0.39,0.25,0.9,6.13,20.89,-7.01
179,1900-01-01 13:37:39.891,23.2,22.28,2.01,0.42,0.44,0.93,10.47,10.97,-11.47,18.37,18.1,4.66,0.35,0.36,1.01,8.39,12.1,-4.6
180,1900-01-01 13:37:39.891,26.79,19.88,0.42,0.39,0.51,0.94,7.37,7.03,-6.12,19.01,14.92,3.95,0.3,0.37,1.05,0.58,-5.87,1.96
181,1900-01-01 13:37:40.003,26.2,16.24,-0.35,0.31,0.48,0.93,3.0,4.05,0.35,21.14,18.25,4.23,0.32,0.37,0.91,2.87,-1.87,1.93
182,1900-01-01 13:37:40.122,26.04,16.46,-0.14,0.29,0.45,0.87,0.47,6.95,1.76,19.62,16.97,4.52,0.28,0.33,0.87,-1.51,6.19,6.26
183,1900-01-01 13:37:40.122,27.43,11.73,0.29,0.21,0.47,0.87,-3.5,8.14,2.5,17.94,11.98,5.46,0.2,0.3,0.91,-8.33,8.17,6.4
184,1900-01-01 13:37:40.236,29.09,8.4,0.83,0.13,0.44,0.78,-0.03,4.97,1.8,15.64,7.88,6.42,0.12,0.24,0.85,-1.05,0.77,6.47
185,1900-01-01 13:37:40.350,30.17,2.33,1.26,0.04,0.54,0.93,1.53,-4.05,0.52,12.08,6.82,7.38,0.13,0.22,1.03,-2.39,-1.35,0.82
186,1900-01-01 13:37:40.350,30.2,11.13,1.49,0.2,0.51,0.85,5.78,-9.38,-0.42,19.59,13.1,7.5,0.22,0.32,0.88,-2.71,-0.72,1.42
187,1900-01-01 13:37:40.411,27.64,14.09,1.59,0.25,0.48,0.88,-0.37,-5.69,0.82,16.06,20.1,7.71,0.3,0.24,0.78,-9.53,7.31,-0.47
188,1900-01-01 13:37:40.502,26.31,17.92,1.87,0.31,0.45,0.85,4.56,-3.5,0.75,15.59,17.29,7.63,0.29,0.26,0.88,9.17,11.67,-0.48
189,1900-01-01 13:37:40.551,32.96,19.79,2.14,0.34,0.55,0.77,10.98,-5.99,1.24,22.97,13.28,7.55,0.23,0.4,0.91,3.48,7.46,4.56
190,1900-01-01 13:37:40.646,31.77,18.28,2.49,0.31,0.51,0.77,7.64,-11.52,0.86,15.56,11.8,8.23,0.2,0.26,0.93,1.89,-0.82,-0.4
191,1900-01-01 13:37:40.696,32.29,19.73,2.78,0.34,0.54,0.78,10.55,-14.19,-2.62,19.87,13.5,8.16,0.22,0.33,0.88,4.66,-3.99,-0.32
192,1900-01-01 13:37:40.831,33.61,21.82,2.54,0.38,0.57,0.77,8.37,-12.11,-3.47,20.46,15.25,8.1,0.25,0.34,0.86,-0.15,-2.23,-2.13
193,1900-01-01 13:37:40.927,35.38,22.31,2.17,0.39,0.6,0.74,2.53,-9.68,-4.98,23.0,14.77,7.77,0.25,0.38,0.85,-3.24,-0.31,-1.99
194,1900-01-01 13:37:40.927,33.52,23.72,1.57,0.41,0.57,0.75,-0.02,-4.82,-4.1,18.25,15.73,7.45,0.26,0.3,0.88,-2.41,0.92,-0.95
195,1900-01-01 13:37:41.166,34.36,22.42,1.1,0.38,0.57,0.73,2.85,-0.53,-4.53,18.77,14.69,7.3,0.25,0.31,0.88,1.03,0.11,-1.0
196,1900-01-01 13:37:41.166,37.86,23.06,0.57,0.41,0.64,0.72,-5.11,1.19,-4.57,25.42,15.21,7.14,0.26,0.42,0.85,-3.19,2.95,-0.56
197,1900-01-01 13:37:41.166,34.14,20.85,0.03,0.35,0.55,0.73,-1.0,3.58,-3.04,17.12,13.99,7.04,0.23,0.28,0.89,-1.5,1.73,-1.25
198,1900-01-01 13:37:41.275,35.64,21.58,-0.27,0.37,0.59,0.74,-5.8,3.66,-2.77,21.2,15.52,6.85,0.26,0.35,0.87,-3.58,2.73,0.69
199,1900-01-01 13:37:41.346,35.7,20.73,-0.54,0.35,0.58,0.73,-1.88,2.51,-3.37,19.89,14.24,6.94,0.24,0.33,0.88,-0.37,1.34,-0.48
200,1900-01-01 13:37:41.393,35.46,19.93,-0.89,0.34,0.57,0.73,-2.16,0.89,-3.43,20.35,14.22,6.86,0.24,0.34,0.88,-2.03,1.04,-0.24
201,1900-01-01 13:37:41.505,34.85,20.29,-1.25,0.35,0.57,0.75,-0.75,0.03,-2.24,19.51,15.0,6.82,0.25,0.32,0.88,-1.18,0.78,-0.11
202,1900-01-01 13:37:41.532,35.48,19.71,-1.44,0.34,0.58,0.74,-0.98,-0.01,-2.31,19.84,14.53,6.79,0.24,0.33,0.88,-0.92,1.08,-0.48
203,1900-01-01 13:37:41.620,34.69,19.44,-1.63,0.34,0.58,0.76,-0.92,0.88,-1.97,20.04,14.52,6.71,0.24,0.33,0.87,-1.53,1.21,0.08
204,1900-01-01 13:37:41.737,34.65,19.55,-1.77,0.33,0.57,0.75,-1.77,2.14,-1.2,19.59,14.66,6.71,0.25,0.33,0.88,-1.08,1.88,0.73
205,1900-01-01 13:37:41.766,36.36,19.2,-1.8,0.33,0.6,0.74,-1.94,1.37,-2.08,20.41,14.33,6.82,0.24,0.34,0.88,-3.58,1.17,-0.34
206,1900-01-01 13:37:41.849,34.78,18.64,-1.96,0.32,0.58,0.76,-0.37,1.38,-3.89,18.97,14.53,6.75,0.24,0.32,0.88,-1.31,1.02,-0.79
207,1900-01-01 13:37:41.967,34.95,18.09,-2.39,0.31,0.58,0.76,-2.15,3.66,-3.73,19.3,14.34,6.62,0.24,0.32,0.88,-1.23,1.21,-0.08
208,1900-01-01 13:37:42.000,34.62,17.04,-2.8,0.29,0.57,0.77,-2.63,4.4,-3.3,19.21,14.22,6.6,0.24,0.32,0.88,-1.35,0.96,0.23
209,1900-01-01 13:37:42.081,34.52,16.79,-3.14,0.29,0.57,0.77,-5.92,4.47,-1.5,19.28,14.61,6.63,0.24,0.32,0.88,-3.66,1.02,1.31
210,1900-01-01 13:37:42.201,34.34,16.02,-3.21,0.27,0.56,0.77,-3.79,2.27,-1.26,19.09,14.26,6.82,0.24,0.32,0.88,-2.4,1.95,0.34
211,1900-01-01 13:37:42.235,33.66,15.91,-3.25,0.27,0.55,0.78,-1.44,0.32,-1.28,18.31,14.52,6.86,0.24,0.3,0.89,-1.69,1.36,-0.03
212,1900-01-01 13:37:42.315,33.54,15.96,-3.28,0.28,0.55,0.79,-0.79,-0.62,-1.33,18.75,14.51,6.85,0.24,0.31,0.88,-1.44,1.15,0.0
213,1900-01-01 13:37:42.434,33.44,16.09,-3.33,0.28,0.55,0.79,-0.29,-0.39,-0.9,19.07,14.6,6.84,0.24,0.32,0.88,-0.91,1.34,0.16
214,1900-01-01 13:37:42.550,33.59,15.94,-3.31,0.28,0.55,0.79,-0.89,-0.34,-0.66,18.73,14.62,6.86,0.25,0.31,0.89,-1.21,1.23,0.29
215,1900-01-01 13:37:42.550,33.52,16.44,-3.25,0.28,0.55,0.78,-0.49,-1.43,-0.49,19.25,14.55,6.89,0.24,0.32,0.88,0.56,1.12,-0.25
216,1900-01-01 13:37:42.667,33.36,16.17,-3.16,0.28,0.55,0.79,-2.06,-1.25,0.47,18.05,14.57,6.85,0.24,0.3,0.88,-2.05,1.21,0.27
217,1900-01-01 13:37:42.763,33.6,16.58,-2.93,0.29,0.56,0.79,-0.23,-1.92,0.12,19.6,14.49,6.88,0.24,0.32,0.88,-0.68,1.11,-0.18
218,1900-01-01 13:37:42.763,32.95,16.4,-2.76,0.28,0.55,0.79,-0.22,-1.6,-0.26,18.39,14.26,6.84,0.24,0.3,0.88,-1.3,1.27,0.12
219,1900-01-01 13:37:42.897,33.18,17.29,-2.64,0.3,0.55,0.79,-0.5,-0.95,-0.22,19.05,14.92,6.85,0.25,0.32,0.88,-1.46,1.31,0.6
220,1900-01-01 13:37:42.938,33.03,17.12,-2.51,0.3,0.55,0.79,-0.45,-0.41,-0.34,18.96,14.71,6.94,0.25,0.31,0.88,-0.95,1.47,0.43
221,1900-01-01 13:37:43.008,33.45,17.14,-2.41,0.3,0.55,0.78,-0.75,-0.42,-0.26,19.16,14.56,6.99,0.24,0.32,0.88,-1.29,1.15,0.44
222,1900-01-01 13:37:43.121,33.1,17.31,-2.29,0.3,0.55,0.79,-1.37,-0.76,-0.29,18.77,14.86,7.05,0.25,0.31,0.88,-1.27,1.18,0.27
223,1900-01-01 13:37:43.234,32.89,17.35,-2.17,0.3,0.54,0.78,0.05,-0.97,-0.83,18.52,14.6,7.09,0.24,0.31,0.88,-0.28,0.97,-0.08
224,1900-01-01 13:37:43.234,33.52,17.56,-2.14,0.3,0.56,0.78,-0.44,-1.14,-1.24,19.35,14.75,7.07,0.25,0.32,0.88,-1.16,1.09,-0.2
225,1900-01-01 13:37:43.349,32.71,17.72,-2.17,0.31,0.54,0.79,-0.15,-0.6,-1.36,18.94,14.88,7.03,0.25,0.31,0.88,-1.23,1.3,-0.22
226,1900-01-01 13:37:43.449,33.34,17.5,-2.22,0.3,0.55,0.78,-0.56,-0.07,-1.11,19.32,14.63,6.98,0.25,0.32,0.88,-1.3,1.34,0.05
227,1900-01-01 13:37:43.449,32.85,17.43,-2.23,0.3,0.54,0.79,-0.5,-0.17,-1.27,18.54,14.72,6.98,0.25,0.31,0.88,-1.28,1.27,-0.15
228,1900-01-01 13:37:43.529,33.39,17.6,-2.27,0.3,0.55,0.78,-0.1,-0.63,-1.24,19.17,14.89,6.95,0.25,0.32,0.88,-1.37,1.11,-0.07
229,1900-01-01 13:37:43.606,33.05,17.36,-2.3,0.3,0.54,0.78,-0.1,-0.55,-1.27,18.77,14.7,6.93,0.25,0.31,0.88,-0.95,1.21,-0.05
230,1900-01-01 13:37:43.688,33.12,17.63,-2.34,0.3,0.55,0.78,-0.69,-0.55,-1.06,18.74,14.76,6.92,0.25,0.31,0.88,-1.28,0.96,0.04
231,1900-01-01 13:37:43.804,33.13,17.52,-2.34,0.3,0.55,0.78,-0.31,-0.41,-0.9,18.79,14.94,6.91,0.25,0.31,0.88,-1.26,1.23,0.08
232,1900-01-01 13:37:43.919,33.18,17.53,-2.32,0.3,0.55,0.79,-0.75,0.04,-0.8,18.89,14.75,6.92,0.25,0.31,0.88,-1.26,1.35,0.15
233,1900-01-01 13:37:43.919,33.14,17.55,-2.28,0.3,0.55,0.78,-1.21,0.19,-0.72,18.67,14.9,6.93,0.25,0.31,0.88,-1.65,1.28,0.31
234,1900-01-01 13:37:44.029,33.07,17.44,-2.23,0.3,0.55,0.78,-1.09,0.15,-0.77,18.61,14.8,6.97,0.25,0.31,0.88,-1.63,1.26,0.27
235,1900-01-01 13:37:44.134,32.66,17.62,-2.19,0.3,0.54,0.79,-1.06,0.27,-0.65,18.41,14.97,7.0,0.25,0.31,0.88,-1.65,1.24,0.34
236,1900-01-01 13:37:44.134,32.81,17.56,-2.13,0.3,0.54,0.79,-0.63,0.4,-0.66,18.69,14.95,7.05,0.25,0.31,0.88,-1.2,1.3,0.24
237,1900-01-01 13:37:44.259,32.84,17.33,-2.07,0.3,0.54,0.79,-1.12,0.5,-0.61,18.31,14.86,7.07,0.25,0.3,0.88,-1.47,1.34,0.27
238,1900-01-01 13:37:44.292,32.88,17.45,-2.01,0.3,0.54,0.79,-0.24,0.2,-1.02,18.23,15.1,7.11,0.25,0.3,0.88,-0.83,1.17,-0.09
239,1900-01-01 13:37:44.369,33.0,17.02,-2.0,0.29,0.55,0.79,-0.59,-0.09,-1.38,18.76,14.76,7.09,0.25,0.31,0.88,-0.85,0.99,-0.05
240,1900-01-01 13:37:44.489,32.96,17.33,-2.06,0.3,0.55,0.79,-0.05,-0.37,-1.9,18.87,15.08,7.07,0.25,0.31,0.88,-0.01,0.93,-0.34
241,1900-01-01 13:37:44.553,32.91,17.05,-2.19,0.29,0.54,0.79,-0.56,-0.2,-1.56,19.0,14.97,7.01,0.25,0.31,0.88,-1.06,1.04,-0.04
242,1900-01-01 13:37:44.615,32.96,16.93,-2.27,0.29,0.55,0.79,-1.5,-0.05,-0.95,19.34,14.96,6.99,0.25,0.32,0.88,-1.62,1.07,0.0
243,1900-01-01 13:37:44.665,32.88,17.67,-2.26,0.31,0.55,0.79,-2.0,-0.02,-1.42,17.97,15.95,6.99,0.27,0.3,0.88,-0.86,0.92,-0.58
244,1900-01-01 13:37:44.758,33.17,16.47,-2.32,0.29,0.55,0.79,-1.67,-0.03,-3.66,20.09,14.58,6.89,0.24,0.33,0.88,-0.87,1.12,-1.46
245,1900-01-01 13:37:44.860,32.11,16.45,-2.72,0.28,0.53,0.8,-0.59,-0.26,-3.07,18.39,14.99,6.66,0.25,0.3,0.88,-0.48,1.32,-0.36
246,1900-01-01 13:37:44.903,32.54,16.82,-3.03,0.29,0.54,0.8,-0.21,0.28,-2.41,19.21,15.42,6.59,0.26,0.32,0.88,-1.73,1.33,0.11
247,1900-01-01 13:37:44.992,32.13,17.2,-3.23,0.3,0.53,0.8,-1.62,1.55,-1.35,19.22,15.99,6.6,0.27,0.32,0.88,-3.22,1.02,0.08
248,1900-01-01 13:37:45.081,32.91,15.84,-3.28,0.27,0.53,0.77,-2.17,-1.64,1.44,18.4,14.6,6.61,0.24,0.3,0.88,-3.49,0.24,0.25
249,1900-01-01 13:37:45.196,33.02,15.2,-2.91,0.26,0.54,0.79,1.97,-5.32,1.26,17.66,14.04,6.64,0.23,0.29,0.88,-0.73,0.13,0.23
250,1900-01-01 13:37:45.196,32.26,17.99,-2.56,0.32,0.55,0.82,0.42,-3.07,-0.12,18.11,16.24,6.66,0.27,0.3,0.88,-1.85,0.93,0.5
251,1900-01-01 13:37:45.307,32.01,17.77,-2.42,0.31,0.54,0.8,-1.64,0.79,-1.27,18.13,15.54,6.73,0.26,0.3,0.88,-1.66,1.87,0.21
252,1900-01-01 13:37:45.367,32.47,17.36,-2.45,0.3,0.54,0.79,-1.69,0.88,-0.87,17.83,15.34,6.75,0.26,0.3,0.89,-1.79,1.49,0.37
253,1900-01-01 13:37:45.436,32.53,17.88,-2.42,0.31,0.54,0.79,0.31,-0.67,-1.33,18.46,15.79,6.8,0.26,0.31,0.88,-1.03,1.25,-0.3
254,1900-01-01 13:37:45.558,32.46,16.87,-2.47,0.29,0.54,0.79,-0.26,-0.95,-1.2,17.96,15.14,6.74,0.25,0.3,0.88,-1.31,1.12,-0.18
255,1900-01-01 13:37:45.655,32.24,17.94,-2.49,0.31,0.54,0.79,-0.84,-0.54,-0.84,18.28,15.72,6.71,0.26,0.3,0.88,-2.1,1.25,0.22
256,1900-01-01 13:37:45.655,32.49,17.11,-2.46,0.29,0.53,0.79,-0.92,-0.72,-0.5,18.04,15.03,6.73,0.25,0.3,0.89,-1.74,1.13,0.22
257,1900-01-01 13:37:45.768,32.1,18.24,-2.38,0.32,0.54,0.8,-0.34,-0.92,-0.45,17.8,16.03,6.76,0.27,0.3,0.89,-1.31,1.23,-0.07
258,1900-01-01 13:37:45.840,32.24,17.42,-2.29,0.3,0.53,0.79,-0.56,-0.42,-0.53,17.81,15.13,6.74,0.25,0.3,0.88,-1.47,1.36,0.23
259,1900-01-01 13:37:45.888,32.5,17.8,-2.21,0.31,0.54,0.8,-0.39,-0.13,-1.13,17.96,15.35,6.77,0.26,0.3,0.88,-1.18,1.64,0.08
260,1900-01-01 13:37:46.003,32.23,17.3,-2.23,0.3,0.54,0.8,-0.11,0.67,-1.93,17.32,15.05,6.77,0.25,0.29,0.88,-0.35,2.05,0.29
261,1900-01-01 13:37:46.028,32.18,17.41,-2.36,0.3,0.54,0.8,-4.38,2.81,-2.23,18.01,15.5,6.8,0.26,0.3,0.88,-2.2,1.18,1.13
262,1900-01-01 13:37:46.111,30.59,17.26,-2.54,0.29,0.5,0.8,-4.34,3.85,-2.11,16.3,16.05,6.97,0.27,0.27,0.89,-1.73,-0.12,1.05
263,1900-01-01 13:37:46.216,31.38,17.26,-2.71,0.29,0.52,0.8,-2.56,0.94,0.37,17.76,16.39,7.12,0.27,0.3,0.88,-1.08,0.72,0.45
264,1900-01-01 13:37:46.262,31.28,16.2,-2.49,0.28,0.52,0.8,0.08,-2.17,-0.23,17.1,15.42,7.18,0.26,0.28,0.88,-0.79,0.56,-0.31
265,1900-01-01 13:37:46.340,31.12,16.8,-2.37,0.29,0.52,0.81,1.24,-2.33,-0.74,17.67,15.87,7.13,0.26,0.29,0.88,-1.08,0.95,-0.03
266,1900-01-01 13:37:46.457,30.83,16.96,-2.32,0.29,0.52,0.81,-1.33,-0.31,-0.68,17.68,15.67,7.11,0.26,0.29,0.88,-2.23,0.09,0.47
267,1900-01-01 13:37:46.563,31.01,17.35,-2.27,0.3,0.52,0.81,-0.72,0.5,-0.37,17.47,16.25,7.17,0.27,0.29,0.89,-0.68,1.63,0.4
268,1900-01-01 13:37:46.574,31.4,17.12,-2.16,0.29,0.52,0.8,-0.24,-0.44,-0.68,17.7,15.98,7.23,0.27,0.29,0.88,-1.29,1.18,0.21
269,1900-01-01 13:37:46.684,31.04,17.04,-2.11,0.29,0.52,0.81,0.18,-0.98,-1.19,17.6,15.99,7.25,0.27,0.29,0.88,-0.96,1.11,-0.05
270,1900-01-01 13:37:46.729,31.21,16.99,-2.13,0.29,0.52,0.81,-0.21,-0.92,-0.75,17.51,15.53,7.23,0.26,0.29,0.89,-1.86,0.44,0.2
271,1900-01-01 13:37:46.792,30.65,17.51,-2.09,0.3,0.51,0.81,0.11,-1.04,-0.27,16.98,16.54,7.26,0.28,0.28,0.89,-0.66,0.87,0.47
272,1900-01-01 13:37:46.902,31.31,17.52,-1.97,0.3,0.52,0.8,1.24,-1.53,0.44,17.79,16.26,7.32,0.27,0.3,0.88,0.54,0.36,0.47
273,1900-01-01 13:37:46.964,31.43,18.12,-1.75,0.32,0.54,0.82,-0.15,0.56,-0.16,18.05,17.03,7.38,0.29,0.3,0.88,-1.85,1.5,0.39
274,1900-01-01 13:37:47.033,31.68,17.03,-1.61,0.3,0.53,0.81,-2.47,3.34,-1.46,17.59,15.84,7.43,0.26,0.29,0.88,-2.58,2.27,0.4
275,1900-01-01 13:37:47.152,31.1,17.19,-1.68,0.29,0.51,0.79,-3.6,2.22,-1.34,17.05,16.4,7.49,0.27,0.28,0.88,-2.46,1.37,0.45
276,1900-01-01 13:37:47.245,31.14,17.53,-1.72,0.3,0.51,0.8,-1.33,-2.13,-0.37,17.8,16.62,7.55,0.28,0.3,0.89,-0.78,0.27,-0.56
277,1900-01-01 13:37:47.245,30.79,16.98,-1.62,0.3,0.52,0.82,1.17,-3.82,-0.87,17.15,16.18,7.45,0.27,0.29,0.88,-0.89,0.49,-0.96
278,1900-01-01 13:37:47.352,31.18,17.38,-1.59,0.31,0.53,0.82,0.63,-1.93,-2.45,17.88,16.4,7.3,0.27,0.3,0.88,-1.3,1.21,-0.57
279,1900-01-01 13:37:47.433,30.54,17.14,-1.81,0.3,0.52,0.82,-0.31,1.66,-2.93,16.97,16.2,7.2,0.27,0.28,0.88,-0.89,2.17,0.27
280,1900-01-01 13:37:47.480,30.65,17.25,-2.1,0.29,0.5,0.79,-3.13,3.1,-1.14,17.32,16.44,7.23,0.28,0.29,0.89,-3.52,1.78,0.97
281,1900-01-01 13:37:47.576,30.66,17.92,-2.11,0.31,0.51,0.8,-1.94,-0.45,1.23,17.56,17.17,7.37,0.29,0.29,0.88,0.58,0.52,0.02
282,1900-01-01 13:37:47.726,31.52,16.67,-1.77,0.29,0.52,0.8,1.7,-3.11,-0.17,17.18,15.95,7.37,0.27,0.28,0.88,0.03,0.3,-0.45
283,1900-01-01 13:37:47.726,31.33,17.23,-1.63,0.3,0.53,0.81,1.92,-2.78,-1.82,17.89,16.39,7.29,0.27,0.3,0.88,-0.51,0.68,-0.16
284,1900-01-01 13:37:47.840,30.72,18.14,-1.75,0.31,0.52,0.81,0.08,-0.76,-1.59,17.56,17.86,7.26,0.3,0.29,0.87,-0.35,0.55,0.16
285,1900-01-01 13:37:47.956,31.21,17.89,-1.83,0.31,0.52,0.8,-0.22,-0.44,-0.56,17.83,16.87,7.27,0.28,0.3,0.88,-1.17,1.11,0.25
286,1900-01-01 13:37:47.956,31.65,17.71,-1.76,0.31,0.53,0.8,0.07,-1.11,-0.24,18.0,16.85,7.3,0.28,0.3,0.88,-1.09,1.09,0.2
287,1900-01-01 13:37:48.070,31.46,17.98,-1.64,0.31,0.53,0.8,0.6,-0.54,-0.71,17.93,16.89,7.32,0.28,0.3,0.88,-0.18,1.4,0.15
288,1900-01-01 13:37:48.187,32.07,17.81,-1.59,0.31,0.53,0.79,-0.24,-0.43,-0.81,18.23,16.58,7.34,0.28,0.3,0.88,-1.05,1.34,0.32
289,1900-01-01 13:37:48.187,31.53,18.32,-1.55,0.32,0.53,0.8,-0.15,-0.63,-1.09,18.36,17.14,7.38,0.29,0.31,0.88,-1.02,0.82,0.05
290,1900-01-01 13:37:48.304,31.61,18.15,-1.56,0.31,0.53,0.8,-0.95,-0.03,-0.67,18.14,16.84,7.38,0.28,0.3,0.88,-1.44,1.43,0.22
291,1900-01-01 13:37:48.402,31.62,17.99,-1.51,0.31,0.53,0.8,-1.05,0.5,-0.59,17.99,16.93,7.4,0.28,0.3,0.88,-1.39,1.52,0.42
292,1900-01-01 13:37:48.402,31.81,17.93,-1.44,0.31,0.53,0.79,-0.33,0.1,-0.87,18.17,16.74,7.46,0.28,0.3,0.88,-1.05,1.44,0.21
293,1900-01-01 13:37:48.517,31.58,17.94,-1.41,0.31,0.53,0.8,-0.23,-0.44,-1.12,18.09,17.03,7.48,0.29,0.3,0.88,-0.73,1.26,-0.05
294,1900-01-01 13:37:48.587,31.6,17.94,-1.42,0.31,0.53,0.8,-0.7,-0.11,-1.17,18.02,16.9,7.47,0.28,0.3,0.88,-1.31,1.44,-0.02
295,1900-01-01 13:37:48.633,31.57,17.87,-1.44,0.31,0.53,0.8,-0.82,0.19,-1.25,18.08,16.94,7.45,0.28,0.3,0.88,-1.31,1.37,-0.01
296,1900-01-01 13:37:48.750,31.55,17.78,-1.48,0.31,0.53,0.8,-0.18,-0.02,-1.21,17.97,16.96,7.44,0.28,0.3,0.88,-0.98,1.26,-0.12
297,1900-01-01 13:37:48.790,31.35,17.8,-1.5,0.31,0.52,0.8,-0.69,-0.12,-1.15,17.58,16.99,7.42,0.28,0.29,0.88,-1.15,1.25,-0.04
298,1900-01-01 13:37:48.858,31.7,17.73,-1.52,0.31,0.53,0.8,-0.49,-0.34,-1.08,18.11,16.8,7.4,0.28,0.3,0.88,-1.2,1.29,-0.01
299,1900-01-01 13:37:48.997,31.56,17.74,-1.53,0.31,0.52,0.8,-0.26,-0.6,-1.18,17.79,16.91,7.39,0.28,0.3,0.88,-0.9,1.12,-0.09
300,1900-01-01 13:37:48.997,31.48,17.99,-1.55,0.31,0.52,0.8,-0.52,-0.76,-1.11,17.77,17.11,7.37,0.28,0.3,0.88,-1.27,1.27,-0.08
301,1900-01-01 13:37:49.084,31.88,17.74,-1.56,0.31,0.53,0.8,-0.43,-0.5,-0.94,18.46,16.87,7.35,0.28,0.31,0.88,-1.31,1.31,0.16
302,1900-01-01 13:37:49.203,31.5,18.01,-1.54,0.31,0.52,0.8,-0.21,-0.24,-0.98,17.95,16.98,7.36,0.28,0.3,0.88,-0.89,1.39,0.03
303,1900-01-01 13:37:49.231,31.8,17.94,-1.54,0.31,0.53,0.79,-0.44,-0.24,-0.83,18.07,16.88,7.36,0.28,0.3,0.88,-1.02,1.22,0.13
304,1900-01-01 13:37:49.313,31.83,17.78,-1.5,0.31,0.53,0.8,-0.44,-0.36,-1.05,18.25,16.98,7.37,0.28,0.3,0.88,-1.21,1.3,0.13
305,1900-01-01 13:37:49.428,31.65,17.93,-1.5,0.31,0.53,0.8,-0.4,-0.5,-1.2,18.06,16.97,7.38,0.28,0.3,0.88,-1.24,1.26,-0.05
306,1900-01-01 13:37:49.459,31.85,18.0,-1.53,0.31,0.53,0.8,-0.47,-0.37,-0.9,18.18,17.07,7.37,0.28,0.3,0.88,-1.11,1.17,0.05
307,1900-01-01 13:37:49.540,31.81,17.8,-1.51,0.31,0.53,0.8,-0.36,-0.32,-0.82,18.04,16.94,7.37,0.28,0.3,0.88,-0.95,1.17,0.08
308,1900-01-01 13:37:49.628,31.96,18.12,-1.47,0.31,0.53,0.79,-0.39,-0.5,-1.05,18.24,16.95,7.37,0.28,0.3,0.88,-1.06,1.19,-0.02
309,1900-01-01 13:37:49.729,31.78,17.92,-1.48,0.31,0.53,0.8,-0.63,-0.54,-1.06,17.94,17.03,7.36,0.28,0.3,0.88,-1.24,1.13,-0.08
310,1900-01-01 13:37:49.776,31.62,18.07,-1.48,0.31,0.53,0.8,-0.73,-0.2,-1.11,18.18,17.12,7.34,0.29,0.3,0.88,-1.51,1.51,0.08
311,1900-01-01 13:37:49.878,31.83,17.94,-1.49,0.31,0.53,0.79,-1.03,0.11,-0.91,18.1,16.86,7.34,0.28,0.3,0.88,-1.67,1.53,0.18
312,1900-01-01 13:37:49.916,31.58,18.01,-1.47,0.31,0.53,0.8,-0.4,-0.02,-1.07,17.97,17.02,7.36,0.28,0.3,0.88,-0.99,1.34,0.02
313,1900-01-01 13:37:49.987,31.7,17.93,-1.48,0.31,0.53,0.79,-0.57,-0.21,-0.92,17.94,17.02,7.36,0.28,0.3,0.88,-1.15,1.25,0.02
314,1900-01-01 13:37:50.099,31.86,17.86,-1.46,0.31,0.53,0.8,-0.22,-0.45,-1.03,18.07,17.04,7.35,0.28,0.3,0.88,-1.05,1.25,-0.02
315,1900-01-01 13:37:50.210,31.62,17.97,-1.46,0.31,0.53,0.8,-0.38,-0.58,-1.12,17.79,17.03,7.34,0.28,0.3,0.88,-1.21,1.24,-0.11
316,1900-01-01 13:37:50.244,31.49,17.9,-1.47,0.31,0.53,0.8,-0.44,-0.32,-1.02,17.88,16.98,7.31,0.28,0.3,0.88,-1.1,1.22,0.04
317,1900-01-01 13:37:50.331,31.89,17.9,-1.47,0.31,0.53,0.8,-0.75,-0.21,-0.81,18.18,17.04,7.31,0.28,0.3,0.87,-1.22,1.34,0.16
318,1900-01-01 13:37:50.430,31.99,17.98,-1.43,0.31,0.53,0.79,-0.21,-0.5,-1.05,18.29,16.99,7.33,0.28,0.3,0.88,-0.92,1.16,-0.02
319,1900-01-01 13:37:50.537,31.66,18.03,-1.43,0.31,0.53,0.8,-0.2,-0.6,-1.11,18.07,16.97,7.32,0.28,0.3,0.88,-0.96,1.13,-0.07
320,1900-01-01 13:37:50.537,31.77,18.1,-1.45,0.31,0.53,0.8,-0.47,-0.42,-1.09,18.12,17.07,7.3,0.28,0.3,0.88,-1.26,1.16,-0.07
321,1900-01-01 13:37:50.618,31.57,18.08,-1.45,0.31,0.53,0.8,-0.98,0.38,-0.79,18.39,17.15,7.28,0.29,0.31,0.88,-1.56,1.7,0.18
322,1900-01-01 13:37:50.697,31.76,17.89,-1.41,0.31,0.53,0.8,-2.56,1.57,-0.49,18.21,16.76,7.3,0.28,0.3,0.88,-2.53,1.87,0.48
323,1900-01-01 13:37:50.771,31.32,17.58,-1.33,0.3,0.52,0.8,-1.24,1.19,-0.7,17.48,16.93,7.36,0.28,0.29,0.88,-1.18,1.63,0.18
324,1900-01-01 13:37:50.875,31.43,17.63,-1.28,0.3,0.52,0.8,-1.35,0.07,-0.41,17.94,16.78,7.38,0.28,0.3,0.88,-1.41,1.27,0.27
325,1900-01-01 13:37:50.988,31.47,17.48,-1.18,0.3,0.52,0.8,-0.23,-0.81,-1.08,17.87,16.78,7.42,0.28,0.3,0.88,-0.95,1.18,-0.14
326,1900-01-01 13:37:50.988,31.01,17.82,-1.19,0.31,0.52,0.81,-0.16,-0.53,-1.28,17.64,17.11,7.39,0.28,0.29,0.88,-1.2,1.31,-0.13
327,1900-01-01 13:37:51.102,31.26,17.65,-1.23,0.3,0.52,0.8,-0.73,0.02,-1.0,17.68,17.0,7.36,0.28,0.29,0.88,-1.4,1.33,0.12
328,1900-01-01 13:37:51.131,31.85,17.41,-1.22,0.3,0.53,0.8,-0.6,-0.29,-1.16,18.29,16.61,7.37,0.28,0.3,0.88,-1.26,1.29,0.08
329,1900-01-01 13:37:51.210,31.44,17.76,-1.24,0.31,0.52,0.8,0.16,-1.11,-1.39,17.88,17.17,7.37,0.29,0.3,0.88,-0.87,0.96,-0.12
330,1900-01-01 13:37:51.312,31.38,17.76,-1.29,0.31,0.52,0.8,0.29,-1.16,-1.14,17.92,16.95,7.34,0.28,0.3,0.88,-0.62,0.95,-0.19
331,1900-01-01 13:37:51.434,31.51,17.79,-1.31,0.31,0.53,0.8,-0.33,-0.76,-1.0,18.1,16.94,7.31,0.28,0.3,0.88,-1.08,1.07,0.01
332,1900-01-01 13:37:51.545,31.61,17.92,-1.3,0.31,0.53,0.8,-0.27,-0.49,-1.1,17.97,16.91,7.3,0.28,0.3,0.88,-1.02,1.24,0.07
333,1900-01-01 13:37:51.545,31.57,18.07,-1.31,0.31,0.53,0.8,0.08,-0.63,-1.26,18.02,17.15,7.3,0.29,0.3,0.88,-0.94,1.24,-0.09
334,1900-01-01 13:37:51.641,31.71,17.83,-1.34,0.31,0.53,0.8,-0.56,-0.42,-0.98,17.93,16.82,7.28,0.28,0.3,0.88,-1.37,1.42,0.06
335,1900-01-01 13:37:51.679,31.77,17.9,-1.33,0.31,0.53,0.8,-0.44,-0.33,-1.13,18.1,17.0,7.28,0.28,0.3,0.88,-0.95,1.3,-0.01
336,1900-01-01 13:37:51.772,31.53,17.84,-1.35,0.31,0.53,0.8,-0.5,-0.24,-1.02,17.86,17.06,7.27,0.28,0.3,0.88,-1.02,1.3,0.04
337,1900-01-01 13:37:51.818,31.6,17.91,-1.35,0.31,0.53,0.8,-0.63,-0.28,-0.98,17.87,17.12,7.27,0.29,0.3,0.88,-1.29,1.29,0.08
338,1900-01-01 13:37:51.912,32.04,17.93,-1.34,0.31,0.53,0.79,-0.45,-0.43,-1.01,18.23,16.98,7.27,0.28,0.3,0.88,-1.29,1.23,0.02
339,1900-01-01 13:37:52.016,31.61,17.85,-1.33,0.31,0.53,0.8,-0.29,-0.4,-1.05,17.85,16.93,7.26,0.28,0.3,0.88,-0.9,1.24,-0.02
340,1900-01-01 13:37:52.055,31.52,18.09,-1.33,0.31,0.53,0.8,-1.11,-0.08,-0.78,17.71,17.27,7.25,0.29,0.3,0.88,-1.71,1.27,0.19
341,1900-01-01 13:37:52.147,31.95,17.85,-1.29,0.31,0.53,0.8,-0.6,0.02,-0.84,18.33,17.0,7.27,0.28,0.3,0.87,-1.11,1.3,0.16
342,1900-01-01 13:37:52.223,31.75,17.99,-1.26,0.31,0.53,0.79,-0.35,-0.44,-1.05,18.2,17.06,7.29,0.28,0.3,0.88,-0.95,1.16,-0.05
343,1900-01-01 13:37:52.327,31.47,17.87,-1.27,0.31,0.52,0.79,-0.19,-0.97,-0.74,17.69,16.84,7.27,0.28,0.29,0.88,-0.77,0.97,0.06
344,1900-01-01 13:37:52.436,31.71,18.49,-1.22,0.32,0.53,0.8,0.07,-1.08,-0.01,18.25,17.74,7.27,0.3,0.3,0.87,-0.91,1.01,0.06
345,1900-01-01 13:37:52.436,32.26,17.74,-1.06,0.31,0.54,0.8,-1.18,0.64,-1.16,18.76,16.59,7.28,0.28,0.31,0.87,-2.08,1.92,0.12
346,1900-01-01 13:37:52.546,31.89,17.84,-1.08,0.31,0.53,0.8,-1.05,1.6,-2.44,18.01,17.1,7.29,0.29,0.3,0.88,-2.01,2.26,0.07
347,1900-01-01 13:37:52.635,31.31,17.95,-1.29,0.3,0.51,0.78,-1.24,0.63,-1.54,17.43,17.13,7.29,0.29,0.29,0.88,-1.95,1.44,0.05
348,1900-01-01 13:37:52.664,31.42,17.49,-1.37,0.3,0.52,0.8,-1.1,-0.43,-0.77,17.32,16.89,7.29,0.28,0.29,0.88,-1.48,0.92,-0.31
349,1900-01-01 13:37:52.768,31.76,17.27,-1.33,0.3,0.53,0.8,-0.69,-0.34,-1.22,18.01,16.62,7.23,0.28,0.3,0.88,-0.98,1.31,-0.02
350,1900-01-01 13:37:52.849,31.53,17.77,-1.36,0.31,0.53,0.8,-0.18,-0.33,-1.47,17.73,17.26,7.22,0.29,0.3,0.88,-0.74,1.32,-0.02
351,1900-01-01 13:37:52.897,31.76,17.54,-1.42,0.3,0.53,0.79,-0.16,-0.59,-0.88,18.04,16.83,7.21,0.28,0.3,0.88,-1.23,1.03,-0.08
352,1900-01-01 13:37:52.988,31.62,17.38,-1.4,0.3,0.53,0.8,-0.47,-0.56,-0.71,18.1,16.74,7.19,0.28,0.3,0.88,-1.27,1.24,0.1
353,1900-01-01 13:37:53.103,31.55,17.57,-1.35,0.3,0.53,0.8,-0.16,-0.21,-0.88,18.06,16.82,7.2,0.28,0.3,0.88,-0.61,1.29,0.13
354,1900-01-01 13:37:53.214,31.73,17.94,-1.32,0.31,0.53,0.8,-0.44,-0.24,-0.74,18.2,16.97,7.21,0.28,0.3,0.88,-1.2,1.37,0.16
355,1900-01-01 13:37:53.214,31.73,17.61,-1.28,0.3,0.53,0.8,-0.31,-0.38,-0.62,17.94,16.88,7.22,0.28,0.3,0.88,-0.95,1.18,0.15
356,1900-01-01 13:37:53.319,31.7,17.74,-1.21,0.31,0.53,0.8,-0.23,-0.72,-0.92,17.91,16.94,7.24,0.28,0.3,0.88,-0.97,1.14,0.0
357,1900-01-01 13:37:53.430,31.71,17.66,-1.2,0.3,0.53,0.8,-0.15,-0.72,-1.09,17.95,16.86,7.23,0.28,0.3,0.88,-0.92,1.18,-0.04
358,1900-01-01 13:37:53.430,31.81,17.91,-1.21,0.31,0.53,0.8,-0.2,-0.54,-1.02,18.05,17.16,7.21,0.29,0.3,0.88,-0.93,1.13,0.03
359,1900-01-01 13:37:53.530,31.66,17.91,-1.2,0.31,0.53,0.8,-0.66,-0.29,-0.9,17.88,16.97,7.21,0.28,0.3,0.88,-1.35,1.4,0.08
360,1900-01-01 13:37:53.662,31.93,17.85,-1.18,0.31,0.53,0.79,-0.82,-0.23,-0.82,17.98,17.03,7.21,0.28,0.3,0.88,-1.52,1.27,0.24
361,1900-01-01 13:37:53.688,31.71,17.94,-1.15,0.31,0.53,0.8,-0.54,-0.27,-1.05,18.2,16.91,7.24,0.28,0.3,0.88,-0.95,1.31,0.01
362,1900-01-01 13:37:53.768,31.82,17.91,-1.15,0.31,0.53,0.79,-0.38,-0.35,-1.0,18.26,17.03,7.23,0.28,0.3,0.87,-0.78,1.15,-0.02
363,1900-01-01 13:37:53.856,31.4,17.97,-1.14,0.31,0.52,0.8,-0.73,-0.55,-0.48,18.07,17.19,7.22,0.29,0.3,0.88,-0.72,0.86,0.22
364,1900-01-01 13:37:53.881,31.17,18.12,-1.06,0.31,0.52,0.81,-4.94,0.0,1.67,17.94,17.23,7.25,0.29,0.3,0.88,-2.63,1.82,0.45
365,1900-01-01 13:37:53.976,31.63,18.02,-0.65,0.31,0.52,0.78,-1.31,-2.34,-0.31,17.05,16.73,7.31,0.28,0.28,0.88,-1.7,0.92,-0.44
366,1900-01-01 13:37:54.097,31.81,17.94,-0.54,0.31,0.54,0.8,3.73,-4.66,-2.78,18.6,16.56,7.23,0.28,0.31,0.88,-0.34,0.81,-0.79
367,1900-01-01 13:37:54.127,30.27,19.42,-0.8,0.34,0.52,0.82,3.08,-0.6,-3.24,17.32,17.79,7.1,0.3,0.29,0.88,-0.69,1.78,-0.04
368,1900-01-01 13:37:54.208,31.45,18.76,-1.14,0.33,0.53,0.81,-1.63,5.05,-1.44,18.44,17.16,7.09,0.29,0.31,0.88,-1.66,2.79,0.92
369,1900-01-01 13:37:54.428,32.47,17.57,-1.2,0.3,0.53,0.77,-3.3,4.6,-0.05,17.99,16.6,7.22,0.28,0.3,0.88,-2.34,1.89,1.11
370,1900-01-01 13:37:54.428,31.79,17.15,-1.05,0.29,0.51,0.77,-0.05,-0.55,0.76,16.79,16.35,7.38,0.27,0.28,0.88,-1.05,0.55,0.74
371,1900-01-01 13:37:54.456,31.68,18.58,-0.77,0.32,0.53,0.8,1.34,-3.87,1.38,17.94,17.23,7.49,0.29,0.3,0.88,-1.41,0.44,-0.05
372,1900-01-01 13:37:54.562,32.93,17.3,-0.4,0.3,0.55,0.8,0.89,-2.92,-0.15,18.37,15.99,7.47,0.27,0.3,0.88,-1.0,0.95,-0.3
373,1900-01-01 13:37:54.680,31.52,19.18,-0.27,0.34,0.54,0.81,-0.25,0.35,-2.89,17.39,17.72,7.41,0.3,0.29,0.88,-1.94,1.81,-0.44
374,1900-01-01 13:37:54.680,31.57,18.23,-0.55,0.31,0.52,0.79,-1.67,1.67,-2.02,17.32,16.79,7.34,0.28,0.29,0.88,-1.76,1.66,-0.05
375,1900-01-01 13:37:54.772,31.9,18.22,-0.7,0.31,0.53,0.79,-1.92,0.7,-0.76,17.23,16.95,7.32,0.28,0.29,0.88,-1.95,1.44,0.02
376,1900-01-01 13:37:54.818,32.04,17.76,-0.66,0.31,0.53,0.79,-0.71,-0.53,-1.26,17.26,16.46,7.32,0.27,0.29,0.88,-1.31,1.3,-0.39
377,1900-01-01 13:37:54.894,32.0,18.17,-0.69,0.32,0.54,0.8,-0.15,-0.73,-2.61,17.28,17.1,7.25,0.29,0.29,0.88,-1.41,1.19,-0.47
378,1900-01-01 13:37:54.997,32.26,17.66,-0.93,0.3,0.53,0.79,0.28,-0.79,-3.42,18.02,16.38,7.17,0.27,0.3,0.88,-0.53,1.27,-0.37
379,1900-01-01 13:37:55.101,31.46,18.72,-1.29,0.32,0.52,0.79,-0.38,-0.5,-2.09,17.76,17.6,7.1,0.3,0.3,0.88,-0.81,1.12,-0.15
380,1900-01-01 13:37:55.101,31.51,17.96,-1.45,0.31,0.52,0.79,-1.34,-0.76,-0.44,17.31,16.79,7.07,0.28,0.29,0.88,-1.44,1.1,-0.18
381,1900-01-01 13:37:55.210,32.32,17.64,-1.36,0.3,0.53,0.79,-0.29,-2.01,-0.29,17.84,16.45,7.04,0.27,0.3,0.88,-1.08,0.66,0.02
382,1900-01-01 13:37:55.284,31.92,18.62,-1.25,0.32,0.53,0.8,0.79,-2.18,-0.51,17.72,17.37,7.03,0.29,0.3,0.88,-0.35,0.98,-0.01
383,1900-01-01 13:37:55.333,32.25,18.48,-1.17,0.32,0.54,0.79,0.27,-1.51,-0.73,17.73,17.0,7.02,0.28,0.29,0.88,-0.85,1.34,-0.03
384,1900-01-01 13:37:55.429,32.26,18.06,-1.12,0.31,0.54,0.79,-0.24,-1.1,-1.62,17.04,16.07,7.01,0.27,0.28,0.88,-1.69,2.58,-0.05
385,1900-01-01 13:37:55.519,32.93,19.15,-1.21,0.34,0.56,0.8,0.76,0.09,-1.63,18.7,17.75,6.99,0.3,0.31,0.87,-2.12,1.65,0.35
386,1900-01-01 13:37:55.565,30.64,18.5,-1.3,0.31,0.5,0.78,-4.21,3.51,-0.18,16.33,16.37,7.04,0.27,0.27,0.89,-1.96,2.12,1.29
387,1900-01-01 13:37:55.691,32.9,18.59,-1.17,0.31,0.54,0.77,-3.89,-0.6,2.66,17.2,17.13,7.23,0.28,0.29,0.88,-1.89,0.1,0.73
388,1900-01-01 13:37:55.713,32.64,18.57,-0.6,0.32,0.54,0.78,2.54,-6.37,0.27,18.08,16.6,7.33,0.28,0.3,0.88,0.07,0.18,-1.09
389,1900-01-01 13:37:55.799,32.23,19.55,-0.4,0.34,0.54,0.78,4.02,-8.65,-2.05,17.45,16.47,7.15,0.28,0.29,0.89,-0.63,2.02,-0.75
390,1900-01-01 13:37:55.878,31.92,20.73,-0.56,0.36,0.54,0.79,2.9,-5.52,-2.37,17.92,16.92,7.03,0.28,0.3,0.88,-0.76,0.47,-0.27
391,1900-01-01 13:37:56.000,31.92,21.11,-0.76,0.37,0.54,0.78,0.05,-1.27,-0.67,17.57,16.96,6.98,0.28,0.29,0.88,-0.87,1.66,0.34
392,1900-01-01 13:37:56.058,32.92,20.88,-0.7,0.36,0.55,0.77,-1.15,1.12,0.42,17.96,16.73,7.02,0.28,0.3,0.88,-1.4,1.5,0.99
393,1900-01-01 13:37:56.085,32.98,20.99,-0.48,0.36,0.55,0.77,-0.84,1.0,-0.33,17.91,16.86,7.16,0.28,0.3,0.88,-1.43,1.75,0.36
394,1900-01-01 13:37:56.176,32.9,20.68,-0.37,0.35,0.54,0.76,-0.64,0.52,-0.85,17.47,16.83,7.21,0.28,0.29,0.88,-1.69,1.39,0.22
395,1900-01-01 13:37:56.268,32.83,21.08,-0.34,0.36,0.55,0.76,-0.38,-0.15,-1.24,17.7,16.98,7.24,0.28,0.3,0.88,-1.45,1.39,-0.13
396,1900-01-01 13:37:56.316,32.65,20.5,-0.37,0.35,0.54,0.77,-0.28,-0.2,-1.53,17.34,16.64,7.21,0.28,0.29,0.88,-1.01,1.27,-0.26
397,1900-01-01 13:37:56.416,32.69,20.72,-0.45,0.36,0.54,0.77,-0.36,-0.15,-1.69,17.56,17.05,7.16,0.28,0.29,0.88,-1.22,1.24,-0.12
398,1900-01-01 13:37:56.533,32.85,20.54,-0.55,0.35,0.55,0.77,-0.89,0.33,-1.59,17.37,16.83,7.13,0.28,0.29,0.88,-1.4,1.37,-0.08
399,1900-01-01 13:37:56.557,32.87,20.39,-0.63,0.35,0.55,0.77,-0.54,0.45,-1.35,17.92,16.86,7.11,0.28,0.3,0.88,-1.13,1.26,0.18
400,1900-01-01 13:37:56.637,32.69,20.27,-0.68,0.35,0.54,0.77,-1.31,0.89,-0.94,17.74,17.02,7.13,0.28,0.3,0.88,-1.13,1.33,0.2
401,1900-01-01 13:37:56.747,32.89,20.22,-0.67,0.35,0.54,0.77,-0.7,0.27,-0.85,17.55,16.74,7.15,0.28,0.29,0.88,-0.99,1.2,-0.02
402,1900-01-01 13:37:56.767,33.11,19.34,-0.64,0.33,0.54,0.77,-0.44,-0.94,-1.4,17.67,16.06,7.14,0.27,0.3,0.89,-1.24,0.79,-0.22
403,1900-01-01 13:37:56.852,33.38,20.03,-0.69,0.34,0.55,0.76,-0.05,-0.69,-1.58,21.32,15.39,7.1,0.27,0.37,0.91,-1.44,1.18,-0.01
404,1900-01-01 13:37:56.971,32.35,19.36,-0.77,0.33,0.53,0.77,0.15,-0.48,-2.14,19.43,15.1,7.09,0.25,0.32,0.88,1.41,1.66,-1.08
405,1900-01-01 13:37:57.015,32.87,20.7,-0.94,0.36,0.55,0.77,-0.95,0.46,-0.58,17.05,17.92,6.92,0.3,0.28,0.87,-1.18,1.33,0.29
406,1900-01-01 13:37:57.074,32.6,19.37,-0.87,0.33,0.54,0.77,-0.4,0.14,-0.87,15.9,16.42,6.95,0.27,0.26,0.88,-1.15,1.26,0.01
407,1900-01-01 13:37:57.184,32.84,20.63,-0.85,0.36,0.55,0.78,-0.31,-0.5,-0.88,17.6,17.49,6.94,0.29,0.3,0.89,-1.79,0.93,0.28
408,1900-01-01 13:37:57.250,32.46,20.05,-0.82,0.34,0.54,0.77,-0.11,-0.75,-1.31,17.33,16.5,6.98,0.27,0.29,0.88,-1.27,1.42,-0.22
409,1900-01-01 13:37:57.303,32.31,20.55,-0.86,0.35,0.54,0.77,-0.31,-0.6,-1.46,17.64,17.24,6.94,0.29,0.29,0.88,-0.82,1.4,-0.22
410,1900-01-01 13:37:57.419,33.12,19.89,-0.93,0.34,0.55,0.77,-0.18,-0.21,-1.26,18.74,15.97,6.89,0.26,0.31,0.87,-0.08,1.56,-0.61
411,1900-01-01 13:37:57.512,33.1,19.99,-0.96,0.34,0.55,0.77,-0.38,-0.17,-0.32,17.88,17.02,6.79,0.28,0.3,0.88,-0.39,0.99,0.47
412,1900-01-01 13:37:57.542,32.35,20.67,-0.85,0.35,0.54,0.77,-0.44,-0.71,-0.95,16.91,17.28,6.86,0.29,0.28,0.88,-0.76,1.2,-0.04
413,1900-01-01 13:37:57.616,32.51,20.29,-0.84,0.35,0.54,0.78,0.08,-0.89,-1.31,16.93,17.38,6.84,0.29,0.28,0.89,-1.31,0.95,-0.13
414,1900-01-01 13:37:57.736,33.02,20.33,-0.88,0.35,0.55,0.77,-0.86,-0.24,-1.04,17.78,16.83,6.81,0.28,0.3,0.88,-1.88,1.66,0.11
415,1900-01-01 13:37:57.769,33.01,20.25,-0.88,0.35,0.54,0.76,-0.5,-0.07,-1.44,18.09,16.29,6.82,0.27,0.3,0.88,-0.49,1.63,-0.33
416,1900-01-01 13:37:57.848,33.15,19.99,-0.94,0.34,0.55,0.77,-0.56,0.14,-0.56,17.55,16.98,6.76,0.28,0.29,0.88,-0.77,1.08,0.4
417,1900-01-01 13:37:57.962,32.37,20.61,-0.87,0.36,0.54,0.78,-0.31,-0.6,-1.46,16.64,17.51,6.82,0.29,0.28,0.88,-1.08,1.5,-0.33
418,1900-01-01 13:37:57.999,33.58,19.83,-0.93,0.34,0.55,0.76,-0.6,-0.38,-1.15,18.02,16.4,6.76,0.27,0.3,0.88,-2.01,1.09,0.09
419,1900-01-01 13:37:58.076,32.86,20.23,-0.95,0.35,0.55,0.77,-0.43,-0.19,-1.11,17.52,17.11,6.76,0.29,0.29,0.88,-1.29,1.4,0.08
420,1900-01-01 13:37:58.191,33.61,20.1,-0.96,0.35,0.56,0.76,-0.88,-0.05,-0.88,18.47,16.43,6.77,0.27,0.31,0.88,-1.51,1.4,0.13
421,1900-01-01 13:37:58.235,33.11,20.22,-0.94,0.35,0.55,0.77,-0.1,-0.44,-1.08,18.03,17.07,6.78,0.28,0.3,0.87,-0.73,1.17,-0.05
422,1900-01-01 13:37:58.312,33.3,20.2,-0.94,0.35,0.55,0.76,-0.22,-0.44,-1.27,18.53,16.71,6.76,0.28,0.31,0.88,-0.81,1.35,-0.14
423,1900-01-01 13:37:58.438,33.3,20.33,-0.98,0.35,0.55,0.76,-0.51,-0.5,-0.98,17.89,16.75,6.73,0.28,0.3,0.87,-1.25,1.05,0.08
424,1900-01-01 13:37:58.529,33.05,20.15,-0.97,0.35,0.55,0.77,-0.24,-0.42,-1.21,17.76,16.88,6.74,0.28,0.3,0.88,-1.05,1.36,0.04
425,1900-01-01 13:37:58.529,32.79,20.68,-0.99,0.36,0.55,0.77,-0.66,-0.27,-0.97,17.32,17.55,6.73,0.29,0.29,0.88,-1.63,1.39,0.11
426,1900-01-01 13:37:58.637,33.94,19.42,-0.98,0.33,0.56,0.76,-0.28,-0.01,-1.21,19.66,15.29,6.74,0.25,0.32,0.87,-0.69,1.5,-0.21
427,1900-01-01 13:37:58.702,32.98,20.6,-1.01,0.35,0.55,0.76,-0.1,-0.11,-0.67,18.09,17.18,6.7,0.29,0.3,0.88,-0.42,1.07,0.25
428,1900-01-01 13:37:58.764,32.91,20.74,-0.95,0.36,0.55,0.77,-0.02,-0.69,-1.24,17.67,17.12,6.73,0.29,0.3,0.88,-0.82,1.21,-0.16
429,1900-01-01 13:37:58.859,32.53,20.23,-0.99,0.35,0.54,0.77,-0.7,-0.5,-1.27,16.4,17.14,6.7,0.28,0.27,0.88,-1.34,1.21,-0.17
430,1900-01-01 13:37:58.966,32.93,20.56,-1.02,0.35,0.55,0.77,-0.67,-0.11,-1.11,17.66,17.41,6.66,0.29,0.3,0.88,-1.31,1.4,0.14
431,1900-01-01 13:37:58.994,34.13,19.28,-1.03,0.33,0.56,0.76,-0.82,-0.02,-0.84,19.08,15.52,6.68,0.26,0.31,0.87,-1.53,1.23,0.15
432,1900-01-01 13:37:59.070,33.36,20.59,-1.0,0.36,0.56,0.77,-0.11,-0.3,-0.82,18.39,17.27,6.69,0.29,0.31,0.88,-0.84,1.21,0.19
433,1900-01-01 13:37:59.181,33.18,20.3,-0.97,0.35,0.55,0.77,-0.42,-0.56,-1.22,17.88,16.68,6.71,0.28,0.3,0.88,-1.11,1.44,-0.2
434,1900-01-01 13:37:59.219,33.23,20.09,-1.0,0.35,0.55,0.77,-0.08,-0.57,-1.27,18.17,16.63,6.67,0.28,0.3,0.88,-0.66,1.15,-0.25
435,1900-01-01 13:37:59.287,32.97,20.48,-1.03,0.35,0.55,0.77,-0.7,-0.09,-0.73,17.63,17.11,6.63,0.29,0.29,0.88,-1.24,1.33,0.23
436,1900-01-01 13:37:59.396,32.97,20.39,-0.99,0.35,0.55,0.77,-0.5,-0.09,-1.08,17.91,16.92,6.65,0.28,0.3,0.88,-1.21,1.42,0.03
437,1900-01-01 13:37:59.490,33.13,20.34,-0.99,0.35,0.55,0.77,-0.99,-0.06,-0.8,17.77,17.0,6.65,0.28,0.3,0.88,-1.85,1.47,0.16
438,1900-01-01 13:37:59.514,33.32,19.82,-0.96,0.34,0.55,0.76,-0.59,0.15,-0.83,17.8,16.38,6.66,0.27,0.29,0.88,-0.96,1.3,0.09
439,1900-01-01 13:37:59.611,33.03,20.29,-0.92,0.35,0.55,0.77,-0.58,-0.21,-0.93,17.42,17.34,6.67,0.29,0.29,0.88,-1.03,1.15,0.06
440,1900-01-01 13:37:59.756,33.05,20.13,-0.91,0.35,0.55,0.77,-0.27,-0.5,-1.19,17.83,16.71,6.67,0.28,0.3,0.88,-0.95,1.3,-0.18
441,1900-01-01 13:37:59.827,32.78,20.07,-0.93,0.35,0.55,0.77,-0.4,-0.08,-0.76,17.55,17.06,6.64,0.28,0.29,0.88,-1.15,1.31,0.15
442,1900-01-01 13:37:59.848,33.11,20.07,-0.89,0.35,0.55,0.77,-1.16,0.78,-1.15,17.89,16.8,6.65,0.28,0.3,0.88,-1.51,1.92,0.11
443,1900-01-01 13:37:59.938,33.24,19.88,-0.9,0.34,0.55,0.76,-0.54,0.13,-0.89,17.99,16.48,6.66,0.28,0.3,0.88,-1.11,1.34,0.27
444,1900-01-01 13:38:00.071,33.29,20.13,-0.88,0.35,0.55,0.77,-0.14,-0.62,-0.9,17.74,17.0,6.69,0.28,0.29,0.88,-1.15,1.27,0.19
445,1900-01-01 13:38:00.071,33.23,20.01,-0.86,0.34,0.55,0.77,-0.44,-0.5,-1.24,18.16,16.61,6.71,0.28,0.3,0.88,-1.43,1.39,-0.08
446,1900-01-01 13:38:00.161,33.1,20.14,-0.89,0.35,0.55,0.77,-0.31,-0.49,-0.73,18.03,16.93,6.69,0.28,0.3,0.88,-1.09,1.23,0.15
447,1900-01-01 13:38:00.281,33.24,20.09,-0.84,0.34,0.55,0.76,-0.22,-0.86,-0.84,17.8,16.97,6.7,0.28,0.3,0.88,-1.02,0.85,0.07
448,1900-01-01 13:38:00.281,33.42,20.27,-0.81,0.35,0.56,0.77,-0.42,-1.03,-0.85,18.26,16.84,6.71,0.28,0.3,0.88,-1.03,0.99,0.0
449,1900-01-01 13:38:00.366,33.09,20.4,-0.78,0.35,0.55,0.77,0.05,-0.86,-1.19,18.06,17.07,6.7,0.29,0.3,0.88,-0.84,1.13,-0.08
450,1900-01-01 13:38:00.477,33.25,20.28,-0.81,0.35,0.55,0.76,-0.76,-0.37,-0.98,18.06,16.82,6.68,0.28,0.3,0.88,-1.47,1.3,0.08
451,1900-01-01 13:38:00.503,33.31,20.2,-0.8,0.35,0.55,0.77,-0.48,-0.22,-1.24,18.19,16.88,6.68,0.28,0.3,0.88,-1.18,1.28,-0.05
452,1900-01-01 13:38:00.581,33.02,20.22,-0.83,0.35,0.55,0.77,-0.6,0.09,-1.15,17.7,16.93,6.66,0.28,0.29,0.88,-1.09,1.4,-0.03
453,1900-01-01 13:38:00.693,33.2,20.13,-0.84,0.35,0.55,0.77,-0.68,0.13,-1.1,17.86,16.9,6.65,0.28,0.3,0.88,-1.27,1.4,0.03
454,1900-01-01 13:38:00.765,33.42,20.06,-0.85,0.35,0.56,0.77,-0.66,0.11,-1.06,18.09,16.83,6.65,0.28,0.3,0.87,-1.44,1.4,0.01
455,1900-01-01 13:38:00.813,33.1,19.98,-0.86,0.34,0.55,0.77,-0.64,0.32,-1.15,17.89,16.91,6.64,0.28,0.3,0.88,-1.19,1.43,0.07
456,1900-01-01 13:38:00.908,33.13,20.05,-0.87,0.35,0.55,0.77,-1.07,0.66,-1.0,17.93,16.87,6.64,0.28,0.3,0.88,-1.27,1.56,0.16
457,1900-01-01 13:38:01.012,33.04,19.83,-0.87,0.34,0.55,0.77,-0.82,0.6,-0.87,17.69,16.77,6.66,0.28,0.29,0.88,-1.08,1.41,0.12
458,1900-01-01 13:38:01.113,33.01,19.84,-0.84,0.34,0.55,0.77,-0.52,0.4,-0.95,17.52,16.84,6.67,0.28,0.29,0.88,-1.03,1.11,-0.02
459,1900-01-01 13:38:01.113,33.2,19.7,-0.83,0.34,0.55,0.77,-1.32,0.4,-1.03,17.8,16.83,6.66,0.28,0.3,0.88,-1.62,1.05,0.11
460,1900-01-01 13:38:01.225,32.97,19.63,-0.83,0.34,0.55,0.77,-0.79,0.26,-0.95,17.99,16.99,6.66,0.28,0.3,0.88,-1.46,1.02,0.06
461,1900-01-01 13:38:01.332,32.79,19.48,-0.81,0.33,0.54,0.77,-1.18,-0.3,-0.89,17.65,16.74,6.66,0.28,0.29,0.88,-1.53,1.16,0.05
462,1900-01-01 13:38:01.372,32.66,19.79,-0.79,0.34,0.54,0.78,-0.63,-0.32,-0.91,17.91,17.13,6.66,0.29,0.3,0.88,-1.21,1.16,0.04
463,1900-01-01 13:38:01.442,32.75,19.54,-0.77,0.34,0.54,0.77,-0.84,-0.15,-0.53,17.76,16.71,6.66,0.28,0.29,0.88,-1.61,1.39,0.12
464,1900-01-01 13:38:01.544,32.55,19.7,-0.69,0.34,0.54,0.78,-0.9,0.3,-0.63,17.64,17.06,6.67,0.28,0.29,0.88,-1.2,1.45,0.21
465,1900-01-01 13:38:01.644,32.75,19.72,-0.63,0.34,0.54,0.77,-1.01,-0.18,-0.73,17.67,16.96,6.69,0.28,0.29,0.88,-1.37,1.5,0.15
466,1900-01-01 13:38:01.644,32.66,19.55,-0.58,0.33,0.54,0.77,-0.2,-0.84,-1.06,17.6,16.67,6.71,0.28,0.29,0.88,-0.84,1.17,-0.08
467,1900-01-01 13:38:01.758,32.52,20.04,-0.59,0.35,0.54,0.78,-0.74,-0.98,-1.02,17.37,17.25,6.69,0.29,0.29,0.88,-1.49,1.31,-0.06
468,1900-01-01 13:38:01.868,32.77,19.6,-0.58,0.34,0.54,0.77,-0.45,-0.45,-0.95,17.81,16.67,6.67,0.28,0.3,0.88,-1.11,1.31,0.11
469,1900-01-01 13:38:01.897,32.54,19.97,-0.57,0.34,0.54,0.78,-0.44,-0.22,-0.82,17.7,17.17,6.68,0.29,0.29,0.88,-0.86,1.31,0.08
470,1900-01-01 13:38:01.984,32.78,19.66,-0.54,0.34,0.54,0.77,-0.34,-0.37,-0.95,17.58,16.69,6.68,0.28,0.29,0.88,-0.99,1.26,0.04
471,1900-01-01 13:38:02.082,32.76,19.92,-0.52,0.34,0.55,0.78,-0.19,-0.79,-1.14,17.81,16.9,6.68,0.28,0.3,0.88,-1.1,1.18,-0.06
472,1900-01-01 13:38:02.179,32.67,19.91,-0.54,0.34,0.54,0.77,-0.24,-0.56,-1.13,17.89,16.74,6.66,0.28,0.3,0.88,-1.03,1.21,-0.09
473,1900-01-01 13:38:02.179,32.75,19.81,-0.55,0.34,0.55,0.78,-0.3,-0.41,-1.25,17.8,16.91,6.64,0.28,0.3,0.88,-1.02,1.24,-0.05
474,1900-01-01 13:38:02.299,32.57,19.91,-0.58,0.34,0.54,0.78,-0.47,-0.18,-1.21,17.6,16.89,6.62,0.28,0.29,0.88,-1.15,1.53,-0.06
475,1900-01-01 13:38:02.361,32.32,19.78,-0.61,0.34,0.53,0.77,-0.71,-0.3,-0.94,16.21,16.88,6.6,0.28,0.27,0.88,-0.23,1.4,0.21
476,1900-01-01 13:38:02.417,33.69,20.1,-0.6,0.35,0.56,0.76,0.02,-1.49,-1.37,18.75,16.85,6.63,0.28,0.31,0.88,-0.98,1.08,-0.33
477,1900-01-01 13:38:02.510,32.91,19.89,-0.65,0.34,0.55,0.77,0.24,-1.24,-1.25,18.43,16.63,6.57,0.28,0.31,0.88,-0.92,1.18,-0.23
478,1900-01-01 13:38:02.630,32.71,20.22,-0.68,0.35,0.55,0.77,-0.93,0.1,-0.73,17.93,17.14,6.52,0.29,0.3,0.88,-1.57,1.4,0.34
479,1900-01-01 13:38:02.652,33.04,20.02,-0.63,0.34,0.55,0.77,-0.9,0.16,-0.76,17.88,16.76,6.57,0.28,0.3,0.88,-1.3,1.43,0.23
480,1900-01-01 13:38:02.775,32.91,20.04,-0.59,0.34,0.55,0.77,-0.07,-0.58,-0.94,17.87,17.0,6.59,0.28,0.3,0.88,-0.81,1.11,-0.01
481,1900-01-01 13:38:02.799,32.95,20.15,-0.58,0.35,0.55,0.77,-0.19,-0.75,-0.87,17.96,16.96,6.58,0.28,0.3,0.88,-1.02,1.21,0.02
482,1900-01-01 13:38:02.875,33.15,19.98,-0.55,0.34,0.55,0.77,-0.34,-0.65,-1.01,18.43,16.53,6.58,0.28,0.31,0.87,-0.95,1.08,0.03
483,1900-01-01 13:38:02.970,32.88,20.42,-0.54,0.35,0.55,0.77,-0.27,-0.71,-0.89,18.05,17.17,6.57,0.29,0.3,0.88,-1.04,1.21,0.0
484,1900-01-01 13:38:03.050,33.08,20.23,-0.52,0.35,0.55,0.77,-0.34,-0.7,-0.76,18.13,16.95,6.57,0.28,0.3,0.88,-1.1,1.24,0.09
485,1900-01-01 13:38:03.108,33.1,20.15,-0.48,0.35,0.55,0.77,-0.19,-0.79,-0.65,17.91,16.89,6.57,0.28,0.3,0.88,-1.04,1.06,0.14
486,1900-01-01 13:38:03.203,33.23,20.58,-0.42,0.35,0.55,0.77,-0.4,-1.0,-0.75,18.32,16.96,6.58,0.28,0.31,0.88,-0.73,1.74,-0.11
487,1900-01-01 13:38:03.260,32.92,20.58,-0.37,0.35,0.55,0.77,-0.1,-0.73,-0.71,18.05,16.97,6.56,0.28,0.3,0.88,-0.47,1.54,0.03
488,1900-01-01 13:38:03.369,33.08,20.77,-0.32,0.36,0.56,0.77,-0.11,0.49,-0.86,18.37,17.22,6.55,0.29,0.31,0.87,-1.4,1.73,0.12
489,1900-01-01 13:38:03.436,32.89,20.28,-0.3,0.34,0.54,0.76,-0.64,1.42,-0.79,18.27,16.52,6.56,0.28,0.3,0.88,-1.07,1.77,0.45
490,1900-01-01 13:38:03.483,33.73,20.11,-0.26,0.34,0.56,0.76,-1.78,0.17,0.89,18.93,16.39,6.62,0.27,0.31,0.87,-1.08,1.02,0.7
491,1900-01-01 13:38:03.582,32.9,20.54,0.04,0.35,0.55,0.77,-0.3,-1.25,-0.47,17.39,16.86,6.72,0.28,0.29,0.88,-0.94,1.02,-0.19
492,1900-01-01 13:38:03.668,33.06,20.79,0.12,0.36,0.55,0.77,0.44,-1.5,-0.89,18.3,16.97,6.68,0.28,0.3,0.88,-1.25,0.95,-0.24
493,1900-01-01 13:38:03.715,32.6,20.7,0.15,0.36,0.54,0.77,-0.72,-0.68,-0.29,18.0,16.58,6.64,0.28,0.3,0.88,-1.21,1.18,0.17
494,1900-01-01 13:38:03.810,33.23,21.11,0.26,0.37,0.56,0.77,-0.78,-0.18,-0.76,18.03,17.28,6.66,0.29,0.3,0.88,-1.69,1.4,0.01
495,1900-01-01 13:38:03.855,33.17,20.48,0.3,0.35,0.55,0.76,-0.23,-0.44,-1.31,18.31,16.58,6.65,0.28,0.3,0.88,-0.93,1.24,0.03
496,1900-01-01 13:38:03.948,33.08,21.02,0.26,0.36,0.55,0.76,-0.77,-1.24,-1.36,17.68,17.1,6.65,0.29,0.29,0.88,-1.4,0.96,-0.23
497,1900-01-01 13:38:04.014,33.05,21.09,0.21,0.36,0.55,0.76,0.94,-1.69,-2.52,17.99,17.1,6.6,0.29,0.3,0.88,-1.01,1.01,-0.79
498,1900-01-01 13:38:04.127,32.97,20.9,-0.01,0.36,0.55,0.77,0.03,-0.64,-2.19,18.27,16.76,6.47,0.28,0.3,0.88,-1.15,1.37,-0.4
499,1900-01-01 13:38:04.181,33.22,20.87,-0.19,0.36,0.55,0.76,-1.13,0.66,-1.31,17.95,17.01,6.4,0.28,0.3,0.88,-1.97,1.62,0.21
500,1900-01-01 13:38:04.325,33.22,20.77,-0.23,0.36,0.55,0.76,-0.53,1.05,-1.42,17.9,16.88,6.43,0.28,0.3,0.88,-1.05,1.66,0.15
501,1900-01-01 13:38:04.325,33.73,20.62,-0.29,0.35,0.56,0.75,-0.72,0.25,-1.21,18.2,16.77,6.44,0.28,0.3,0.88,-1.3,1.28,0.08
502,1900-01-01 13:38:04.428,33.36,20.51,-0.31,0.35,0.55,0.76,0.08,-0.84,-1.51,18.04,16.71,6.45,0.28,0.3,0.88,-0.79,1.16,-0.28
503,1900-01-01 13:38:04.461,33.32,20.45,-0.38,0.35,0.55,0.76,0.95,-1.08,-1.49,17.8,17.02,6.39,0.28,0.3,0.88,-0.34,0.92,-0.18
504,1900-01-01 13:38:04.559,33.47,20.71,-0.45,0.36,0.56,0.76,-0.4,-0.66,-1.12,18.03,17.06,6.36,0.28,0.3,0.88,-1.23,1.17,0.02
505,1900-01-01 13:38:04.654,33.81,20.61,-0.47,0.35,0.56,0.76,-0.8,-0.26,-0.73,18.56,16.97,6.35,0.28,0.31,0.87,-1.42,1.27,0.23
506,1900-01-01 13:38:04.817,33.79,20.56,-0.42,0.35,0.56,0.76,-0.23,-0.42,-0.79,18.31,16.98,6.38,0.28,0.3,0.88,-0.89,1.13,0.02
507,1900-01-01 13:38:04.836,33.68,20.75,-0.38,0.36,0.56,0.76,-0.37,-0.56,-1.11,18.12,16.83,6.37,0.28,0.3,0.88,-1.03,1.13,-0.03
508,1900-01-01 13:38:04.868,33.8,20.77,-0.39,0.36,0.56,0.76,-0.56,-0.49,-1.12,18.29,17.08,6.36,0.28,0.3,0.87,-1.37,1.29,0.09
509,1900-01-01 13:38:04.967,33.77,20.77,-0.41,0.36,0.56,0.76,-0.44,-0.42,-1.16,18.37,16.99,6.37,0.28,0.31,0.87,-1.12,1.2,-0.07
510,1900-01-01 13:38:04.994,33.84,20.83,-0.42,0.36,0.56,0.75,-0.81,-0.18,-0.91,18.4,17.05,6.35,0.28,0.31,0.87,-1.49,1.36,0.19
511,1900-01-01 13:38:05.081,33.88,20.73,-0.4,0.36,0.56,0.75,-0.63,-0.1,-0.86,18.24,17.08,6.37,0.28,0.3,0.87,-1.44,1.39,0.13
512,1900-01-01 13:38:05.189,33.85,20.58,-0.38,0.35,0.56,0.76,-0.44,-0.15,-0.89,18.73,16.82,6.38,0.28,0.31,0.87,-1.02,1.27,0.1
513,1900-01-01 13:38:05.256,33.62,20.76,-0.35,0.36,0.56,0.76,-0.54,-0.29,-1.02,18.06,17.05,6.39,0.28,0.3,0.88,-1.06,1.34,0.02
514,1900-01-01 13:38:05.304,33.91,20.6,-0.35,0.35,0.56,0.76,-0.78,-0.5,-0.95,18.2,17.0,6.38,0.28,0.3,0.88,-1.33,1.28,0.14
515,1900-01-01 13:38:05.397,33.53,20.75,-0.34,0.35,0.55,0.76,-1.3,-0.59,-0.74,18.1,16.91,6.39,0.28,0.3,0.88,-1.6,0.96,0.11
516,1900-01-01 13:38:05.498,33.66,21.02,-0.29,0.36,0.55,0.75,-0.2,-2.13,-0.32,18.06,16.99,6.4,0.28,0.3,0.87,-0.65,0.59,-0.31
517,1900-01-01 13:38:05.538,33.43,21.04,-0.18,0.36,0.56,0.76,1.41,-2.71,-1.39,18.07,17.22,6.35,0.29,0.3,0.87,-0.63,0.95,-0.37
518,1900-01-01 13:38:05.612,33.13,21.33,-0.24,0.37,0.55,0.77,0.1,-0.02,-1.34,18.4,17.19,6.28,0.29,0.31,0.87,-1.02,1.73,0.41
519,1900-01-01 13:38:05.712,33.92,21.25,-0.28,0.37,0.56,0.75,-1.63,2.01,-0.36,18.72,17.03,6.34,0.28,0.31,0.88,-1.32,2.07,0.97
520,1900-01-01 13:38:05.822,34.02,20.98,-0.18,0.36,0.56,0.75,-0.84,1.12,-0.92,18.35,17.05,6.48,0.28,0.3,0.87,0.49,1.73,0.29
521,1900-01-01 13:38:05.925,33.88,21.05,-0.16,0.36,0.56,0.75,-0.18,-0.84,-1.37,18.59,17.09,6.51,0.29,0.31,0.88,-1.97,1.1,-0.21
522,1900-01-01 13:38:05.925,33.8,20.86,-0.21,0.36,0.56,0.76,-0.4,-0.69,-1.47,18.63,16.96,6.47,0.28,0.31,0.87,-1.09,1.25,-0.18
523,1900-01-01 13:38:06.028,33.82,20.98,-0.27,0.36,0.56,0.76,-0.56,0.09,-1.14,18.92,17.04,6.43,0.28,0.31,0.87,-1.36,1.37,-0.03
524,1900-01-01 13:38:06.098,33.75,20.66,-0.29,0.35,0.56,0.76,-0.54,-0.16,-1.39,18.4,16.9,6.42,0.28,0.31,0.87,-1.21,1.34,-0.07
525,1900-01-01 13:38:06.146,34.01,20.89,-0.34,0.36,0.56,0.75,0.04,-0.32,-1.82,18.79,16.92,6.4,0.28,0.31,0.87,-0.73,1.38,-0.26
526,1900-01-01 13:38:06.266,34.03,20.83,-0.46,0.36,0.56,0.75,0.42,-0.76,-2.16,18.42,17.18,6.35,0.29,0.31,0.87,-0.95,1.21,-0.39
527,1900-01-01 13:38:06.288,34.14,20.62,-0.63,0.35,0.56,0.75,0.16,-0.56,-1.67,18.97,16.94,6.29,0.28,0.32,0.87,-0.96,1.08,-0.14
528,1900-01-01 13:38:06.379,34.07,20.63,-0.73,0.35,0.56,0.76,-0.86,0.18,-1.08,18.62,17.07,6.26,0.28,0.31,0.87,-1.63,1.39,0.24
529,1900-01-01 13:38:06.445,34.24,20.51,-0.73,0.35,0.56,0.75,-0.89,0.48,-1.05,18.86,16.88,6.28,0.28,0.31,0.87,-1.39,1.53,0.18
530,1900-01-01 13:38:06.536,33.94,20.54,-0.73,0.35,0.56,0.75,-0.91,0.32,-0.77,18.07,17.0,6.3,0.28,0.3,0.88,-1.11,1.29,0.2
531,1900-01-01 13:38:06.673,34.21,20.48,-0.69,0.35,0.57,0.75,-0.4,0.16,-0.92,18.6,16.98,6.32,0.28,0.31,0.87,-1.18,1.43,0.13
532,1900-01-01 13:38:06.673,34.22,20.31,-0.67,0.35,0.56,0.75,-0.63,0.14,-0.85,18.77,16.9,6.34,0.28,0.31,0.87,-0.89,1.37,0.34
533,1900-01-01 13:38:06.761,34.08,20.54,-0.65,0.35,0.56,0.75,-0.85,0.25,-0.98,18.56,17.13,6.38,0.29,0.31,0.87,-1.37,1.38,0.08
534,1900-01-01 13:38:06.855,34.1,20.28,-0.64,0.35,0.56,0.75,-1.04,0.18,-0.88,18.51,16.86,6.38,0.28,0.31,0.88,-1.41,1.34,0.12
535,1900-01-01 13:38:06.942,34.17,20.31,-0.61,0.35,0.57,0.76,-0.59,-0.08,-1.09,19.02,16.84,6.39,0.28,0.32,0.87,-1.19,1.36,-0.02
536,1900-01-01 13:38:06.990,33.81,20.26,-0.62,0.35,0.56,0.76,-0.6,-0.07,-1.06,18.18,16.88,6.38,0.28,0.3,0.88,-1.18,1.31,-0.09
537,1900-01-01 13:38:07.084,34.05,20.2,-0.62,0.35,0.56,0.76,-1.0,0.06,-1.04,18.47,16.94,6.36,0.28,0.31,0.87,-1.25,1.43,0.1
538,1900-01-01 13:38:07.130,33.86,20.16,-0.62,0.35,0.56,0.76,-0.58,0.02,-1.11,18.46,16.76,6.36,0.28,0.31,0.87,-1.23,1.34,-0.09
539,1900-01-01 13:38:07.223,33.88,20.21,-0.63,0.35,0.56,0.76,-0.84,-0.04,-0.89,18.33,16.95,6.34,0.28,0.3,0.88,-1.32,1.31,0.14
540,1900-01-01 13:38:07.285,33.99,19.98,-0.61,0.34,0.56,0.76,-0.53,-0.23,-0.95,18.36,16.63,6.35,0.28,0.3,0.87,-1.11,1.3,-0.02
541,1900-01-01 13:38:07.390,33.91,20.33,-0.6,0.35,0.56,0.76,-0.53,-0.24,-0.86,18.43,17.14,6.34,0.29,0.31,0.87,-1.27,1.13,0.05
542,1900-01-01 13:38:07.457,33.99,19.95,-0.57,0.34,0.56,0.76,-0.92,-0.27,-0.56,18.56,16.62,6.34,0.28,0.31,0.88,-1.75,1.39,0.3
543,1900-01-01 13:38:07.507,33.83,20.31,-0.5,0.35,0.56,0.76,-1.4,-0.21,-0.23,18.41,17.06,6.38,0.28,0.31,0.87,-2.08,1.37,0.34
544,1900-01-01 13:38:07.602,33.58,20.14,-0.38,0.34,0.55,0.76,-1.09,-0.4,-0.18,18.09,16.73,6.42,0.28,0.3,0.87,-1.22,1.26,0.23
545,1900-01-01 13:38:07.693,33.25,20.48,-0.25,0.35,0.55,0.76,-1.05,-1.21,-0.01,17.97,17.11,6.45,0.29,0.3,0.88,-0.91,0.77,0.18
546,1900-01-01 13:38:07.741,33.51,20.66,-0.09,0.35,0.55,0.76,-0.79,-2.29,0.34,18.11,16.91,6.47,0.28,0.3,0.87,-0.85,1.0,-0.22
547,1900-01-01 13:38:07.833,33.17,21.03,0.12,0.36,0.55,0.76,-1.11,-2.6,1.01,18.05,17.14,6.43,0.28,0.3,0.87,-1.55,0.62,0.11
548,1900-01-01 13:38:07.927,33.52,21.52,0.43,0.37,0.56,0.76,-1.07,-3.04,1.03,18.26,17.19,6.43,0.29,0.3,0.87,-1.35,0.66,-0.16
549,1900-01-01 13:38:07.974,33.6,22.07,0.75,0.38,0.56,0.76,-0.47,-2.76,-1.82,18.04,17.54,6.4,0.29,0.3,0.88,-1.2,0.51,-1.26
550,1900-01-01 13:38:08.067,33.53,22.3,0.63,0.38,0.55,0.74,-0.34,-3.93,-3.51,18.11,17.32,6.2,0.29,0.3,0.87,-0.75,0.45,-1.89
551,1900-01-01 13:38:08.115,33.59,22.65,0.25,0.38,0.55,0.74,-4.68,-6.34,-3.27,19.27,17.29,5.9,0.29,0.32,0.87,-0.82,0.41,-1.36
552,1900-01-01 13:38:08.201,33.21,23.13,-0.09,0.4,0.56,0.75,-6.77,-8.01,-5.63,17.39,17.54,5.69,0.29,0.29,0.88,-1.27,0.51,-1.92
553,1900-01-01 13:38:08.292,33.62,22.8,-0.79,0.41,0.58,0.77,-3.67,-6.94,-12.27,19.18,16.93,5.39,0.28,0.32,0.87,-0.02,1.27,-3.22
554,1900-01-01 13:38:08.352,31.04,21.95,-2.51,0.38,0.52,0.78,0.61,2.44,-15.21,19.27,16.29,4.89,0.27,0.32,0.87,-2.87,3.85,-1.44
555,1900-01-01 13:38:08.441,30.88,21.27,-4.67,0.36,0.51,0.78,-3.5,5.29,-7.92,19.51,16.32,4.66,0.27,0.32,0.88,-2.81,4.3,-0.67
556,1900-01-01 13:38:08.534,30.76,21.44,-5.72,0.37,0.52,0.79,-7.08,8.06,-1.58,17.05,17.52,4.55,0.29,0.28,0.88,-2.83,3.73,0.7
557,1900-01-01 13:38:08.584,31.61,19.6,-5.8,0.33,0.52,0.77,-3.24,6.31,-0.6,17.6,15.74,4.64,0.26,0.29,0.88,1.25,1.73,-0.18
558,1900-01-01 13:38:08.675,32.29,19.5,-5.74,0.33,0.53,0.77,4.5,2.87,0.13,20.78,15.67,4.61,0.26,0.35,0.88,-4.5,-3.94,-0.98
559,1900-01-01 13:38:08.733,29.21,18.82,-5.56,0.33,0.5,0.84,2.81,6.13,1.45,15.9,17.69,4.45,0.29,0.27,0.89,2.75,1.47,-0.48
560,1900-01-01 13:38:08.829,33.91,15.5,-5.18,0.26,0.55,0.78,-2.99,8.56,4.36,21.26,13.75,4.37,0.23,0.34,0.86,3.53,5.1,3.13
561,1900-01-01 13:38:08.902,35.25,16.33,-4.36,0.27,0.56,0.74,0.89,3.6,3.47,19.51,15.56,4.84,0.26,0.32,0.87,0.11,1.53,2.15
562,1900-01-01 13:38:09.010,34.83,17.7,-3.68,0.3,0.56,0.74,5.73,-7.04,0.33,18.73,15.43,5.15,0.26,0.31,0.88,2.09,2.54,-0.34
563,1900-01-01 13:38:09.051,34.95,18.53,-3.47,0.32,0.57,0.75,10.4,-13.38,-2.7,21.38,15.37,5.09,0.26,0.35,0.86,3.83,2.58,-1.88
564,1900-01-01 13:38:09.143,34.71,20.7,-3.73,0.36,0.58,0.75,8.82,-13.45,-1.59,20.4,15.12,4.8,0.25,0.34,0.87,0.38,3.55,-1.06
565,1900-01-01 13:38:09.191,34.38,22.15,-3.81,0.39,0.59,0.77,3.96,-6.6,-0.19,21.6,15.58,4.63,0.26,0.36,0.86,-0.58,4.44,0.37
566,1900-01-01 13:38:09.283,34.61,21.72,-3.68,0.38,0.58,0.75,0.35,1.19,1.98,20.95,13.94,4.67,0.23,0.35,0.87,-1.79,4.55,0.06
567,1900-01-01 13:38:09.331,36.93,22.18,-3.22,0.38,0.61,0.72,-0.24,4.4,4.48,21.23,14.06,4.67,0.24,0.35,0.87,-3.23,2.96,2.49
568,1900-01-01 13:38:09.426,36.37,22.28,-2.38,0.38,0.59,0.71,-1.14,5.02,2.03,20.36,14.09,5.04,0.24,0.34,0.87,-0.62,2.73,0.28
569,1900-01-01 13:38:09.518,36.46,20.97,-1.92,0.36,0.59,0.72,-0.08,3.47,1.21,21.48,13.41,5.08,0.22,0.35,0.87,-3.44,1.02,0.73
570,1900-01-01 13:38:09.564,35.28,21.87,-1.57,0.38,0.59,0.74,2.6,3.77,1.43,20.49,14.52,5.18,0.24,0.34,0.87,-1.04,0.44,0.41
571,1900-01-01 13:38:09.638,35.29,21.05,-1.2,0.37,0.6,0.76,-2.54,7.85,3.63,21.57,13.9,5.24,0.23,0.36,0.87,-3.88,0.5,0.13
572,1900-01-01 13:38:09.746,38.03,17.04,-0.49,0.34,0.72,0.86,-13.49,11.02,14.33,26.1,8.49,5.25,0.17,0.51,1.02,4.64,1.67,4.14
573,1900-01-01 13:38:09.799,22.41,8.68,1.85,0.17,0.42,1.0,-30.55,6.95,34.24,0.86,5.85,5.87,0.14,0.02,1.37,-22.39,-34.6,42.68
574,1900-01-01 13:38:09.894,16.25,25.18,7.23,0.51,0.34,1.03,-15.34,-26.86,37.53,1.89,30.02,12.37,0.6,0.04,1.05,8.99,-67.98,32.64
575,1900-01-01 13:38:09.941,21.07,37.91,13.15,0.65,0.38,0.75,-15.85,-40.53,23.18,13.68,44.18,17.37,0.65,0.22,0.64,-1.95,-49.15,18.75
576,1900-01-01 13:38:10.026,18.89,43.49,16.89,0.64,0.3,0.6,-25.89,-33.87,16.56,9.34,63.92,20.26,0.69,0.12,0.31,-27.76,-23.26,-4.53
577,1900-01-01 13:38:10.126,7.19,51.31,19.61,0.64,0.1,0.5,-20.01,-10.2,3.19,4.3,60.52,19.55,0.6,0.05,0.34,-31.47,9.83,-25.27
578,1900-01-01 13:38:10.173,10.89,43.11,20.26,0.63,0.17,0.65,-20.8,9.97,-8.37,9.26,47.32,15.66,0.6,0.13,0.54,-39.54,32.58,-28.26
579,1900-01-01 13:38:10.277,11.53,41.26,19.13,0.61,0.18,0.67,-6.24,14.43,-8.8,12.13,28.31,11.31,0.46,0.2,0.82,-2.89,21.92,-10.57
580,1900-01-01 13:38:10.360,14.62,35.76,17.94,0.6,0.26,0.79,3.76,8.92,-7.15,8.34,27.49,9.67,0.49,0.16,0.94,7.98,4.34,0.8
581,1900-01-01 13:38:10.408,11.56,34.04,17.01,0.6,0.21,0.86,5.07,1.83,-8.37,4.68,33.16,9.78,0.57,0.08,0.87,7.02,-4.06,-7.27
582,1900-01-01 13:38:10.500,9.53,38.68,15.9,0.67,0.18,0.82,2.24,0.16,-7.98,9.6,39.5,8.67,0.65,0.17,0.77,4.09,-10.48,-5.24
583,1900-01-01 13:38:10.602,12.82,35.57,14.85,0.63,0.24,0.85,-1.21,3.47,-8.87,8.69,36.79,7.87,0.61,0.15,0.81,-1.23,-1.43,-4.12
584,1900-01-01 13:38:10.640,12.73,36.35,13.66,0.63,0.23,0.83,-0.79,6.17,-11.04,12.64,41.09,7.23,0.64,0.21,0.71,-2.9,9.33,-5.76
585,1900-01-01 13:38:10.735,10.39,33.8,12.13,0.57,0.18,0.83,-2.76,9.2,-5.66,9.34,31.57,6.34,0.53,0.16,0.84,-4.4,16.15,2.1
586,1900-01-01 13:38:10.781,12.5,29.57,11.42,0.47,0.21,0.81,-8.21,6.95,1.53,5.21,30.78,6.65,0.49,0.09,0.81,-7.86,3.11,2.79
587,1900-01-01 13:38:10.906,15.35,31.18,11.81,0.52,0.27,0.82,-1.57,5.69,-6.47,7.64,36.2,7.07,0.57,0.13,0.77,0.11,-4.78,-4.07
588,1900-01-01 13:38:10.961,12.24,31.5,10.99,0.56,0.23,0.89,1.04,6.22,-7.97,8.58,35.0,6.44,0.6,0.16,0.84,-1.32,2.02,-10.48
589,1900-01-01 13:38:11.050,13.74,28.81,9.93,0.47,0.23,0.83,-0.44,5.51,-3.0,5.75,31.03,4.84,0.51,0.1,0.85,3.53,-13.19,-15.47
590,1900-01-01 13:38:11.108,13.54,25.85,9.64,0.43,0.23,0.85,3.19,-1.37,-5.81,12.51,35.95,2.47,0.54,0.2,0.72,4.15,-0.14,-17.13
591,1900-01-01 13:38:11.210,13.38,26.85,8.91,0.45,0.23,0.87,2.05,-0.21,-4.18,14.41,33.56,-0.15,0.54,0.24,0.78,-0.95,3.48,-4.04
592,1900-01-01 13:38:11.248,12.98,26.76,8.43,0.47,0.23,0.9,0.8,2.61,-2.81,11.74,35.12,-0.78,0.58,0.2,0.79,-1.28,-4.98,1.62
593,1900-01-01 13:38:11.339,15.29,25.99,8.16,0.45,0.27,0.89,0.15,2.35,-1.44,13.46,34.44,-0.54,0.56,0.23,0.79,-3.5,-0.53,2.07
594,1900-01-01 13:38:11.445,15.64,27.32,8.1,0.46,0.27,0.85,-0.07,1.67,0.08,13.53,34.85,-0.23,0.56,0.23,0.77,-4.77,2.33,0.74
595,1900-01-01 13:38:11.482,14.9,26.17,8.27,0.44,0.26,0.87,0.95,1.12,0.27,10.92,36.12,-0.13,0.58,0.19,0.77,-0.92,1.76,1.36
596,1900-01-01 13:38:11.576,15.47,26.78,8.47,0.45,0.27,0.85,1.45,-0.35,-0.77,12.07,35.35,0.07,0.56,0.2,0.76,0.33,3.03,0.66
597,1900-01-01 13:38:11.622,16.4,26.33,8.51,0.45,0.29,0.87,1.15,-0.79,-0.68,12.82,34.44,0.16,0.56,0.22,0.79,0.01,3.63,0.76
598,1900-01-01 13:38:11.719,16.92,26.65,8.57,0.47,0.3,0.88,1.03,-1.08,0.3,13.59,34.43,0.27,0.57,0.24,0.79,0.94,3.69,2.47
599,1900-01-01 13:38:11.908,16.36,27.82,8.77,0.48,0.29,0.87,1.91,-1.54,1.08,14.19,34.65,0.63,0.58,0.25,0.8,-1.31,1.27,-0.15
600,1900-01-01 13:38:11.908,16.37,28.2,9.09,0.49,0.29,0.86,-0.3,-0.75,2.71,14.09,35.0,0.6,0.57,0.24,0.78,-0.27,1.65,3.37
601,1900-01-01 13:38:11.953,14.92,27.98,9.66,0.48,0.26,0.86,-0.54,-0.47,2.5,11.16,35.06,1.1,0.57,0.19,0.78,2.12,-0.42,2.97
602,1900-01-01 13:38:12.001,13.74,29.1,10.2,0.51,0.25,0.87,-1.18,-0.94,0.09,11.04,38.04,1.55,0.63,0.2,0.78,4.6,-2.39,5.74
603,1900-01-01 13:38:12.096,11.82,29.25,10.38,0.52,0.22,0.9,-1.75,-4.43,-1.95,9.37,38.58,2.41,0.65,0.17,0.79,6.97,-4.48,0.23
604,1900-01-01 13:38:12.189,15.87,27.97,10.24,0.48,0.28,0.85,-1.39,-4.3,-1.23,13.86,36.06,2.44,0.56,0.23,0.74,4.69,-0.44,-1.34
605,1900-01-01 13:38:12.236,14.71,27.59,10.21,0.46,0.25,0.84,-0.11,-2.18,-2.47,13.38,37.03,2.22,0.56,0.21,0.71,6.18,1.57,-2.56
606,1900-01-01 13:38:12.328,15.83,27.6,9.99,0.46,0.27,0.84,2.12,-2.56,-4.53,14.64,35.12,1.83,0.57,0.25,0.76,5.62,1.05,-3.49
607,1900-01-01 13:38:12.423,18.08,28.5,9.46,0.48,0.31,0.82,3.79,-4.3,-4.7,19.55,34.82,1.29,0.55,0.32,0.72,4.26,0.66,-4.27
608,1900-01-01 13:38:12.467,17.8,28.73,8.91,0.47,0.3,0.81,2.06,-2.07,-5.13,20.2,35.19,0.63,0.55,0.33,0.7,2.31,-0.95,-3.49
609,1900-01-01 13:38:12.562,19.16,29.36,8.28,0.49,0.33,0.81,0.43,0.33,-3.83,22.67,35.08,0.09,0.55,0.37,0.69,-1.88,-0.97,0.53
610,1900-01-01 13:38:12.610,18.11,29.35,7.86,0.5,0.31,0.82,-0.45,2.96,-2.3,19.29,37.23,0.16,0.59,0.32,0.71,-5.44,2.05,2.65
611,1900-01-01 13:38:12.701,18.43,29.16,7.67,0.49,0.32,0.82,-0.95,4.05,-2.03,18.47,37.63,0.56,0.6,0.31,0.71,-3.98,-2.31,3.38
612,1900-01-01 13:38:12.797,19.28,29.93,7.52,0.5,0.33,0.81,1.14,4.19,-1.0,19.83,36.9,1.06,0.6,0.34,0.72,-1.11,-3.36,1.33
613,1900-01-01 13:38:12.844,16.68,29.83,7.53,0.54,0.31,0.88,0.95,1.97,1.21,16.07,41.45,1.26,0.71,0.3,0.74,0.64,0.56,3.05
614,1900-01-01 13:38:12.936,16.38,31.41,7.87,0.57,0.31,0.88,-0.74,1.15,1.63,18.37,41.66,1.71,0.71,0.34,0.72,-1.37,0.69,4.46
615,1900-01-01 13:38:13.029,16.92,28.69,8.27,0.52,0.31,0.89,-2.88,1.35,4.47,17.02,39.05,2.37,0.66,0.3,0.75,-5.79,3.44,5.26
616,1900-01-01 13:38:13.076,14.27,25.39,9.11,0.44,0.25,0.89,-4.66,-0.5,3.23,9.9,39.18,3.16,0.63,0.17,0.75,-0.02,0.58,1.7
617,1900-01-01 13:38:13.169,17.31,25.83,9.76,0.43,0.3,0.84,-2.88,-1.56,2.5,16.8,36.75,3.41,0.57,0.27,0.71,-1.1,1.04,1.31
618,1900-01-01 13:38:13.218,16.48,26.61,10.29,0.44,0.28,0.84,-1.87,-0.68,1.24,14.98,37.52,3.6,0.58,0.24,0.71,-1.35,2.6,-1.16
619,1900-01-01 13:38:13.311,15.06,26.96,10.64,0.46,0.26,0.86,-0.83,-1.24,-1.62,14.85,38.42,3.42,0.61,0.25,0.73,0.85,0.7,-1.68
620,1900-01-01 13:38:13.403,15.63,27.65,10.55,0.47,0.27,0.85,0.25,-2.74,-1.88,17.15,37.07,3.15,0.59,0.29,0.73,0.66,-0.12,-2.25
621,1900-01-01 13:38:13.450,14.59,27.27,10.43,0.46,0.25,0.86,-0.58,-2.64,-1.55,15.03,37.7,2.8,0.6,0.26,0.74,1.65,-1.44,-1.43
622,1900-01-01 13:38:13.542,14.71,28.01,10.35,0.48,0.26,0.86,-0.13,-3.44,-2.4,16.26,37.63,2.57,0.61,0.28,0.74,1.15,-0.47,-2.58
623,1900-01-01 13:38:13.637,15.61,29.69,10.14,0.5,0.27,0.83,0.99,-4.23,-2.5,18.69,39.23,2.17,0.62,0.31,0.69,0.37,-1.35,-2.96
624,1900-01-01 13:38:13.683,15.64,29.92,9.92,0.51,0.27,0.84,-1.06,-2.15,-1.51,18.14,39.77,1.71,0.63,0.31,0.69,-1.78,0.88,-1.28
625,1900-01-01 13:38:13.776,15.92,28.97,9.85,0.49,0.28,0.84,-1.37,-1.45,-1.31,17.16,39.04,1.51,0.61,0.29,0.7,-2.41,0.94,-0.87
626,1900-01-01 13:38:13.823,16.07,29.75,9.8,0.48,0.27,0.8,1.17,-0.03,-1.32,19.4,38.23,1.36,0.58,0.31,0.67,0.98,2.49,0.31
627,1900-01-01 13:38:13.931,16.84,30.34,9.76,0.5,0.29,0.81,-0.69,3.06,-0.17,19.36,39.17,1.4,0.6,0.32,0.67,-2.95,4.64,3.61
628,1900-01-01 13:38:14.012,16.25,28.54,9.9,0.5,0.29,0.87,1.26,1.85,1.07,19.65,38.23,1.94,0.62,0.34,0.72,-1.12,7.79,4.64
629,1900-01-01 13:38:14.060,14.87,30.61,10.22,0.52,0.26,0.83,-3.58,4.22,4.53,12.92,40.19,2.64,0.63,0.22,0.72,-6.79,4.78,7.41
630,1900-01-01 13:38:14.154,13.68,30.43,11.06,0.51,0.24,0.83,1.33,2.82,1.27,13.23,40.89,3.75,0.64,0.22,0.7,-0.35,1.98,2.08
631,1900-01-01 13:38:14.201,14.42,30.71,11.41,0.52,0.25,0.83,0.5,2.98,-0.25,13.97,39.93,4.06,0.64,0.24,0.72,-2.24,4.17,0.69
632,1900-01-01 13:38:14.327,14.77,29.24,11.53,0.51,0.27,0.87,0.33,-0.03,-0.67,15.94,37.72,4.16,0.62,0.28,0.75,-0.61,6.05,-1.57
633,1900-01-01 13:38:14.388,14.26,28.4,11.59,0.49,0.25,0.86,0.59,0.92,-0.5,12.58,38.93,3.91,0.62,0.21,0.73,-0.18,5.21,-0.87
634,1900-01-01 13:38:14.436,15.67,26.7,11.67,0.45,0.27,0.86,0.53,-0.09,-1.76,14.03,34.4,3.77,0.55,0.24,0.77,-0.19,4.73,-2.01
635,1900-01-01 13:38:14.529,14.88,27.98,11.56,0.48,0.26,0.87,0.1,-0.21,-2.23,13.96,36.74,3.45,0.59,0.24,0.76,-0.22,2.63,-3.02
636,1900-01-01 13:38:14.578,15.91,28.34,11.38,0.49,0.28,0.87,0.31,-1.19,-3.25,16.65,35.23,2.98,0.59,0.29,0.78,0.88,-1.24,-1.66
637,1900-01-01 13:38:14.692,15.75,30.32,11.04,0.52,0.28,0.85,-0.85,0.73,-2.24,17.48,38.93,2.72,0.62,0.3,0.71,-0.85,0.44,-0.89
638,1900-01-01 13:38:14.766,12.74,30.76,10.86,0.52,0.23,0.85,-1.44,2.55,-5.31,12.03,40.65,2.58,0.65,0.21,0.73,-1.98,3.66,-5.3
639,1900-01-01 13:38:14.811,18.71,24.17,10.21,0.43,0.33,0.89,1.21,-2.54,-3.31,18.63,28.34,1.76,0.5,0.34,0.87,1.84,0.55,-2.82
640,1900-01-01 13:38:14.906,17.64,27.17,9.86,0.44,0.29,0.81,0.16,-3.02,1.06,17.21,35.09,1.32,0.51,0.26,0.68,-0.69,1.37,0.14
641,1900-01-01 13:38:15.000,16.29,26.85,10.18,0.46,0.28,0.86,-1.31,1.67,-0.43,15.43,35.0,1.34,0.57,0.26,0.77,-3.5,-0.25,0.5
642,1900-01-01 13:38:15.046,16.25,27.91,10.28,0.48,0.29,0.87,-0.86,-0.1,-1.97,16.89,36.14,1.4,0.59,0.29,0.76,-1.13,-1.91,-2.32
643,1900-01-01 13:38:15.140,16.73,28.22,10.13,0.49,0.3,0.86,-0.21,-0.69,-0.42,17.33,37.31,1.04,0.6,0.29,0.73,-1.9,-0.05,-2.12
644,1900-01-01 13:38:15.191,16.43,28.16,10.23,0.49,0.29,0.86,-2.12,-0.36,-0.78,16.03,36.8,0.71,0.61,0.28,0.76,-0.73,-2.94,-0.22
645,1900-01-01 13:38:15.281,16.37,28.49,10.27,0.49,0.29,0.85,-0.8,-1.78,-0.68,17.38,37.04,0.66,0.59,0.29,0.73,-0.08,-0.56,-0.85
646,1900-01-01 13:38:15.373,16.49,27.66,10.32,0.48,0.29,0.86,-0.51,-1.61,-0.38,18.11,36.29,0.53,0.59,0.31,0.74,-0.95,0.26,-1.01
647,1900-01-01 13:38:15.420,16.66,27.36,10.42,0.47,0.29,0.85,-0.81,-1.27,-0.04,17.31,36.38,0.36,0.58,0.29,0.73,-1.15,0.82,-0.45
648,1900-01-01 13:38:15.514,16.31,27.27,10.57,0.47,0.29,0.86,-0.66,-1.63,-0.47,16.85,36.39,0.29,0.58,0.28,0.74,-0.25,0.56,-0.22
649,1900-01-01 13:38:15.608,16.01,28.49,10.66,0.48,0.28,0.84,-0.78,-1.4,-0.78,17.1,37.55,0.24,0.59,0.29,0.72,-0.57,0.38,-0.35
650,1900-01-01 13:38:15.655,16.11,28.69,10.7,0.49,0.28,0.85,-0.52,-1.44,-0.71,17.49,37.29,0.18,0.6,0.3,0.73,-0.87,0.93,-0.45
651,1900-01-01 13:38:15.748,15.95,29.14,10.75,0.5,0.28,0.85,-0.82,-1.93,-0.75,17.62,37.35,0.1,0.6,0.3,0.73,-1.29,-0.02,-0.61
652,1900-01-01 13:38:15.862,16.08,29.77,10.79,0.5,0.28,0.84,-0.3,-1.09,-0.79,18.41,37.2,0.0,0.59,0.31,0.72,-0.99,1.11,-0.1
653,1900-01-01 13:38:15.890,16.19,29.73,10.83,0.51,0.28,0.84,-0.69,-1.52,-0.47,17.35,38.38,-0.02,0.61,0.29,0.71,-0.96,0.6,0.18
654,1900-01-01 13:38:15.983,16.18,29.72,10.92,0.51,0.28,0.84,-0.27,-1.27,-0.96,18.84,37.38,0.0,0.6,0.32,0.71,-0.85,0.42,-0.41
655,1900-01-01 13:38:16.041,15.86,29.1,10.93,0.49,0.28,0.84,-0.53,-0.84,-0.46,18.26,36.74,-0.08,0.59,0.31,0.72,-0.95,1.65,0.08
656,1900-01-01 13:38:16.125,15.72,29.68,11.02,0.5,0.28,0.84,-1.27,-0.6,-0.65,17.87,37.88,-0.07,0.6,0.3,0.71,-1.47,1.04,0.28
657,1900-01-01 13:38:16.218,15.69,30.53,11.08,0.51,0.27,0.83,0.48,-0.19,-0.76,18.97,37.5,-0.04,0.6,0.32,0.71,0.14,1.68,-0.02
658,1900-01-01 13:38:16.266,16.61,30.3,11.12,0.52,0.29,0.84,-0.79,0.92,0.61,19.47,37.41,-0.05,0.6,0.33,0.72,-2.41,1.79,1.92
659,1900-01-01 13:38:16.360,15.92,29.75,11.37,0.5,0.28,0.83,-1.04,1.8,1.18,17.93,37.03,0.23,0.59,0.3,0.72,-2.16,1.63,2.78
660,1900-01-01 13:38:16.454,14.93,29.35,11.71,0.5,0.26,0.85,-0.89,1.21,0.85,16.27,38.0,0.65,0.61,0.28,0.73,-0.95,1.82,2.12
661,1900-01-01 13:38:16.501,16.37,29.23,12.0,0.49,0.28,0.82,0.21,1.0,0.01,19.12,36.38,0.96,0.57,0.31,0.71,-0.68,1.7,1.6
662,1900-01-01 13:38:16.595,15.46,27.76,12.16,0.46,0.26,0.84,-0.23,1.67,-0.09,15.49,36.81,1.19,0.58,0.26,0.73,-0.29,1.17,1.24
663,1900-01-01 13:38:16.642,15.05,28.94,12.3,0.49,0.27,0.85,1.02,0.82,-1.05,16.82,38.03,1.38,0.61,0.29,0.73,1.09,1.35,0.44
664,1900-01-01 13:38:16.734,15.67,28.66,12.3,0.5,0.28,0.87,-0.04,0.37,-1.66,17.55,37.54,1.43,0.62,0.31,0.74,-1.4,1.65,-0.62
665,1900-01-01 13:38:16.828,15.04,28.97,12.2,0.49,0.26,0.85,-0.61,0.34,-1.66,17.39,37.85,1.33,0.6,0.29,0.71,-0.89,2.71,-0.8
666,1900-01-01 13:38:16.875,15.18,28.64,12.11,0.49,0.27,0.85,-0.92,0.85,-1.68,16.86,37.66,1.2,0.6,0.29,0.73,-1.03,2.29,-0.35
667,1900-01-01 13:38:16.968,15.39,27.97,12.01,0.47,0.27,0.84,-0.38,0.01,-2.63,16.93,37.3,1.14,0.59,0.28,0.72,-0.53,2.46,-1.96
668,1900-01-01 13:38:17.078,16.52,28.37,11.77,0.48,0.29,0.84,0.46,0.81,-2.87,18.47,36.98,0.83,0.59,0.31,0.72,-1.45,2.57,-1.37
669,1900-01-01 13:38:17.109,15.99,28.06,11.49,0.47,0.28,0.84,0.6,1.42,-3.38,17.27,36.58,0.61,0.58,0.29,0.72,-1.26,3.28,-1.86
670,1900-01-01 13:38:17.201,16.51,27.63,11.14,0.47,0.29,0.84,0.47,2.11,-3.4,18.28,36.41,0.32,0.57,0.3,0.72,-2.13,2.99,-1.09
671,1900-01-01 13:38:17.250,15.8,27.74,10.78,0.48,0.28,0.86,0.56,3.03,-4.35,16.88,37.06,0.15,0.6,0.29,0.74,-1.7,4.6,-2.25
672,1900-01-01 13:38:17.341,17.93,26.58,10.27,0.46,0.32,0.87,0.4,2.69,-3.61,19.11,34.59,-0.21,0.57,0.33,0.76,-3.2,3.76,-1.46
673,1900-01-01 13:38:17.436,17.44,26.57,9.88,0.46,0.31,0.86,0.02,2.36,-2.41,17.7,34.56,-0.44,0.56,0.3,0.76,-3.55,4.18,-0.64
674,1900-01-01 13:38:17.482,18.01,25.35,9.67,0.43,0.31,0.86,0.56,1.92,-2.44,18.08,33.12,-0.54,0.54,0.31,0.77,-1.85,3.69,-0.35
675,1900-01-01 13:38:17.577,18.09,25.09,9.46,0.43,0.32,0.87,0.95,0.53,-2.31,18.05,33.53,-0.6,0.55,0.31,0.77,-1.28,2.52,-1.09
676,1900-01-01 13:38:17.675,17.62,25.55,9.27,0.44,0.31,0.86,0.15,0.96,-2.16,17.31,33.65,-0.78,0.55,0.29,0.76,-1.4,3.23,-0.31
677,1900-01-01 13:38:17.718,18.5,24.92,9.1,0.43,0.33,0.88,-0.29,0.26,-1.38,17.69,33.52,-0.83,0.55,0.3,0.77,-2.44,2.85,-0.44
678,1900-01-01 13:38:17.811,18.63,24.98,9.04,0.43,0.33,0.87,0.08,0.1,-1.01,18.39,33.14,-0.91,0.54,0.31,0.77,-1.34,2.63,0.39
679,1900-01-01 13:38:17.859,18.77,24.78,9.05,0.42,0.32,0.85,-0.02,0.06,-1.18,18.19,32.83,-0.86,0.53,0.3,0.76,-1.58,2.05,-0.51
680,1900-01-01 13:38:17.965,18.37,24.61,9.03,0.42,0.32,0.86,0.21,0.17,-1.46,17.37,32.87,-0.94,0.53,0.29,0.77,-1.07,1.93,-0.37
681,1900-01-01 13:38:18.044,18.76,24.57,8.97,0.42,0.33,0.87,-0.31,-0.03,-1.48,18.03,32.88,-1.01,0.53,0.3,0.76,-1.92,2.11,-0.4
682,1900-01-01 13:38:18.092,18.69,24.7,8.9,0.42,0.33,0.86,-0.07,0.24,-1.72,18.06,32.91,-1.08,0.53,0.3,0.77,-1.27,1.68,-0.12
683,1900-01-01 13:38:18.184,18.97,24.86,8.79,0.43,0.33,0.86,-0.3,0.5,-1.65,18.75,32.56,-1.11,0.53,0.32,0.77,-0.81,1.22,0.02
684,1900-01-01 13:38:18.239,18.75,25.19,8.7,0.44,0.33,0.86,-0.63,0.41,-1.5,18.09,33.64,-1.11,0.55,0.31,0.76,-2.47,2.97,-1.29
685,1900-01-01 13:38:18.324,18.92,23.59,8.63,0.41,0.33,0.87,-0.44,0.21,-2.0,17.17,31.9,-1.32,0.52,0.29,0.78,-1.94,2.62,-1.61
686,1900-01-01 13:38:18.418,19.62,23.04,8.48,0.4,0.34,0.87,0.39,-0.37,-1.68,18.49,30.62,-1.57,0.5,0.31,0.78,0.35,0.95,-0.38
687,1900-01-01 13:38:18.465,18.94,23.57,8.39,0.41,0.33,0.88,0.2,-0.43,-1.45,18.15,31.89,-1.64,0.53,0.31,0.79,0.03,1.37,-0.29
688,1900-01-01 13:38:18.601,18.67,23.94,8.33,0.42,0.33,0.88,-0.73,-0.11,-0.87,17.31,32.49,-1.69,0.53,0.3,0.78,-1.69,2.47,-0.16
689,1900-01-01 13:38:18.634,19.46,23.98,8.35,0.41,0.34,0.86,-0.98,0.55,-0.89,18.62,31.09,-1.72,0.51,0.31,0.78,-1.49,2.53,-0.02
690,1900-01-01 13:38:18.704,18.83,24.18,8.37,0.41,0.32,0.86,-0.89,0.37,-1.69,17.79,32.66,-1.73,0.52,0.29,0.75,-0.73,0.98,-0.28
691,1900-01-01 13:38:18.792,18.84,24.75,8.28,0.43,0.33,0.87,-0.75,1.09,-1.9,19.12,32.68,-1.78,0.54,0.33,0.77,-1.57,1.75,0.0
692,1900-01-01 13:38:18.887,18.87,23.32,8.14,0.41,0.34,0.89,-1.75,0.45,-1.05,17.48,31.65,-1.79,0.53,0.3,0.81,-1.59,1.22,0.65
693,1900-01-01 13:38:18.934,19.19,22.78,8.14,0.39,0.33,0.86,-1.15,-0.13,-0.49,17.83,30.98,-1.7,0.49,0.29,0.77,-1.73,0.83,0.64
694,1900-01-01 13:38:19.026,18.37,22.23,8.23,0.39,0.32,0.89,-0.87,-0.75,-0.35,16.24,31.43,-1.61,0.52,0.28,0.81,-1.28,3.84,-0.19
695,1900-01-01 13:38:19.077,19.58,23.67,8.33,0.41,0.34,0.87,-0.76,-1.84,-1.23,19.12,32.24,-1.65,0.52,0.32,0.76,-1.4,5.63,-1.46
696,1900-01-01 13:38:19.191,19.05,24.21,8.3,0.41,0.33,0.85,-0.92,-0.16,-0.66,18.79,30.95,-1.88,0.49,0.31,0.75,-2.35,1.56,-0.05
697,1900-01-01 13:38:19.261,17.6,24.16,8.36,0.41,0.31,0.87,-1.74,2.3,-2.04,16.01,32.65,-1.9,0.53,0.27,0.78,-2.7,2.53,-0.53
698,1900-01-01 13:38:19.307,19.64,21.64,8.21,0.39,0.35,0.91,-0.27,0.0,-1.04,18.27,28.94,-1.99,0.5,0.33,0.85,-1.71,4.59,-0.85
699,1900-01-01 13:38:19.399,18.09,23.81,8.21,0.41,0.31,0.87,-0.2,-2.71,0.37,17.48,29.75,-2.13,0.48,0.29,0.79,-3.27,7.39,-0.79
700,1900-01-01 13:38:19.495,19.04,24.53,8.42,0.41,0.32,0.83,-1.24,-1.37,0.15,17.62,27.44,-2.26,0.43,0.28,0.78,-3.06,3.17,-0.09
701,1900-01-01 13:38:19.541,17.93,23.5,8.6,0.4,0.31,0.87,-1.0,-0.71,-0.47,15.74,28.77,-2.28,0.47,0.26,0.81,-2.21,2.73,-1.27
702,1900-01-01 13:38:19.637,18.77,24.95,8.69,0.4,0.3,0.8,-2.27,1.05,-3.33,18.52,27.46,-2.48,0.42,0.29,0.75,1.44,-8.18,2.26
703,1900-01-01 13:38:19.682,17.39,23.29,8.34,0.4,0.3,0.87,-4.79,3.55,-4.6,15.46,31.0,-2.15,0.52,0.27,0.82,1.94,-13.92,5.1
704,1900-01-01 13:38:19.784,18.61,23.34,7.8,0.43,0.34,0.92,2.29,-1.79,-1.37,20.37,31.85,-1.38,0.55,0.36,0.81,6.77,-4.15,2.26
705,1900-01-01 13:38:19.870,17.7,23.65,7.75,0.41,0.31,0.89,0.63,-0.53,1.08,18.41,34.99,-1.04,0.56,0.31,0.73,-3.18,2.3,1.03
706,1900-01-01 13:38:19.917,17.74,22.98,8.07,0.39,0.31,0.88,-0.04,1.44,-0.16,16.34,33.03,-0.89,0.54,0.28,0.78,-1.69,1.42,1.58
707,1900-01-01 13:38:20.009,19.12,23.2,8.21,0.4,0.33,0.86,0.05,-0.56,-0.99,18.71,32.17,-0.66,0.52,0.32,0.77,0.45,-0.98,0.69
708,1900-01-01 13:38:20.130,18.42,23.5,8.22,0.41,0.32,0.88,0.54,-0.86,-0.31,18.01,34.13,-0.57,0.56,0.31,0.76,-0.92,-0.26,0.6
709,1900-01-01 13:38:20.160,18.47,23.75,8.33,0.41,0.33,0.88,-0.79,-0.93,-0.41,18.04,34.06,-0.48,0.56,0.31,0.77,-0.83,0.28,0.63
710,1900-01-01 13:38:20.254,18.19,23.57,8.42,0.4,0.32,0.87,-1.11,-1.14,0.01,18.03,33.23,-0.4,0.53,0.3,0.76,-1.19,0.17,0.97
711,1900-01-01 13:38:20.291,17.83,23.7,8.58,0.41,0.31,0.88,-1.25,-1.38,0.15,17.47,34.28,-0.26,0.56,0.3,0.77,-1.7,-0.09,0.38
712,1900-01-01 13:38:20.384,18.14,24.5,8.76,0.42,0.32,0.87,-1.55,-1.27,0.28,18.29,34.48,-0.21,0.56,0.31,0.75,-1.81,-1.1,2.2
713,1900-01-01 13:38:20.477,16.63,25.21,8.96,0.43,0.29,0.88,-1.21,-0.48,0.99,17.98,34.41,0.12,0.57,0.31,0.77,-2.58,-3.44,2.8
714,1900-01-01 13:38:20.523,17.86,23.94,9.27,0.41,0.31,0.88,-1.12,-0.54,0.24,16.39,37.23,0.54,0.6,0.28,0.73,1.09,-5.74,1.99
715,1900-01-01 13:38:20.617,17.54,25.23,9.47,0.43,0.3,0.86,-1.61,-1.31,-0.08,16.59,38.18,0.83,0.6,0.28,0.71,0.18,-6.03,1.85
716,1900-01-01 13:38:20.710,17.39,24.12,9.62,0.4,0.3,0.85,-0.81,-1.32,-0.69,16.05,36.84,1.1,0.59,0.27,0.74,0.62,-9.91,2.85
717,1900-01-01 13:38:20.757,17.89,25.02,9.67,0.42,0.31,0.86,-0.95,-1.92,-1.05,19.02,37.47,1.53,0.59,0.32,0.7,-0.46,-5.33,0.85
718,1900-01-01 13:38:20.851,16.38,24.26,9.67,0.43,0.29,0.9,-1.21,-1.48,-1.08,15.42,42.55,1.65,0.68,0.27,0.69,0.79,-4.2,1.27
719,1900-01-01 13:38:20.944,16.88,24.62,9.66,0.43,0.3,0.88,-1.96,-1.23,-2.11,16.79,43.33,1.84,0.68,0.29,0.67,2.0,-9.98,2.69
720,1900-01-01 13:38:20.991,17.22,25.69,9.5,0.44,0.3,0.87,-1.56,-1.51,-0.91,16.96,43.46,2.24,0.69,0.29,0.66,-0.24,-3.47,0.17
721,1900-01-01 13:38:21.084,16.55,25.56,9.52,0.45,0.29,0.88,-1.04,-2.84,-0.85,17.13,44.03,2.25,0.7,0.3,0.66,0.1,-2.01,-0.69
722,1900-01-01 13:38:21.131,16.78,25.44,9.55,0.44,0.29,0.87,-0.98,-2.67,-0.23,17.35,44.42,2.14,0.69,0.29,0.64,-0.93,0.27,-1.09
723,1900-01-01 13:38:21.224,16.55,25.31,9.67,0.43,0.29,0.86,-1.08,-1.86,-0.44,17.09,43.65,1.96,0.68,0.29,0.65,-0.66,0.95,-0.79
724,1900-01-01 13:38:21.318,16.44,27.12,9.76,0.46,0.29,0.85,-1.07,-1.28,-0.11,16.73,44.78,1.83,0.69,0.28,0.64,-2.28,0.69,-0.51
725,1900-01-01 13:38:21.364,16.96,26.78,9.9,0.46,0.3,0.86,-0.76,-0.76,-0.81,17.77,44.67,1.75,0.69,0.3,0.63,-1.21,1.72,-0.26
726,1900-01-01 13:38:21.458,16.34,27.17,9.94,0.46,0.28,0.85,-0.44,-0.37,-0.74,17.97,44.22,1.7,0.68,0.3,0.63,-2.33,2.54,-0.7
727,1900-01-01 13:38:21.557,17.52,24.85,9.98,0.43,0.31,0.88,-0.89,-0.88,0.3,18.37,41.15,1.58,0.66,0.32,0.68,-2.2,6.34,-1.74
728,1900-01-01 13:38:21.600,15.65,26.38,10.19,0.45,0.27,0.87,-1.71,-0.36,0.82,15.72,42.9,1.31,0.67,0.27,0.67,-2.47,6.9,-1.02
729,1900-01-01 13:38:21.693,14.41,29.34,10.47,0.51,0.26,0.87,-0.44,-0.56,-1.67,17.59,43.8,1.15,0.71,0.31,0.67,-0.78,1.36,0.65
730,1900-01-01 13:38:21.739,16.94,27.99,10.37,0.48,0.3,0.85,-0.61,-0.64,-1.11,17.98,43.39,1.24,0.68,0.31,0.65,-1.66,-0.07,0.45
731,1900-01-01 13:38:21.841,17.2,25.9,10.36,0.43,0.29,0.83,-1.47,0.38,0.54,17.08,42.3,1.3,0.62,0.27,0.62,-2.6,4.6,-0.31
732,1900-01-01 13:38:21.927,15.37,25.08,10.6,0.42,0.26,0.86,0.37,1.68,-2.02,14.56,40.36,1.24,0.64,0.25,0.71,0.3,2.22,-0.26
733,1900-01-01 13:38:21.974,15.79,28.64,10.46,0.51,0.29,0.89,-0.92,-0.5,-1.35,18.59,44.72,1.19,0.72,0.33,0.65,-1.25,1.87,-1.07
734,1900-01-01 13:38:22.067,14.16,28.18,10.41,0.49,0.25,0.88,-2.64,0.72,-1.24,15.9,43.62,1.02,0.69,0.27,0.67,-4.3,6.23,-2.94
735,1900-01-01 13:38:22.160,15.86,25.23,10.38,0.42,0.27,0.86,-0.43,1.31,-3.3,17.96,38.15,0.57,0.61,0.3,0.71,-1.3,2.63,-0.95
736,1900-01-01 13:38:22.208,17.48,24.13,10.03,0.41,0.3,0.87,-1.23,-0.24,-0.29,17.98,39.32,0.41,0.61,0.3,0.69,-2.29,1.42,0.19
737,1900-01-01 13:38:22.302,15.36,25.39,10.15,0.44,0.27,0.88,-0.76,0.24,-1.63,17.73,40.41,0.43,0.64,0.3,0.69,-0.17,1.28,-0.1
738,1900-01-01 13:38:22.348,15.8,25.43,10.06,0.44,0.28,0.89,-0.73,-0.4,-1.08,16.81,40.6,0.41,0.65,0.29,0.7,-1.11,2.87,-0.08
739,1900-01-01 13:38:22.440,15.91,26.08,10.05,0.44,0.27,0.85,-1.18,0.27,-0.95,17.11,40.56,0.39,0.64,0.29,0.68,-1.56,0.82,0.59
740,1900-01-01 13:38:22.533,16.37,25.98,10.06,0.45,0.29,0.87,-0.25,-0.38,-0.72,17.94,40.41,0.47,0.64,0.3,0.69,-1.18,1.4,-0.13
741,1900-01-01 13:38:22.581,16.36,25.67,10.11,0.44,0.29,0.87,0.03,-0.45,-1.02,18.21,40.14,0.44,0.64,0.31,0.69,-0.89,1.57,-0.34
742,1900-01-01 13:38:22.674,15.43,26.26,10.12,0.45,0.27,0.87,-0.51,-0.03,-0.84,17.08,40.73,0.38,0.64,0.29,0.69,-0.85,1.25,0.11
743,1900-01-01 13:38:22.793,16.37,25.18,10.15,0.43,0.29,0.87,-0.48,-0.53,-0.52,17.27,39.74,0.39,0.63,0.29,0.7,-0.92,1.69,-0.25
744,1900-01-01 13:38:22.818,17.5,23.39,10.22,0.4,0.3,0.87,0.63,-1.33,0.42,18.08,37.39,0.34,0.6,0.31,0.72,-0.74,1.36,0.08
745,1900-01-01 13:38:22.912,16.08,25.56,10.45,0.43,0.28,0.86,0.26,-1.86,0.78,17.22,40.02,0.35,0.63,0.29,0.69,-0.33,1.46,-0.48
746,1900-01-01 13:38:22.957,15.55,27.57,10.72,0.48,0.28,0.87,0.34,-1.98,-0.08,17.35,43.16,0.26,0.68,0.29,0.66,-0.53,1.69,-1.15
747,1900-01-01 13:38:23.053,15.29,28.45,10.87,0.49,0.27,0.87,-0.24,-0.56,-1.29,17.22,42.67,0.08,0.68,0.3,0.68,-1.45,2.35,-1.03
748,1900-01-01 13:38:23.144,16.54,27.73,10.83,0.48,0.29,0.86,0.12,-0.72,-0.33,18.83,40.05,-0.09,0.64,0.32,0.69,-2.33,1.67,0.46
749,1900-01-01 13:38:23.190,17.3,26.25,10.94,0.45,0.3,0.86,-0.52,0.33,-0.35,18.27,39.88,-0.02,0.63,0.31,0.69,-1.73,0.18,2.11
750,1900-01-01 13:38:23.283,16.36,27.22,11.05,0.47,0.29,0.86,-1.15,-0.05,-0.5,17.01,41.2,0.29,0.65,0.29,0.69,-1.12,2.08,0.23
751,1900-01-01 13:38:23.378,16.0,27.35,11.13,0.47,0.28,0.86,-0.42,0.44,-1.27,18.24,40.28,0.32,0.64,0.31,0.69,-1.29,1.82,0.92
752,1900-01-01 13:38:23.422,16.51,26.77,11.09,0.45,0.28,0.85,-1.23,-0.05,-2.49,17.38,40.67,0.45,0.62,0.28,0.66,0.4,2.09,2.74
753,1900-01-01 13:38:23.516,16.46,25.4,10.87,0.45,0.3,0.9,-2.23,-0.29,-2.42,18.11,39.55,0.86,0.66,0.32,0.73,0.42,4.04,2.18
754,1900-01-01 13:38:23.644,16.62,27.15,10.66,0.47,0.29,0.86,0.21,-1.15,-1.27,18.59,40.51,1.18,0.64,0.32,0.68,0.49,2.05,-0.67
755,1900-01-01 13:38:23.644,16.68,26.37,10.63,0.45,0.29,0.86,0.22,-0.4,-0.93,18.03,39.27,1.07,0.62,0.3,0.7,-1.73,2.3,0.11
756,1900-01-01 13:38:23.757,16.58,25.74,10.64,0.44,0.29,0.86,-0.17,0.4,-1.61,17.22,39.97,1.08,0.62,0.29,0.68,-0.13,2.53,0.11
757,1900-01-01 13:38:23.796,16.7,24.87,10.56,0.43,0.29,0.87,1.61,-0.97,-2.76,16.72,39.27,1.09,0.62,0.28,0.7,1.36,3.58,-2.82
758,1900-01-01 13:38:23.889,17.92,27.18,10.29,0.46,0.31,0.85,1.85,0.59,-3.41,21.47,38.81,0.65,0.62,0.36,0.68,0.39,3.37,-2.16
759,1900-01-01 13:38:23.985,18.09,25.7,9.93,0.44,0.32,0.87,-0.23,1.83,-2.17,18.6,38.83,0.31,0.62,0.32,0.7,-2.14,2.57,-0.51
760,1900-01-01 13:38:24.030,16.85,25.96,9.76,0.45,0.3,0.88,0.18,0.82,-2.98,17.86,39.3,0.23,0.64,0.31,0.71,-2.52,2.1,-1.34
761,1900-01-01 13:38:24.125,17.35,25.87,9.47,0.45,0.31,0.88,-0.49,-0.18,-3.35,18.02,39.28,0.01,0.64,0.31,0.72,-1.2,1.08,-1.56
762,1900-01-01 13:38:24.229,18.21,25.75,9.12,0.44,0.32,0.85,-0.29,-1.56,-2.95,19.34,38.46,-0.23,0.61,0.32,0.69,-2.5,2.04,-3.42
763,1900-01-01 13:38:24.266,19.12,25.52,8.82,0.44,0.33,0.85,0.82,-0.12,-2.4,21.16,37.22,-0.76,0.6,0.36,0.7,0.12,1.34,-1.31
764,1900-01-01 13:38:24.357,18.32,25.14,8.62,0.43,0.32,0.86,0.07,0.19,-1.59,19.04,37.62,-0.97,0.6,0.32,0.71,-1.05,1.89,-0.57
765,1900-01-01 13:38:24.405,18.7,25.42,8.54,0.45,0.33,0.88,1.45,-0.93,-0.54,19.84,36.42,-1.07,0.6,0.34,0.74,-2.94,3.68,-6.17
766,1900-01-01 13:38:24.499,17.19,25.81,8.61,0.43,0.29,0.84,-2.01,-0.98,-2.56,17.56,38.58,-2.02,0.6,0.29,0.69,-1.29,0.59,-3.7
767,1900-01-01 13:38:24.593,17.93,25.41,8.38,0.43,0.31,0.85,-1.46,-0.88,-4.03,19.41,37.58,-2.59,0.59,0.32,0.7,-0.83,1.64,-3.08
768,1900-01-01 13:38:24.639,20.47,25.1,7.92,0.43,0.36,0.85,0.55,-0.08,-3.29,23.41,35.13,-3.07,0.57,0.4,0.71,-1.06,2.39,-2.24
769,1900-01-01 13:38:24.734,18.92,24.94,7.58,0.43,0.33,0.86,-0.04,-0.47,-2.63,20.62,35.91,-3.42,0.58,0.35,0.72,-1.27,2.43,-1.99
770,1900-01-01 13:38:24.829,19.35,25.11,7.33,0.43,0.34,0.85,-0.04,-0.24,-2.19,21.42,35.8,-3.73,0.57,0.36,0.71,-1.34,1.73,-0.89
771,1900-01-01 13:38:24.874,19.7,25.03,7.16,0.43,0.34,0.86,0.07,0.15,-1.51,21.03,35.52,-3.88,0.58,0.36,0.72,-1.39,2.18,-0.5
772,1900-01-01 13:38:24.967,19.68,25.19,7.09,0.43,0.34,0.85,0.61,0.17,-1.43,21.28,35.57,-3.96,0.57,0.36,0.71,-0.85,1.92,-0.21
773,1900-01-01 13:38:25.014,20.23,24.85,7.03,0.43,0.35,0.86,1.72,1.04,-1.0,21.92,35.45,-4.0,0.58,0.37,0.72,0.06,1.47,0.98
774,1900-01-01 13:38:25.108,21.47,24.18,7.03,0.42,0.38,0.87,-0.33,2.18,1.61,21.36,34.85,-3.86,0.57,0.36,0.73,-1.72,1.35,6.05
775,1900-01-01 13:38:25.202,18.88,23.88,7.44,0.41,0.33,0.87,-0.55,1.01,1.5,17.42,37.24,-2.95,0.59,0.29,0.72,-1.8,3.44,1.48
776,1900-01-01 13:38:25.248,20.21,25.27,7.82,0.43,0.35,0.84,-0.49,-0.37,-0.98,21.09,35.51,-2.74,0.57,0.35,0.72,-0.32,1.73,0.15
777,1900-01-01 13:38:25.341,19.78,24.43,7.83,0.42,0.34,0.85,0.07,-1.14,-1.11,19.88,35.85,-2.72,0.57,0.33,0.72,-0.11,1.24,-0.87
778,1900-01-01 13:38:25.448,19.96,24.64,7.82,0.42,0.35,0.86,-0.27,-1.4,-1.5,20.93,35.52,-2.86,0.57,0.35,0.72,-0.41,0.91,-0.73
779,1900-01-01 13:38:25.481,19.88,24.55,7.75,0.43,0.35,0.86,-0.54,-0.55,-1.01,20.72,35.63,-2.98,0.58,0.35,0.73,-1.15,1.5,-0.11
780,1900-01-01 13:38:25.575,19.75,24.78,7.75,0.43,0.34,0.86,-0.7,-0.2,-0.75,20.42,35.76,-3.01,0.57,0.34,0.72,-1.4,1.74,0.19
781,1900-01-01 13:38:25.625,20.6,24.7,7.8,0.42,0.36,0.85,-0.92,0.15,-0.79,21.38,35.21,-2.99,0.56,0.36,0.72,-1.71,1.51,0.35
782,1900-01-01 13:38:25.716,20.12,24.78,7.84,0.42,0.35,0.85,-0.37,0.24,-0.91,20.86,35.54,-2.94,0.57,0.35,0.72,-1.76,1.25,0.35
783,1900-01-01 13:38:25.810,19.94,24.71,7.86,0.43,0.35,0.86,-0.44,-0.08,-0.94,20.81,35.61,-2.9,0.58,0.35,0.72,-1.53,1.52,0.21
784,1900-01-01 13:38:25.856,19.77,24.59,7.87,0.42,0.34,0.86,-1.06,-0.5,-1.07,19.79,35.76,-2.87,0.58,0.33,0.73,-0.95,1.51,-0.1
785,1900-01-01 13:38:25.950,19.99,25.45,7.87,0.43,0.34,0.83,-0.57,-2.57,-2.4,19.3,35.7,-2.9,0.56,0.32,0.71,0.9,-3.71,-1.37
786,1900-01-01 13:38:26.074,19.26,25.17,7.66,0.43,0.34,0.86,-3.27,-0.66,-3.31,20.47,36.88,-3.12,0.61,0.35,0.73,-2.57,-2.59,0.78
787,1900-01-01 13:38:26.101,19.51,25.24,7.31,0.44,0.34,0.87,-0.07,-2.6,-0.69,22.37,35.38,-3.0,0.58,0.38,0.72,-0.9,1.61,-1.66
788,1900-01-01 13:38:26.192,19.97,24.49,7.36,0.42,0.35,0.86,-0.63,-2.39,-0.9,21.14,35.85,-3.27,0.57,0.35,0.71,-0.42,1.94,-1.53
789,1900-01-01 13:38:26.232,18.85,25.43,7.38,0.43,0.32,0.84,-1.22,-0.98,-0.79,20.79,35.52,-3.51,0.56,0.34,0.71,-0.6,2.27,0.48
790,1900-01-01 13:38:26.325,19.86,25.63,7.42,0.44,0.34,0.85,-1.92,-0.31,-0.87,20.13,36.53,-3.44,0.58,0.34,0.71,-2.55,2.22,0.24
791,1900-01-01 13:38:26.418,20.12,25.74,7.45,0.44,0.35,0.85,-0.62,-0.5,-1.05,22.43,35.34,-3.42,0.57,0.38,0.71,-1.09,0.67,0.54
792,1900-01-01 13:38:26.465,19.69,25.49,7.45,0.44,0.34,0.85,-0.58,-0.12,-0.36,21.25,35.71,-3.34,0.57,0.36,0.71,-1.58,0.6,1.61
793,1900-01-01 13:38:26.559,19.27,25.73,7.55,0.44,0.34,0.85,-1.53,-0.26,-0.5,20.92,36.48,-3.1,0.58,0.35,0.71,-1.91,0.54,0.92
794,1900-01-01 13:38:26.667,19.3,25.19,7.63,0.43,0.33,0.85,-0.68,-0.92,-0.77,20.35,35.96,-2.97,0.57,0.34,0.71,-0.91,0.84,-0.26
795,1900-01-01 13:38:26.700,19.23,25.77,7.67,0.44,0.33,0.85,-0.06,-1.03,-1.2,21.7,36.17,-3.02,0.58,0.36,0.7,-1.27,-0.01,-0.13
796,1900-01-01 13:38:26.792,18.93,25.71,7.65,0.44,0.33,0.85,-0.43,-1.1,-1.32,20.44,36.85,-3.05,0.59,0.35,0.71,-0.71,-0.45,-1.47
797,1900-01-01 13:38:26.839,19.34,25.35,7.6,0.44,0.34,0.86,-0.5,-0.67,-1.14,21.23,36.61,-3.28,0.59,0.36,0.7,-1.1,1.4,-0.59
798,1900-01-01 13:38:26.933,19.77,25.72,7.59,0.44,0.34,0.84,-0.88,-1.04,-1.5,22.36,35.6,-3.38,0.57,0.37,0.7,-3.28,-0.63,-1.47
799,1900-01-01 13:38:27.028,19.47,26.26,7.52,0.45,0.34,0.84,-0.94,0.21,-0.66,21.42,37.88,-3.61,0.6,0.36,0.68,-6.12,0.23,1.57
800,1900-01-01 13:38:27.074,18.54,26.29,7.57,0.45,0.32,0.85,-1.69,-0.32,-0.28,19.47,38.22,-3.38,0.61,0.33,0.7,-6.45,2.57,1.9
801,1900-01-01 13:38:27.167,19.91,26.22,7.69,0.45,0.34,0.84,0.27,0.52,-0.27,19.77,35.12,-3.1,0.57,0.33,0.74,-6.45,3.44,1.39
802,1900-01-01 13:38:27.259,18.4,25.18,7.81,0.44,0.32,0.87,-2.81,1.99,0.34,15.18,38.64,-2.9,0.62,0.26,0.73,-4.67,1.55,1.25
803,1900-01-01 13:38:27.306,18.93,25.77,8.02,0.45,0.33,0.86,0.89,-0.8,-0.99,18.15,36.24,-2.72,0.59,0.31,0.74,-1.1,2.0,-0.5
804,1900-01-01 13:38:27.399,18.24,25.8,8.03,0.45,0.32,0.87,-0.66,-0.27,-0.55,17.19,37.51,-2.8,0.61,0.29,0.73,-0.89,2.18,-0.65
805,1900-01-01 13:38:27.492,18.89,25.71,8.1,0.44,0.33,0.85,0.33,-0.47,-0.59,18.86,36.59,-2.91,0.58,0.32,0.72,-0.2,2.67,-0.43
806,1900-01-01 13:38:27.539,18.88,26.02,8.17,0.45,0.33,0.86,-1.35,0.08,-0.54,18.21,36.62,-2.98,0.59,0.31,0.73,-1.13,1.05,0.94
807,1900-01-01 13:38:27.632,18.82,25.74,8.24,0.44,0.33,0.86,-0.77,-0.53,-0.12,18.47,37.42,-2.85,0.6,0.31,0.72,-1.58,1.37,-0.02
808,1900-01-01 13:38:27.725,18.46,26.06,8.38,0.44,0.32,0.84,-0.44,-0.77,-0.8,18.48,36.6,-2.86,0.58,0.31,0.72,-0.43,0.79,-0.03
809,1900-01-01 13:38:27.773,18.99,25.96,8.42,0.44,0.33,0.84,-0.6,-0.41,-1.02,17.66,36.22,-2.87,0.58,0.3,0.73,0.95,-0.16,-0.18
810,1900-01-01 13:38:27.867,18.99,25.62,8.42,0.44,0.33,0.85,0.05,-0.17,-1.14,18.39,36.39,-2.91,0.58,0.31,0.72,-0.66,1.6,-0.62
811,1900-01-01 13:38:27.914,18.69,26.26,8.41,0.45,0.33,0.85,-0.05,-0.11,-1.12,18.36,37.35,-3.01,0.6,0.31,0.72,-1.39,1.51,-0.57
812,1900-01-01 13:38:28.007,18.77,25.92,8.4,0.44,0.33,0.85,0.05,-0.55,-1.3,19.06,36.19,-3.11,0.57,0.32,0.72,-0.2,0.81,-0.56
813,1900-01-01 13:38:28.120,19.02,25.56,8.36,0.44,0.33,0.85,-0.5,0.92,-0.49,18.89,36.33,-3.2,0.58,0.32,0.73,-1.76,1.93,0.95
814,1900-01-01 13:38:28.147,18.77,25.4,8.44,0.44,0.33,0.86,-0.4,1.05,-1.05,18.24,37.0,-3.07,0.59,0.31,0.73,-0.85,1.67,0.18
815,1900-01-01 13:38:28.240,18.71,25.91,8.44,0.45,0.33,0.86,0.35,-0.48,-1.48,19.06,36.75,-3.05,0.59,0.32,0.72,-0.13,1.94,-0.84
816,1900-01-01 13:38:28.293,19.38,24.63,8.37,0.42,0.33,0.85,-0.23,0.63,-1.29,19.08,36.07,-3.18,0.57,0.31,0.71,-0.9,1.94,-0.04
817,1900-01-01 13:38:28.381,18.9,25.22,8.33,0.43,0.33,0.85,-0.79,1.98,-0.85,18.6,36.56,-3.2,0.58,0.31,0.72,-1.73,1.67,0.83
818,1900-01-01 13:38:28.472,18.54,25.15,8.36,0.44,0.33,0.87,-0.37,1.53,-1.19,18.04,36.93,-3.08,0.6,0.31,0.74,-1.35,2.24,0.44
819,1900-01-01 13:38:28.530,19.53,24.95,8.34,0.43,0.34,0.86,-0.49,0.47,-1.42,19.1,36.1,-3.02,0.58,0.32,0.73,-1.89,2.37,-0.16
820,1900-01-01 13:38:28.630,19.19,24.38,8.28,0.41,0.33,0.85,-0.27,0.45,-1.51,18.14,36.09,-3.05,0.57,0.3,0.73,-0.95,1.82,-0.54
821,1900-01-01 13:38:28.706,19.37,24.5,8.21,0.42,0.33,0.85,-0.15,0.3,-1.76,18.43,36.06,-3.15,0.57,0.31,0.72,-2.03,2.0,-1.11
822,1900-01-01 13:38:28.753,19.47,24.67,8.1,0.43,0.34,0.87,-0.31,0.28,-2.1,19.27,35.95,-3.32,0.59,0.33,0.75,-1.36,1.37,-0.72
823,1900-01-01 13:38:28.846,19.06,24.78,7.94,0.43,0.34,0.87,-0.81,-0.17,-1.48,18.99,36.03,-3.44,0.59,0.33,0.74,-1.41,0.63,-0.2
824,1900-01-01 13:38:28.946,19.24,24.31,7.87,0.42,0.33,0.86,-0.98,-0.18,-0.81,18.03,36.14,-3.48,0.58,0.3,0.73,-1.76,1.24,-0.02
825,1900-01-01 13:38:28.986,19.87,24.15,7.9,0.41,0.34,0.86,-0.75,-0.18,-0.95,18.5,35.86,-3.49,0.57,0.31,0.73,-1.79,1.2,0.0
826,1900-01-01 13:38:29.087,19.63,24.17,7.92,0.42,0.34,0.86,-0.56,-0.53,-1.08,18.84,35.64,-3.5,0.57,0.32,0.73,-1.47,1.41,-0.3
827,1900-01-01 13:38:29.126,18.94,24.49,7.91,0.42,0.33,0.86,0.01,-0.47,-1.09,18.41,36.06,-3.55,0.57,0.31,0.72,-0.44,1.81,-0.23
828,1900-01-01 13:38:29.220,19.36,24.21,7.9,0.42,0.34,0.87,-1.09,-0.36,-1.37,18.92,35.95,-3.6,0.58,0.32,0.74,-0.62,1.01,0.05
829,1900-01-01 13:38:29.314,19.37,24.03,7.85,0.41,0.34,0.87,-0.95,-0.05,-0.81,18.33,35.63,-3.6,0.57,0.31,0.74,-1.8,1.73,0.02
830,1900-01-01 13:38:29.361,19.46,23.94,7.89,0.41,0.34,0.86,-0.49,-0.01,-1.0,18.85,35.34,-3.6,0.57,0.32,0.74,-1.45,1.98,-0.15
831,1900-01-01 13:38:29.453,19.17,24.31,7.89,0.42,0.33,0.86,-0.5,-0.38,-1.24,18.25,35.57,-3.63,0.57,0.31,0.74,-0.8,1.05,-0.32
832,1900-01-01 13:38:29.576,19.13,24.44,7.86,0.42,0.33,0.87,-0.27,-0.43,-1.21,18.67,35.69,-3.69,0.58,0.32,0.74,-0.79,1.57,-0.53
833,1900-01-01 13:38:29.599,19.25,24.64,7.83,0.43,0.34,0.86,-0.61,-0.5,-0.95,18.68,35.9,-3.78,0.58,0.32,0.74,-1.0,1.28,0.14
834,1900-01-01 13:38:29.689,19.27,24.1,7.85,0.42,0.34,0.87,-1.1,-0.2,-0.86,18.66,35.81,-3.77,0.58,0.32,0.74,-1.44,2.13,-0.01
835,1900-01-01 13:38:29.782,19.38,24.84,7.88,0.43,0.34,0.86,-3.5,-0.19,-1.12,19.96,34.75,-3.78,0.56,0.34,0.74,-4.53,2.49,0.79
836,1900-01-01 13:38:29.830,19.85,23.37,7.86,0.4,0.34,0.85,-0.62,0.32,-0.58,18.6,34.57,-3.67,0.55,0.31,0.73,-1.53,-0.32,0.66
837,1900-01-01 13:38:29.921,18.9,23.85,7.93,0.41,0.33,0.87,-1.2,0.35,-1.4,18.16,35.89,-3.57,0.58,0.31,0.74,-1.47,-0.23,0.66
838,1900-01-01 13:38:29.968,19.26,24.37,7.88,0.43,0.34,0.88,-0.43,-0.65,-0.65,18.43,35.99,-3.48,0.58,0.31,0.74,-0.56,0.81,0.93
839,1900-01-01 13:38:30.061,18.87,23.98,7.94,0.41,0.32,0.86,-0.57,-0.13,-0.62,18.48,35.38,-3.35,0.56,0.31,0.73,-1.3,1.13,0.45
840,1900-01-01 13:38:30.152,18.67,23.99,8.0,0.41,0.33,0.87,-2.31,0.46,-0.17,17.1,36.59,-3.29,0.59,0.29,0.73,-2.14,1.52,1.27
841,1900-01-01 13:38:30.201,17.97,24.0,8.13,0.42,0.32,0.88,-0.6,-0.33,-0.6,17.33,36.43,-3.1,0.6,0.3,0.75,-0.79,1.9,0.21
842,1900-01-01 13:38:30.294,19.05,24.9,8.2,0.42,0.33,0.85,-0.89,-1.09,-0.75,19.37,35.43,-3.08,0.56,0.32,0.72,-0.92,0.79,0.04
843,1900-01-01 13:38:30.391,18.04,24.2,8.25,0.41,0.31,0.86,-0.75,0.19,-0.82,17.36,36.0,-3.08,0.57,0.29,0.73,-0.29,0.95,0.41
844,1900-01-01 13:38:30.436,18.07,24.06,8.28,0.42,0.32,0.88,-0.24,-0.83,-1.06,17.65,36.35,-3.03,0.59,0.3,0.75,-0.55,1.97,-0.51
845,1900-01-01 13:38:30.530,19.33,24.52,8.28,0.42,0.33,0.85,-0.64,-1.41,-1.0,18.57,35.06,-3.11,0.56,0.31,0.73,-1.47,-0.7,-1.04
846,1900-01-01 13:38:30.577,17.7,24.14,8.28,0.42,0.31,0.87,-1.81,-0.93,-1.31,18.09,35.67,-3.28,0.58,0.31,0.75,-2.21,0.63,-1.31
847,1900-01-01 13:38:30.670,18.25,24.38,8.24,0.42,0.32,0.87,-0.21,-0.82,-1.05,18.69,35.94,-3.49,0.58,0.32,0.74,-0.84,1.35,-0.88
848,1900-01-01 13:38:30.764,18.02,24.51,8.24,0.42,0.31,0.87,-0.71,-0.14,-0.78,17.74,35.91,-3.63,0.58,0.3,0.74,-1.56,0.98,0.29
849,1900-01-01 13:38:30.811,18.51,24.51,8.28,0.42,0.32,0.86,-0.47,-0.36,-0.7,17.76,35.94,-3.6,0.58,0.3,0.74,-1.17,1.53,-0.02
850,1900-01-01 13:38:30.904,18.9,24.54,8.33,0.42,0.33,0.86,-0.5,-0.21,-0.88,18.55,36.0,-3.61,0.58,0.31,0.73,-1.37,1.02,0.21
851,1900-01-01 13:38:31.031,18.65,24.85,8.35,0.43,0.33,0.87,0.18,-0.93,-0.66,18.44,35.84,-3.59,0.57,0.31,0.73,-1.04,1.6,-0.11
852,1900-01-01 13:38:31.031,17.98,24.77,8.41,0.42,0.31,0.87,-0.11,0.26,-0.27,18.76,35.72,-3.61,0.58,0.32,0.74,-0.06,1.38,0.85
853,1900-01-01 13:38:31.149,18.37,24.38,8.53,0.42,0.32,0.88,-0.34,-0.78,-0.47,17.44,36.4,-3.49,0.59,0.3,0.74,-0.29,1.82,-0.05
854,1900-01-01 13:38:31.187,18.7,23.86,8.61,0.41,0.32,0.86,-0.66,0.4,-0.73,18.55,35.31,-3.51,0.57,0.31,0.74,-1.03,1.74,0.42
855,1900-01-01 13:38:31.281,18.47,24.65,8.66,0.43,0.33,0.88,-0.85,-0.05,-0.54,18.04,36.03,-3.45,0.59,0.31,0.74,-1.56,2.47,0.18
856,1900-01-01 13:38:31.374,18.73,24.61,8.74,0.42,0.32,0.85,-0.87,-0.18,-0.45,18.59,35.08,-3.43,0.56,0.31,0.73,-1.63,1.98,0.02
857,1900-01-01 13:38:31.422,18.69,24.56,8.83,0.42,0.33,0.87,-0.33,0.1,-0.67,18.33,35.58,-3.44,0.57,0.31,0.74,-0.98,1.97,-0.08
858,1900-01-01 13:38:31.517,18.67,24.49,8.88,0.42,0.32,0.86,-0.66,0.3,-0.79,18.73,35.17,-3.46,0.56,0.31,0.73,-1.02,0.85,0.25
859,1900-01-01 13:38:31.627,18.76,24.41,8.92,0.42,0.32,0.86,-1.23,1.27,-0.04,18.57,35.56,-3.43,0.56,0.31,0.73,-0.82,0.98,0.77
860,1900-01-01 13:38:31.655,17.87,24.08,9.07,0.42,0.31,0.88,-1.22,1.65,0.49,17.44,36.59,-3.32,0.59,0.3,0.74,-0.88,0.68,1.57
861,1900-01-01 13:38:31.749,18.25,24.7,9.31,0.43,0.32,0.87,-0.59,1.04,0.11,18.71,35.94,-3.09,0.58,0.32,0.74,-1.06,1.46,1.31
862,1900-01-01 13:38:31.798,18.61,24.23,9.48,0.42,0.33,0.87,-0.64,1.52,0.6,18.24,36.65,-2.9,0.59,0.31,0.73,-1.81,2.41,1.7
863,1900-01-01 13:38:31.891,18.11,23.71,9.73,0.41,0.31,0.87,0.07,0.91,0.43,17.98,35.5,-2.65,0.57,0.3,0.74,-1.02,2.25,1.24
864,1900-01-01 13:38:31.991,17.99,23.78,9.96,0.41,0.31,0.87,-0.23,0.7,0.49,17.67,35.71,-2.47,0.57,0.3,0.73,-1.31,2.39,0.39
865,1900-01-01 13:38:32.029,18.0,23.27,10.19,0.4,0.31,0.88,-0.36,1.24,-0.02,17.83,35.49,-2.42,0.57,0.3,0.74,-0.5,1.73,1.44
866,1900-01-01 13:38:32.122,18.22,23.59,10.34,0.41,0.32,0.87,-0.16,1.35,-0.02,17.58,35.72,-2.21,0.57,0.3,0.74,-1.05,1.91,1.37
867,1900-01-01 13:38:32.230,17.98,23.0,10.5,0.4,0.31,0.88,-0.35,1.22,-0.18,17.44,36.04,-2.01,0.57,0.29,0.73,-0.86,2.41,1.05
868,1900-01-01 13:38:32.264,17.95,23.26,10.63,0.4,0.31,0.88,-0.29,1.47,-0.4,17.51,35.5,-1.86,0.58,0.3,0.75,-1.55,2.82,0.79
869,1900-01-01 13:38:32.357,17.69,23.25,10.73,0.4,0.31,0.88,-0.12,1.34,-0.11,16.8,36.41,-1.74,0.58,0.28,0.74,-1.14,2.47,0.78
870,1900-01-01 13:38:32.404,18.38,22.44,10.87,0.39,0.32,0.89,-0.11,0.77,-0.31,18.17,34.77,-1.63,0.57,0.31,0.75,-0.91,1.97,0.76
871,1900-01-01 13:38:32.496,17.89,22.79,10.98,0.39,0.31,0.88,-0.18,0.75,-0.32,17.48,35.33,-1.53,0.57,0.3,0.75,-0.83,2.39,0.66
872,1900-01-01 13:38:32.589,18.37,22.69,11.09,0.39,0.32,0.88,-0.05,1.01,-0.12,18.3,34.62,-1.44,0.56,0.31,0.74,-0.85,2.21,1.08
873,1900-01-01 13:38:32.637,18.5,21.95,11.23,0.38,0.32,0.88,-0.34,1.34,0.23,17.12,34.75,-1.28,0.56,0.29,0.75,-1.26,2.4,1.39
874,1900-01-01 13:38:32.729,17.29,22.14,11.43,0.39,0.31,0.9,-0.33,0.63,-0.79,15.99,35.49,-1.08,0.58,0.27,0.76,-1.14,2.34,0.12
875,1900-01-01 13:38:32.825,18.31,22.12,11.46,0.39,0.32,0.89,-0.59,0.34,-0.82,17.88,34.57,-1.07,0.56,0.3,0.76,-1.5,2.21,0.46
876,1900-01-01 13:38:32.871,17.94,21.73,11.5,0.37,0.31,0.89,-0.35,0.47,-0.48,17.28,34.03,-1.0,0.55,0.29,0.76,-1.14,2.11,0.71
877,1900-01-01 13:38:32.964,18.38,21.64,11.58,0.37,0.32,0.88,-0.47,0.41,-0.73,16.99,34.26,-0.9,0.55,0.29,0.76,-1.41,1.94,0.27
878,1900-01-01 13:38:33.012,18.35,21.68,11.63,0.37,0.32,0.88,-0.02,0.05,-1.11,17.39,34.37,-0.87,0.55,0.29,0.75,-0.9,1.71,0.05
879,1900-01-01 13:38:33.115,17.96,22.13,11.62,0.38,0.31,0.88,-0.56,0.73,-1.2,17.37,34.54,-0.87,0.56,0.29,0.75,-1.31,1.8,0.56
880,1900-01-01 13:38:33.232,18.29,21.83,11.6,0.38,0.32,0.89,-0.87,0.64,-0.76,16.85,34.4,-0.8,0.56,0.29,0.77,-1.39,1.67,0.8
881,1900-01-01 13:38:33.260,18.28,21.68,11.64,0.38,0.32,0.89,-0.48,0.06,-0.79,17.05,34.18,-0.68,0.55,0.29,0.76,-1.27,1.79,0.15
882,1900-01-01 13:38:33.343,18.24,21.24,11.68,0.37,0.32,0.89,-0.56,-0.81,-1.02,16.69,33.75,-0.67,0.55,0.28,0.77,-0.8,1.79,0.01
883,1900-01-01 13:38:33.435,18.61,21.6,11.68,0.37,0.32,0.88,0.07,-1.2,-1.38,17.39,33.71,-0.67,0.54,0.29,0.76,-1.39,1.17,-0.35
884,1900-01-01 13:38:33.482,17.94,22.0,11.63,0.38,0.32,0.9,0.05,-1.06,-1.08,17.11,34.23,-0.74,0.55,0.29,0.76,-0.95,3.24,-0.92
885,1900-01-01 13:38:33.576,18.32,21.93,11.62,0.38,0.32,0.88,-0.73,0.14,-0.92,16.96,34.03,-0.89,0.55,0.28,0.76,-1.92,1.59,0.44
886,1900-01-01 13:38:33.622,18.44,21.16,11.64,0.36,0.32,0.88,-0.55,-0.4,-1.47,15.97,33.16,-0.83,0.53,0.27,0.77,-1.73,0.6,-0.22
887,1900-01-01 13:38:33.759,17.98,21.62,11.57,0.37,0.31,0.88,-2.31,-0.73,-2.69,17.44,33.6,-0.87,0.55,0.3,0.77,-0.73,0.53,-0.79
888,1900-01-01 13:38:33.787,19.01,22.23,11.32,0.39,0.34,0.9,-0.09,-1.5,-1.82,18.61,34.35,-1.0,0.56,0.32,0.76,1.58,1.69,-1.46
889,1900-01-01 13:38:33.857,17.4,21.73,11.2,0.38,0.31,0.91,-0.15,-1.18,-1.18,17.41,34.02,-1.23,0.55,0.3,0.76,2.56,3.55,1.21
890,1900-01-01 13:38:33.955,18.52,21.63,11.18,0.37,0.32,0.88,-0.65,-0.24,-1.31,19.07,33.61,-1.05,0.53,0.32,0.74,0.84,1.56,0.82
891,1900-01-01 13:38:34.025,19.43,21.92,11.14,0.37,0.33,0.87,-0.62,0.6,-0.92,20.13,33.46,-0.94,0.53,0.33,0.73,-0.89,1.73,0.31
892,1900-01-01 13:38:34.121,17.86,21.9,11.16,0.38,0.31,0.88,-0.94,0.7,-0.44,15.87,34.21,-0.9,0.56,0.27,0.78,-0.95,1.31,1.62
893,1900-01-01 13:38:34.166,20.07,22.32,11.25,0.38,0.35,0.87,0.06,-0.5,-0.74,19.92,32.81,-0.66,0.53,0.33,0.75,-3.24,1.15,0.85
894,1900-01-01 13:38:34.232,19.48,21.59,11.29,0.37,0.34,0.88,-2.03,0.38,-0.48,18.06,33.95,-0.54,0.54,0.3,0.75,-3.35,-0.17,0.06
895,1900-01-01 13:38:34.328,18.6,22.03,11.38,0.38,0.33,0.89,-4.55,-0.27,-0.98,17.71,34.29,-0.54,0.56,0.3,0.76,-8.24,3.76,1.85
896,1900-01-01 13:38:34.419,17.33,22.28,11.39,0.38,0.3,0.89,-0.66,-0.04,0.4,17.26,33.86,-0.27,0.54,0.29,0.75,-7.44,5.93,-0.26
897,1900-01-01 13:38:34.465,16.38,20.91,11.6,0.36,0.29,0.91,-0.25,0.38,-0.56,12.25,33.84,-0.31,0.56,0.21,0.81,-0.75,1.18,-0.53
898,1900-01-01 13:38:34.558,17.72,22.01,11.68,0.39,0.31,0.9,0.56,-1.12,-1.34,15.98,33.0,-0.4,0.54,0.28,0.79,1.1,1.89,0.7
899,1900-01-01 13:38:34.674,18.45,22.34,11.63,0.38,0.32,0.87,0.01,-0.24,-0.05,18.14,32.86,-0.31,0.53,0.3,0.76,-1.81,0.73,1.44
900,1900-01-01 13:38:34.698,16.9,21.32,11.78,0.36,0.29,0.87,-2.47,-0.46,-1.04,13.05,33.5,-0.09,0.53,0.22,0.77,-1.53,-0.74,-0.47
901,1900-01-01 13:38:34.793,17.16,21.81,11.78,0.39,0.31,0.92,0.64,-1.9,-1.98,16.7,32.85,-0.17,0.56,0.3,0.82,4.14,3.84,-2.4
902,1900-01-01 13:38:34.893,18.75,22.95,11.64,0.38,0.31,0.84,-1.27,-0.82,-0.56,17.08,32.23,-0.55,0.5,0.27,0.74,-3.02,-1.73,0.38
903,1900-01-01 13:38:34.934,16.92,21.11,11.71,0.37,0.3,0.9,-2.87,-0.15,-2.07,13.84,33.3,-0.5,0.55,0.24,0.8,-1.98,1.51,-1.1
904,1900-01-01 13:38:35.030,17.92,23.17,11.55,0.41,0.32,0.89,-0.78,-0.92,-0.83,17.69,33.32,-0.68,0.55,0.3,0.78,-1.03,2.04,-0.58
905,1900-01-01 13:38:35.082,17.65,22.06,11.58,0.38,0.3,0.88,0.56,-0.63,-0.47,16.75,32.54,-0.77,0.52,0.28,0.76,-0.64,2.42,-0.48
906,1900-01-01 13:38:35.168,16.65,22.13,11.67,0.38,0.29,0.89,0.66,0.02,-1.02,13.7,33.3,-0.86,0.55,0.24,0.8,3.54,0.53,0.42
907,1900-01-01 13:38:35.261,18.69,22.67,11.68,0.39,0.33,0.88,2.26,-1.06,-1.5,18.79,32.37,-0.8,0.52,0.31,0.76,5.25,1.29,0.44
908,1900-01-01 13:38:35.308,18.48,22.56,11.6,0.39,0.32,0.88,-0.19,-1.41,-1.56,18.4,32.92,-0.74,0.55,0.32,0.78,2.13,-4.14,1.44
909,1900-01-01 13:38:35.401,19.18,22.08,11.52,0.38,0.33,0.87,0.41,-2.36,-2.21,19.81,32.94,-0.53,0.52,0.33,0.74,1.68,-3.3,-2.04
910,1900-01-01 13:38:35.505,18.1,22.59,11.34,0.39,0.31,0.88,-0.41,-1.53,-1.91,18.23,35.07,-0.85,0.56,0.31,0.74,0.12,-1.59,-0.28
911,1900-01-01 13:38:35.542,18.59,22.76,11.21,0.4,0.33,0.89,-0.55,-1.85,-2.18,18.48,36.05,-0.9,0.58,0.31,0.74,-1.18,-2.95,-0.4
912,1900-01-01 13:38:35.638,19.47,22.51,11.03,0.39,0.34,0.88,-0.85,-1.57,-1.84,18.92,35.5,-0.97,0.58,0.32,0.74,-1.14,-0.97,-1.14
913,1900-01-01 13:38:35.685,19.0,22.98,10.91,0.4,0.33,0.87,-0.24,-1.54,-1.59,19.46,35.66,-1.15,0.57,0.32,0.72,-1.11,-0.08,-0.92
914,1900-01-01 13:38:35.779,18.99,22.97,10.83,0.39,0.33,0.87,-1.07,-0.56,-1.15,19.52,35.72,-1.3,0.57,0.33,0.72,-1.66,1.0,-0.35
915,1900-01-01 13:38:35.873,18.64,23.61,10.81,0.41,0.32,0.87,-0.36,-0.38,-1.05,19.86,35.69,-1.37,0.57,0.33,0.73,-0.89,1.1,0.33
916,1900-01-01 13:38:35.920,19.11,23.8,10.81,0.41,0.33,0.87,-0.5,-0.27,-1.02,19.68,36.13,-1.32,0.58,0.33,0.73,-1.59,1.14,-0.36
917,1900-01-01 13:38:36.012,19.13,23.47,10.81,0.4,0.33,0.87,-0.31,-0.53,-0.66,19.51,35.8,-1.39,0.58,0.33,0.74,-2.5,0.69,-1.58
918,1900-01-01 13:38:36.105,18.93,23.52,10.86,0.41,0.33,0.88,0.26,-1.4,-0.1,19.69,35.76,-1.64,0.57,0.33,0.72,-2.0,2.8,-1.95
919,1900-01-01 13:38:36.153,18.66,23.23,11.01,0.39,0.32,0.85,-0.71,0.13,-0.39,19.14,34.95,-1.94,0.54,0.31,0.71,-2.47,2.33,-0.27
920,1900-01-01 13:38:36.245,19.38,22.75,11.11,0.39,0.33,0.86,-1.44,1.97,-1.13,19.04,34.83,-2.0,0.55,0.32,0.73,-3.26,2.41,0.36
921,1900-01-01 13:38:36.337,19.29,23.57,11.09,0.4,0.33,0.86,-0.84,2.11,-1.38,19.04,35.4,-1.95,0.56,0.32,0.73,-1.99,1.59,0.59
922,1900-01-01 13:38:36.384,19.24,22.64,11.04,0.39,0.34,0.88,0.11,1.26,-1.11,19.31,34.79,-1.87,0.57,0.33,0.75,-1.26,1.63,0.18
923,1900-01-01 13:38:36.479,19.13,22.67,11.03,0.39,0.33,0.88,-0.43,0.89,-0.87,18.87,35.13,-1.85,0.57,0.32,0.75,-1.77,1.96,0.41
924,1900-01-01 13:38:36.526,18.31,22.37,11.06,0.39,0.32,0.9,-0.34,0.14,-1.02,17.92,35.39,-1.8,0.58,0.31,0.76,-1.19,2.19,-0.1
925,1900-01-01 13:38:36.618,18.88,22.95,11.06,0.4,0.33,0.87,-0.89,0.55,-0.64,19.3,35.05,-1.82,0.56,0.32,0.73,-1.83,1.86,0.76
926,1900-01-01 13:38:36.713,19.56,22.28,11.12,0.39,0.34,0.88,-0.99,0.98,-0.41,18.54,34.58,-1.71,0.56,0.32,0.76,-2.22,1.55,0.83
927,1900-01-01 13:38:36.759,19.86,21.67,11.21,0.37,0.34,0.88,0.37,-0.15,-0.35,19.24,34.01,-1.59,0.55,0.32,0.75,-0.69,1.03,0.3
928,1900-01-01 13:38:36.854,18.99,22.09,11.32,0.38,0.33,0.88,-0.67,-0.24,-0.54,18.14,35.06,-1.56,0.56,0.3,0.74,-1.24,1.07,0.25
929,1900-01-01 13:38:36.910,19.0,22.02,11.39,0.38,0.33,0.89,-0.51,-0.22,-0.91,18.72,34.92,-1.53,0.56,0.32,0.74,-1.21,1.68,0.03
930,1900-01-01 13:38:36.995,18.76,22.29,11.41,0.38,0.33,0.88,-1.56,0.61,-0.34,17.74,35.15,-1.53,0.56,0.3,0.74,-2.11,1.64,1.21
931,1900-01-01 13:38:37.088,19.0,22.42,11.52,0.39,0.33,0.88,-0.56,0.07,-0.87,18.75,34.91,-1.36,0.57,0.32,0.75,-0.49,1.48,0.62
932,1900-01-01 13:38:37.135,19.17,21.76,11.55,0.38,0.34,0.89,-0.48,-0.77,-0.25,18.42,34.54,-1.27,0.56,0.31,0.75,-1.1,1.37,0.38
933,1900-01-01 13:38:37.229,18.51,21.68,11.67,0.37,0.32,0.88,-0.2,-0.71,-0.47,17.53,34.79,-1.22,0.56,0.3,0.75,-0.34,1.33,0.11
934,1900-01-01 13:38:37.323,19.26,22.12,11.75,0.38,0.33,0.87,-0.51,-1.05,-0.79,19.16,34.7,-1.21,0.56,0.32,0.74,-0.89,0.55,0.11
935,1900-01-01 13:38:37.370,18.72,22.07,11.79,0.39,0.33,0.89,-0.85,-0.87,-0.34,18.3,35.26,-1.2,0.57,0.31,0.75,-1.41,2.5,-0.33
936,1900-01-01 13:38:37.464,18.81,22.74,11.9,0.39,0.33,0.87,-1.53,-0.72,-0.73,18.52,35.01,-1.26,0.56,0.31,0.73,-0.6,0.36,0.38
937,1900-01-01 13:38:37.558,18.95,22.55,11.94,0.39,0.33,0.87,-0.63,-0.17,-0.97,19.18,35.07,-1.21,0.56,0.32,0.73,-0.76,0.92,0.27
938,1900-01-01 13:38:37.604,18.74,22.45,11.95,0.39,0.33,0.88,-0.15,-0.21,-1.08,18.98,34.46,-1.18,0.56,0.32,0.75,-0.43,0.73,0.24
939,1900-01-01 13:38:37.699,18.67,22.56,11.95,0.39,0.33,0.89,-1.32,-0.63,-0.79,18.1,35.9,-1.15,0.58,0.31,0.74,-1.56,0.77,0.01
940,1900-01-01 13:38:37.745,19.05,22.73,11.99,0.39,0.33,0.87,-0.4,-1.03,-0.98,19.6,34.73,-1.16,0.56,0.33,0.74,-0.71,0.06,0.29
941,1900-01-01 13:38:37.838,18.58,22.69,11.99,0.39,0.32,0.87,-0.38,-1.04,-0.96,18.83,35.15,-1.12,0.56,0.32,0.73,-0.93,0.74,-0.37
942,1900-01-01 13:38:37.932,18.4,22.35,12.01,0.39,0.32,0.89,-0.91,-0.92,-1.03,18.03,35.66,-1.19,0.58,0.31,0.75,-1.37,1.2,-0.18
943,1900-01-01 13:38:37.978,18.33,22.97,12.01,0.4,0.32,0.88,-0.92,-1.08,-1.01,19.48,35.38,-1.22,0.57,0.33,0.74,-1.08,0.35,0.14
944,1900-01-01 13:38:38.072,18.14,23.14,12.01,0.4,0.31,0.87,-0.38,-0.95,-0.95,18.96,34.92,-1.21,0.56,0.32,0.74,-0.88,1.18,-0.24
945,1900-01-01 13:38:38.183,18.9,22.91,12.02,0.39,0.32,0.86,0.22,-1.13,-1.03,19.89,35.03,-1.25,0.55,0.33,0.72,-0.02,1.08,0.01
946,1900-01-01 13:38:38.213,18.77,22.87,12.03,0.39,0.32,0.87,0.15,-0.85,-1.3,18.89,35.2,-1.26,0.56,0.32,0.73,-0.91,1.0,-0.6
947,1900-01-01 13:38:38.305,18.34,23.04,11.99,0.4,0.32,0.89,-0.4,-1.11,-1.5,18.42,35.82,-1.36,0.58,0.31,0.74,-1.31,1.5,-0.76
948,1900-01-01 13:38:38.356,17.99,23.52,11.91,0.41,0.32,0.89,-1.05,-1.34,-1.44,17.91,36.04,-1.48,0.59,0.31,0.75,-0.66,1.21,-0.41
949,1900-01-01 13:38:38.474,19.28,23.47,11.85,0.41,0.34,0.87,-0.87,-2.15,-2.11,19.83,34.93,-1.56,0.56,0.33,0.74,-1.1,1.05,-1.04
950,1900-01-01 13:38:38.539,19.96,23.87,11.69,0.41,0.34,0.85,-0.23,-1.0,-1.39,21.79,34.35,-1.72,0.55,0.36,0.71,-1.2,1.11,-0.13
951,1900-01-01 13:38:38.586,18.45,23.37,11.63,0.4,0.32,0.87,-0.54,-0.3,-1.02,18.32,35.2,-1.75,0.57,0.31,0.74,-1.4,1.4,-0.66
952,1900-01-01 13:38:38.679,18.99,24.01,11.64,0.41,0.33,0.87,-0.69,-0.55,-1.03,19.95,35.16,-1.86,0.57,0.34,0.73,-1.52,1.03,-0.31
953,1900-01-01 13:38:38.773,18.66,23.88,11.64,0.41,0.32,0.87,-0.66,-0.31,-1.62,19.7,35.09,-1.92,0.57,0.33,0.73,-1.21,1.6,-0.63
954,1900-01-01 13:38:38.820,19.04,23.94,11.55,0.41,0.33,0.86,-0.64,0.07,-1.2,19.99,35.16,-2.02,0.57,0.34,0.73,-1.83,1.45,-0.11
955,1900-01-01 13:38:38.914,19.11,23.34,11.52,0.4,0.33,0.87,-0.63,-0.02,-0.93,19.8,34.66,-2.05,0.56,0.33,0.74,-1.25,1.29,0.27
956,1900-01-01 13:38:39.006,18.67,23.56,11.54,0.41,0.33,0.87,-0.47,-0.3,-1.89,20.01,34.82,-2.02,0.56,0.34,0.74,-0.67,1.5,-0.72
957,1900-01-01 13:38:39.053,18.76,23.58,11.41,0.41,0.33,0.87,-0.9,0.32,-0.65,19.14,34.98,-2.13,0.56,0.32,0.74,-1.74,1.66,0.4
