Time,Pitch, falcon_x, falcon_y, falcon_z,Roll1,Pitch1,Yaw1,AccX1,AccY1,AccZ1,RotX1,RotY1,RotZ1
1900-01-01 13:28:09.900,-11.117166726008124,-0.81591475,1.0023632500000001,0.029548025,40.37,38.806666666666665,-69.79333333333334,0.6233333333333333,0.6433333333333334,0.43,-1.7066666666666668,2.473333333333333,1.0566666666666666
1900-01-01 13:28:10.200,-9.971826195039098,-0.8120697272727273,1.0230163636363636,0.029593099999999997,41.1475,38.21,-69.66,0.6125,0.65,0.425,-1.1625,0.76,-0.8075
1900-01-01 13:28:10.500,-9.037468957926048,-0.8106965,1.031448,0.03164474,41.8525,37.0325,-70.1425,0.595,0.6625000000000001,0.4325,0.4975,4.157500000000001,-2.02
1900-01-01 13:28:10.800,-3.0540048965247633,-0.8041074,0.9943504000000001,0.008611114,46.28666666666667,33.85,-71.89333333333333,0.5466666666666667,0.7166666666666667,0.39999999999999997,9.85,6.366666666666666,-3.98
1900-01-01 13:28:11.100,4.866390468339892,-1.1324846000000002,0.8935983999999999,-0.09263019,50.78,29.7925,-74.0975,0.495,0.77,0.39,3.3400000000000003,7.89,-4.1775
1900-01-01 13:28:11.400,19.042515262678705,-1.6549500000000001,0.5208747,0.004942289999999999,50.763999999999996,24.04,-78.014,0.39,0.74,0.454,-5.302,7.062,-3.378
1900-01-01 13:28:11.700,20.505143236534565,-1.7657027272727275,0.33494718181818184,0.04535053636363637,53.77333333333333,24.28,-77.77,0.4166666666666667,0.8166666666666668,0.4266666666666667,6.21,-4.673333333333333,2.6
1900-01-01 13:28:12.000,18.7009522413797,-1.4032427272727273,0.2499170909090909,0.06530086363636363,52.6975,26.7125,-77.51,0.4375,0.775,0.3975,-2.8025,-4.355,-1.705
1900-01-01 13:28:12.300,16.80694797099185,-0.8215911818181819,0.1824328181818182,0.13783572727272728,51.185,28.39,-78.065,0.47,0.77,0.40249999999999997,-7.6725,-3.12,0.615
1900-01-01 13:28:12.600,15.409149571241826,-0.2339925,0.11473560000000001,0.20983619999999997,50.5425,28.3425,-78.27,0.46499999999999997,0.76,0.415,-1.665,0.855,-1.9124999999999999
1900-01-01 13:28:12.900,16.84783213181795,0.2585687718181818,0.19002436363636363,0.21446800000000002,51.1025,27.535,-79.2825,0.455,0.765,0.4175,-1.2025,-0.505,-1.25
1900-01-01 13:28:13.200,17.516790988049326,0.6489019,0.3889971,0.11444220000000001,51.5525,28.035,-79.9825,0.4625,0.77,0.40249999999999997,-1.2175,0.375,-0.675
1900-01-01 13:28:13.500,18.841206066010873,0.7948186363636364,0.4176916363636364,0.05652028181818181,52.4875,27.557499999999997,-80.395,0.4525,0.7825,0.39,-0.4625,0.8875,-0.78
1900-01-01 13:28:13.800,18.227422535938533,0.8267619090909091,0.388669,0.039540818181818184,51.94333333333333,27.709999999999997,-80.79666666666667,0.4566666666666667,0.77,0.39666666666666667,-0.8533333333333334,1.61,-0.07
1900-01-01 13:28:14.100,18.505327733436282,0.8592492999999999,0.329658,0.029434719999999998,52.444,27.472,-80.88,0.45600000000000007,0.78,0.392,-0.764,1.598,-0.32
1900-01-01 13:28:14.400,18.0876020832516,0.9021890909090909,0.2602777272727273,0.021529563636363633,52.26666666666667,27.7,-81.07,0.4566666666666667,0.7766666666666667,0.38999999999999996,-1.0666666666666667,0.8033333333333333,0.06999999999999999
1900-01-01 13:28:14.700,18.31776127249782,0.9397663636363636,0.1726777272727273,0.0033458760000000002,53.02,27.438,-81.144,0.454,0.786,0.38,-0.36,0.736,-0.274
1900-01-01 13:28:15.000,18.521470495481932,0.9815716,0.09675367,-0.005379559,53.379999999999995,27.453333333333333,-81.34666666666666,0.45333333333333337,0.79,0.36999999999999994,-1.0933333333333333,1.3933333333333333,-0.19333333333333333
1900-01-01 13:28:15.300,18.577238323052374,0.996197909090909,0.06367578181818181,-0.01089653,53.485,27.275,-81.47,0.455,0.7925,0.375,-1.23,1.4,-0.12
1900-01-01 13:28:15.600,18.559591462831975,1.0162363636363636,-0.0009926918181818185,-0.026262790909090908,53.6175,27.16,-81.68,0.45,0.795,0.3725,-1.3725,1.3725,-0.5225
1900-01-01 13:28:15.900,18.406080473556376,1.029115,-0.03799684,-0.03378301,53.5275,27.0375,-81.9025,0.4475,0.79,0.3775,-1.6749999999999998,1.4525000000000001,-0.0275
1900-01-01 13:28:16.200,18.723779676340225,1.0361918181818182,-0.05307554545454545,-0.03558869090909091,53.7825,26.6875,-82.025,0.4425,0.795,0.3775,-1.3175,0.98,-0.53
1900-01-01 13:28:16.500,19.468541104348326,1.0521530000000001,-0.09390754,-0.04220315,54.08,26.3725,-82.8825,0.4375,0.7975000000000001,0.375,-2.0225,-0.8275,-2.74
1900-01-01 13:28:16.800,20.5808585000876,1.0906672727272726,-0.1119411,-0.024941527272727273,54.52,25.865000000000002,-84.17,0.435,0.8125,0.3825,-2.08,0.7424999999999999,0.0675
1900-01-01 13:28:17.100,19.917048694490724,0.9822354000000001,0.33456623199999996,0.114441623,53.585,26.7775,-83.1325,0.44,0.785,0.3775,-0.5575,1.0525,3.4850000000000003
1900-01-01 13:28:17.400,17.602642421624225,0.744824,0.9449804,0.3141946,51.7325,28.7625,-81.57249999999999,0.46749999999999997,0.7675000000000001,0.38,-2.0475,1.1375,2.085
1900-01-01 13:28:17.700,17.302767325923348,0.6773037000000001,1.278684,0.3902215,52.2225,29.165,-80.6175,0.4825,0.7825,0.3675,0.4525,1.1475,0.13999999999999999
1900-01-01 13:28:18.000,16.3052875880739,0.6609632999999999,1.37926,0.3817614,52.083333333333336,29.099999999999998,-80.53,0.48,0.7733333333333334,0.3666666666666667,-1.8966666666666665,1.7333333333333334,0.43
1900-01-01 13:28:18.300,14.86043725625984,0.5746709,1.429312,0.3258572,51.653999999999996,29.964,-80.012,0.49399999999999994,0.772,0.362,-0.35,1.286,1.418
1900-01-01 13:28:18.600,11.323436389075816,0.43522,1.2504149999999998,0.1408074,50.42666666666667,31.63,-78.81666666666666,0.52,0.7600000000000001,0.3566666666666667,-0.5933333333333333,2.15,2.93
1900-01-01 13:28:18.900,11.203029307678207,0.2468226,0.9926714000000001,0.057764119999999995,51.425,31.0125,-78.1225,0.5025,0.7625,0.345,-1.23,2.17,-0.4275
1900-01-01 13:28:19.200,10.410876013355765,0.3287097,0.7694856999999999,0.09572981,50.9725,30.807499999999997,-78.81,0.505,0.765,0.36,-1.03,1.5,-1.8275000000000001
1900-01-01 13:28:19.500,12.553103855434374,0.4815834,0.5602852,0.056138810000000004,52.4375,29.5225,-79.88,0.4925,0.79,0.355,-1.9725,2.2225,0.34750000000000014
1900-01-01 13:28:19.800,9.72008218950482,0.3113983,0.6436255,0.017680921,49.2825,31.47,-78.3075,0.5125,0.7475,0.3825,-3.0675,-0.007499999999999965,3.37
1900-01-01 13:28:20.100,8.461191474335632,0.3745658181818182,0.6568158181818181,0.045919930909090904,48.9975,32.0325,-77.8125,0.5225,0.7475,0.3825,-3.04,0.9825,-1.915
1900-01-01 13:28:20.400,10.8489338677367,0.8212566000000001,0.5843357,0.1675173,50.21,30.4525,-79.17,0.4975,0.755,0.385,-3.4975,-1.3175,-2.76
1900-01-01 13:28:20.700,9.793822705260643,1.096835,0.4999885,0.2646079,49.81333333333333,31.003333333333334,-80.22666666666667,0.5166666666666667,0.7666666666666666,0.38999999999999996,-5.803333333333334,-6.403333333333333,1.6366666666666667
1900-01-01 13:28:21.000,3.378727463394008,0.8469037272727273,0.7944096363636365,0.27464463636363634,46.61,35.019999999999996,-78.096,0.5660000000000001,0.718,0.372,2.75,-0.14799999999999996,4.438000000000001
1900-01-01 13:28:21.300,0.17134718656682832,0.4721676363636364,0.7839716363636363,0.05785334363636364,44.31333333333333,38.29333333333333,-76.01333333333334,0.6133333333333333,0.69,0.35333333333333333,-0.8300000000000001,3.323333333333333,0.6366666666666667
1900-01-01 13:28:21.600,2.7775534883578925,0.7956592727272728,0.4449880909090909,0.1290413,46.5875,35.7825,-76.935,0.5800000000000001,0.7224999999999999,0.3575,-1.5875,2.055,-4.640000000000001
1900-01-01 13:28:21.900,4.011300495278998,0.840921909090909,0.36297863636363636,0.1644559090909091,47.635,34.302499999999995,-78.4775,0.5525,0.725,0.3625,-1.7925,1.3525,1.38
1900-01-01 13:28:22.200,2.87359289454203,0.6806508,0.4600257,0.1172093,46.4875,35.46,-77.64500000000001,0.5825,0.7275,0.3725,-1.3450000000000002,-0.9200000000000002,0.9675
1900-01-01 13:28:22.500,3.53258867900989,0.5585875454545455,0.38174536363636363,0.14998309090909093,46.435,35.46,-76.95,0.57,0.7175,0.3625,-2.715,3.3775,1.19
1900-01-01 13:28:22.800,3.9353265600391323,0.047055430909090916,0.33763872727272726,0.061089790909090905,46.96,35.557500000000005,-76.5825,0.5725,0.7224999999999999,0.355,2.055,3.515,1.56
1900-01-01 13:28:23.100,1.6316564531973186,-1.1649968181818182,0.22840616363636365,-0.02181759272727273,44.957499999999996,36.815,-75.2825,0.59,0.7,0.37,0.10499999999999998,4.3175,1.855
1900-01-01 13:28:23.400,1.0288072879046948,-1.800409090909091,-0.2069251909090909,-0.020168497272727272,44.5025,36.2475,-75.11,0.5874999999999999,0.6975,0.395,-1.8925,3.98,-2.5175
1900-01-01 13:28:23.700,4.312110275915512,-1.6749379999999998,-0.36739449999999996,0.1071847,47.1075,33.832499999999996,-76.6375,0.555,0.7324999999999999,0.3925,0.025000000000000022,0.97,-1.1825
1900-01-01 13:28:24.000,6.749187066292903,-1.4416681818181818,-0.06309179727272728,0.2656216363636364,48.760000000000005,33.2175,-77.2825,0.5375000000000001,0.7375,0.36,1.035,0.11499999999999999,-0.47750000000000004
1900-01-01 13:28:24.300,7.772060140586092,-1.325117,0.038302220000000005,0.27177090000000004,49.1475,33.2425,-77.61250000000001,0.54,0.745,0.35,-1.6099999999999999,0.28500000000000003,-0.6
1900-01-01 13:28:24.600,6.58743477437878,-1.2240345454545454,0.03359723636363637,0.1993920909090909,48.3075,34.7425,-77.775,0.565,0.74,0.33999999999999997,-2.7225,-0.8824999999999998,0.9550000000000001
1900-01-01 13:28:24.900,6.503135960155937,-1.094537909090909,0.01429652909090909,0.18488309090909089,48.805,33.8575,-77.17,0.5549999999999999,0.75,0.345,0.38,3.705,-0.007500000000000118
1900-01-01 13:28:25.200,5.909896336101378,-1.0037917272727273,-0.09655431818181817,0.16037072727272728,48.43,34.7225,-76.595,0.5625,0.74,0.335,-0.29999999999999993,1.1025,2.6925
1900-01-01 13:28:25.500,4.160461297643105,-1.201301,-0.1229986,0.10054178,47.0975,36.1225,-75.445,0.5925,0.735,0.33999999999999997,-3.355,-1.3975,2.59
1900-01-01 13:28:25.800,3.738145523754083,-1.2011254545454546,-0.17644336363636362,0.12181345454545454,46.92666666666667,36.300000000000004,-74.45666666666666,0.58,0.7133333333333333,0.3333333333333333,-2.6266666666666665,0.006666666666666636,-1.1966666666666665
1900-01-01 13:28:26.100,2.484119524897298,-1.1253825454545454,-0.16730481818181817,0.12552909090909092,46.082499999999996,36.9775,-74.93,0.6,0.715,0.3425,-0.7450000000000001,3.31,-1.1475
1900-01-01 13:28:26.400,2.970510667485815,-0.6381850909090909,-0.48017963636363636,0.1569641818181818,46.285000000000004,36.150000000000006,-75.6725,0.585,0.7175,0.355,-4.355,2.9,-1.5175
1900-01-01 13:28:26.700,5.548880293358767,-0.010944979999999997,-0.9072528999999999,0.21185990000000002,48.4825,32.8425,-77.255,0.54,0.745,0.38,-1.1824999999999999,1.7650000000000001,-3.0525
1900-01-01 13:28:27.000,7.174045508534495,0.3303652,-0.9836332999999999,0.2144186,49.3825,32.1125,-78.5875,0.5325,0.7625,0.3775,-1.1775,-0.15999999999999998,-0.43
1900-01-01 13:28:27.300,6.3425130183815455,0.32787790909090914,-0.4826053636363637,0.3199104545454545,48.4125,33.5375,-78.445,0.5375000000000001,0.73,0.36,0.67,-0.42000000000000004,0.645
1900-01-01 13:28:27.600,8.20695634304191,0.4044415,-0.10854375999999999,0.279177,49.225,33.6375,-78.2825,0.55,0.7475,0.34,-1.49,0.6875,-0.08750000000000001
1900-01-01 13:28:27.900,8.529117843047997,0.43852563636363634,0.12436724381818182,0.29170463636363636,49.17,33.73,-78.505,0.5475000000000001,0.7475,0.34,-1.45,1.145,-0.4575
1900-01-01 13:28:28.200,10.5467701661908,0.43926220000000005,0.3001763,0.3124254,50.015,32.875,-79.12,0.535,0.7575000000000001,0.33999999999999997,-1.3,1.4500000000000002,-1.7650000000000001
1900-01-01 13:28:28.500,11.31195867168605,0.3940126,0.3520044,0.31304150000000003,50.035,32.3475,-79.9975,0.5275000000000001,0.755,0.35,-1.67,1.9200000000000002,-0.6625000000000001
1900-01-01 13:28:28.800,12.463981377745425,0.36858918181818184,0.43587554545454543,0.3462224545454546,50.5125,32.2025,-80.2975,0.5275000000000001,0.76,0.3425,0.0725,0.3975,-0.4525
1900-01-01 13:28:29.100,12.6539781674635,0.3390228,0.5355648000000001,0.38748309999999997,51.01666666666667,31.986666666666665,-80.66333333333334,0.5233333333333333,0.77,0.33666666666666667,-0.7166666666666667,1.6133333333333333,-0.5333333333333333
1900-01-01 13:28:29.400,13.696430039381742,0.30671763636363636,0.5960154545454546,0.39951227272727274,51.58,31.526,-80.988,0.516,0.774,0.332,-0.8039999999999999,1.6,-0.636
1900-01-01 13:28:29.700,13.624869788223533,0.3085951,0.4992613,0.3261841,51.68333333333334,31.28333333333333,-81.42999999999999,0.5133333333333333,0.7733333333333334,0.3333333333333333,-2.4499999999999997,1.7633333333333334,0.12333333333333331
1900-01-01 13:28:30.000,13.523568427251375,0.3700265454545455,0.3353980909090909,0.2597980909090909,51.7225,31.11,-81.49,0.51,0.7775000000000001,0.34,-2.18,1.1875,-0.2825
1900-01-01 13:28:30.300,13.11467653977425,0.425369,0.3034171,0.266323,51.585,30.9375,-81.61,0.51,0.7725,0.345,-1.7575,0.6675,-0.305
1900-01-01 13:28:30.600,13.1062423873367,0.4903652727272727,0.33694154545454547,0.2636319090909091,51.6375,31.1025,-82.2775,0.5075000000000001,0.775,0.3375,-1.95,-0.64,-1.5725
1900-01-01 13:28:30.900,13.90057017301435,0.5349313,0.3467073,0.2522782,51.285,30.7075,-82.7025,0.5025,0.77,0.355,-4.62,1.3399999999999999,-0.275
1900-01-01 13:28:31.200,14.927906945674424,0.5833750000000001,0.3110637272727273,0.24963099999999996,51.010000000000005,30.244999999999997,-82.9725,0.495,0.77,0.3725,-3.1625,0.20500000000000002,-0.7825
1900-01-01 13:28:31.500,13.813801296400076,0.6637994,0.2580458,0.23392400000000002,49.445,30.9025,-83.97,0.5025,0.7424999999999999,0.3875,-2.86,-0.26749999999999996,-3.4925
1900-01-01 13:28:31.800,17.740893974403026,0.7980182727272727,0.10718099090909092,0.14155236363636362,51.23,28.69,-86.2825,0.4725,0.7675000000000001,0.395,-3.295,-0.9975,-1.79
1900-01-01 13:28:32.100,15.313889409251466,0.722035,0.14256007272727272,0.11184309999999999,50.57666666666666,29.453333333333333,-86.58,0.48,0.7533333333333333,0.39333333333333337,2.4966666666666666,0.82,2.8800000000000003
1900-01-01 13:28:32.400,12.364801876961021,0.6415583,0.2510267,0.11454223000000001,50.224000000000004,31.492,-83.9,0.516,0.758,0.366,3.1559999999999997,4.364,2.706
1900-01-01 13:28:32.700,14.744497569317133,0.8386340909090909,0.4015419090909091,0.16044636363636364,52.35333333333333,30.22666666666667,-83.45,0.5033333333333333,0.7866666666666667,0.3433333333333333,-1.8933333333333333,0.5699999999999998,-0.8033333333333333
1900-01-01 13:28:33.000,14.3489912372194,1.1412980000000001,0.5744564,0.1700958,52.105999999999995,30.060000000000002,-84.464,0.49000000000000005,0.774,0.348,-3.2380000000000004,-1.072,-1.2280000000000002
1900-01-01 13:28:33.300,12.921925734945717,1.0616651818181817,0.5327852727272727,0.07739013,51.050000000000004,30.78333333333333,-84.37,0.51,0.7733333333333334,0.36000000000000004,-2.4433333333333334,3.3699999999999997,3.796666666666667
1900-01-01 13:28:33.600,10.196031435617206,0.8752741818181818,0.5166428181818182,-0.01389134909090909,49.18,32.5025,-82.84,0.53,0.7475,0.37,-2.6675,-2.1675,1.3125
1900-01-01 13:28:33.900,8.296389281531951,0.8337196,0.4466449,-0.010810811,48.59,33.3525,-81.9525,0.5375000000000001,0.7375,0.3625,-0.23999999999999988,2.7475,1.255
1900-01-01 13:28:34.200,7.843840623236763,0.6936640000000001,0.1693169,-0.008574804,48.4075,33.35,-81.73,0.545,0.7424999999999999,0.3675,-1.2425000000000002,3.08,-0.2575
1900-01-01 13:28:34.500,6.773259844081155,0.5601211,0.05748319,0.009344453899999999,47.855000000000004,33.5525,-81.605,0.5525,0.74,0.3775,-3.205,2.58,1.915
1900-01-01 13:28:34.800,8.183253227159257,0.5171056363636364,-0.0011011806363636365,0.04468812727272727,47.4125,33.0125,-80.85249999999999,0.54,0.7275,0.3975,-0.5449999999999999,2.225,-0.5325000000000001
1900-01-01 13:28:35.100,8.641736306572918,0.13927678,-0.057513453000000006,0.0355172,48.1625,32.715,-80.8125,0.5325,0.73,0.385,0.895,4.1025,1.5425
1900-01-01 13:28:35.400,7.688752906428433,-0.5582337272727272,-0.170319,0.037302081818181815,47.1975,33.1175,-79.825,0.5425,0.73,0.4,0.915,4.8875,1.3975
1900-01-01 13:28:35.700,7.27401104417811,-0.7531088,-0.10939216,0.09589581,47.4475,33.4975,-79.125,0.5475,0.7324999999999999,0.3875,-1.8024999999999998,-0.85,0.48000000000000004
1900-01-01 13:28:36.000,6.997191017945912,-0.6490533636363637,0.015051712727272726,0.15362363636363635,47.34,33.515,-79.16,0.545,0.7224999999999999,0.385,-2.9875,0.5575,-0.04749999999999999
1900-01-01 13:28:36.300,6.555541256198545,-0.6346126,0.03899899,0.1466229,46.955,33.995000000000005,-78.78,0.55,0.7175,0.3825,-1.0499999999999998,1.3575000000000002,0.8575
1900-01-01 13:28:36.600,6.135592411558106,-0.6419604000000001,0.02831969,0.1339839,46.7975,34.4275,-78.74249999999999,0.5575,0.7224999999999999,0.38,-0.6825000000000001,1.7225000000000001,-1.2175
1900-01-01 13:28:36.900,8.732841123309585,-0.5230828181818181,-0.059759532727272725,0.13614436363636362,48.089999999999996,31.94333333333333,-79.82666666666667,0.5266666666666667,0.7433333333333333,0.4066666666666667,-3.4299999999999997,3.026666666666667,-2.6566666666666667
1900-01-01 13:28:37.200,10.007414181487453,-0.04837674,-0.3432781,0.17361880000000002,47.957499999999996,30.8475,-81.1025,0.5025,0.7324999999999999,0.425,-3.6199999999999997,2.0775,-1.46
1900-01-01 13:28:37.500,10.490524047816201,0.4269125,-0.3608063,0.25394320000000004,48.575,30.0225,-81.9675,0.4925,0.74,0.425,-0.9425,-0.4125,-1.295
1900-01-01 13:28:37.800,10.846142894782362,0.7395908,-0.2399226,0.25544279999999997,48.925,30.21,-82.58,0.5,0.75,0.42,-1.56,-1.0325,-0.6525000000000001
1900-01-01 13:28:38.100,11.928760000664925,1.042538,0.10800972222222222,0.25108855555555554,49.552499999999995,31.3975,-84.1675,0.515,0.7475,0.38,-3.4699999999999998,-8.9825,-1.2625
1900-01-01 13:28:38.400,7.849985691978408,1.2697636363636364,0.7112702727272727,0.3980334545454545,47.05,34.4,-83.0175,0.555,0.7224999999999999,0.3725,0.17750000000000002,-1.715,1.5075
1900-01-01 13:28:38.700,10.75415162200983,1.3162533333333333,1.0141798888888889,0.3858934444444444,49.2325,33.3675,-82.9175,0.54,0.7424999999999999,0.3425,1.5125,2.565,-0.2025
1900-01-01 13:28:39.000,10.04629562647542,0.9718777272727273,1.05057,0.21887445454545454,49.085,33.9675,-82.5275,0.5525,0.7475,0.3375,0.2775,3.205,1.6725
1900-01-01 13:28:39.300,7.9480845661009205,0.43361679999999997,0.8153663999999999,0.10103239,48.1375,34.8375,-81.685,0.56,0.7275,0.3375,-1.23,5.24,1.495
1900-01-01 13:28:39.600,7.09406628835907,-0.12451208,0.22343799,0.07980276,47.51,33.4075,-81.14750000000001,0.55,0.7375,0.39,-4.1025,6.859999999999999,-1.115
1900-01-01 13:28:39.900,7.241748352636161,-0.33670636363636364,-0.1817556909090909,0.12844445454545456,46.64000000000001,32.410000000000004,-81.98666666666666,0.5333333333333333,0.7233333333333333,0.42333333333333334,-1.1300000000000001,2.5033333333333334,-0.3333333333333333
1900-01-01 13:28:40.200,9.61156831958221,-0.2092168181818182,-0.24190336363636364,0.17316736363636365,48.513999999999996,31.163999999999998,-82.232,0.512,0.74,0.40800000000000003,-0.85,1.3039999999999998,-0.65
1900-01-01 13:28:40.500,9.944013649834497,-0.1288104,-0.26368959999999997,0.1989179,48.645,30.945,-82.6225,0.5075000000000001,0.7424999999999999,0.41,-0.9925,1.1975,-0.1625
1900-01-01 13:28:40.800,10.492359069188684,-0.11691599999999999,-0.26580729999999997,0.2000744,49.04,30.900000000000002,-82.70333333333333,0.5033333333333333,0.7399999999999999,0.39999999999999997,-0.5866666666666668,1.2633333333333334,0.08
1900-01-01 13:28:41.100,10.402253279895781,-0.12878845454545454,-0.2660621818181818,0.19361545454545456,48.668,31.064,-82.694,0.506,0.74,0.406,-1.114,1.3900000000000001,-0.024
1900-01-01 13:28:41.400,7.42608076681131,-0.19958209090909093,-0.22269090909090908,0.15544163636363637,46.625,33.2625,-81.7525,0.5475,0.7224999999999999,0.41,-2.335,1.6,1.4275000000000002
1900-01-01 13:28:41.700,11.0489524992469,0.1229871090909091,-0.14255822727272727,0.23613881818181817,49.06,29.97666666666667,-82.77,0.49333333333333335,0.75,0.4166666666666667,-3.733333333333333,-3.2699999999999996,-4.256666666666667
1900-01-01 13:28:42.000,9.431561325362138,0.5930980909090909,0.004897978181818183,0.2709866363636364,48.295,31.685,-84.1925,0.5175000000000001,0.735,0.40249999999999997,-2.2125,-2.3325,-0.4475
1900-01-01 13:28:42.300,8.76586429994739,0.7567663,0.0676995,0.238655,48.235,32.6175,-84.16,0.535,0.7375,0.3875,-1.1600000000000001,0.8049999999999999,0.48500000000000004
1900-01-01 13:28:42.600,7.67950970392001,0.7877049090909091,0.026417131818181817,0.19508272727272724,47.435,32.802499999999995,-83.645,0.535,0.7275,0.4,-2.1825,2.1350000000000002,1.3375
1900-01-01 13:28:42.900,7.295050300083902,0.7591109090909091,-0.031090754545454544,0.15547318181818182,46.5175,33.3225,-82.805,0.5425,0.7175,0.41,-2.3575,1.1524999999999999,1.57
1900-01-01 13:28:43.200,5.3670812147988,0.7111913999999999,-0.10040120999999999,0.1543264,45.155,34.402499999999996,-81.8625,0.555,0.6975,0.4125,-1.9875,1.7925,0.6475
1900-01-01 13:28:43.500,4.730852457656168,0.6480109090909091,-0.23367672727272729,0.187619,45.0425,34.3225,-81.49,0.5575,0.7,0.4225,-1.42,2.96,1.4975
1900-01-01 13:28:43.800,5.95805096342432,0.47794480000000006,-0.3288868,0.1974923,45.45,33.4975,-81.0325,0.5475000000000001,0.705,0.4275,0.1875,4.42,-0.48
1900-01-01 13:28:44.100,7.099931917238627,0.14889012,-0.49621200000000004,0.1559839,46.02333333333333,32.51,-81.39666666666666,0.53,0.7133333333333333,0.43333333333333335,0.08000000000000002,3.4566666666666666,-0.39666666666666667
1900-01-01 13:28:44.400,6.9629806181012555,-0.0778430909090909,-0.8125260909090909,0.16318963636363637,45.0925,32.155,-81.955,0.515,0.6875,0.45,-4.8100000000000005,5.25,-3.79
1900-01-01 13:28:44.700,11.275869451434541,-0.06783154545454545,-1.2142772727272728,0.16988727272727272,46.465,28.2125,-84.3575,0.46,0.7075,0.485,-1.9124999999999999,2.2225,-1.0025
1900-01-01 13:28:45.000,8.182514201732861,-0.10396873,-1.144777,0.177289,46.974000000000004,30.233999999999998,-83.376,0.508,0.734,0.462,1.3619999999999999,-2.026,2.166
1900-01-01 13:28:45.300,8.19428945022843,-0.13173354545454544,-1.105451818181818,0.18903518181818182,46.089999999999996,30.843333333333334,-82.76666666666667,0.49333333333333335,0.6966666666666667,0.45,-2.4,4.716666666666667,0.3033333333333333
1900-01-01 13:28:45.600,7.427619961715568,-0.1454701818181818,-1.0759618181818182,0.16910672727272727,46.8775,30.9525,-82.6425,0.5075000000000001,0.7224999999999999,0.4475,0.5149999999999999,-0.625,0.5125000000000001
1900-01-01 13:28:45.900,7.49392773606033,-0.06278234545454545,-1.0394707272727273,0.1954398181818182,46.7775,31.075,-82.7325,0.5125,0.72,0.445,-1.415,1.595,-1.5625
1900-01-01 13:28:46.200,10.17802384367357,0.2689587,-0.886791,0.2819873,48.865,29.3,-84.10249999999999,0.48,0.7424999999999999,0.4325,-2.4675000000000002,-0.0675,-1.515
1900-01-01 13:28:46.500,10.04087072992731,0.4409232727272727,-0.8503203636363637,0.2952360909090909,47.3675,29.822499999999998,-84.8125,0.4875,0.72,0.4525,-2.7375,0.945,-0.8
1900-01-01 13:28:46.800,9.560859416778548,0.6042036363636364,-0.8243944545454546,0.3052936363636363,46.692499999999995,30.115,-84.85249999999999,0.4925,0.715,0.46,-3.3775,-0.059999999999999956,1.065
1900-01-01 13:28:47.100,9.374919465098085,0.6731931999999999,-0.7737263999999999,0.3079139,46.0725,30.794999999999998,-84.63,0.51,0.7175,0.46499999999999997,-1.815,1.04,-1.3275000000000001
1900-01-01 13:28:47.400,9.925509472338858,0.599308,-0.5328828,0.3404229,45.8425,31.1975,-84.9925,0.5,0.69,0.4525,0.265,-0.3525,1.605
1900-01-01 13:28:47.700,8.008669583087302,0.3762922727272727,-0.33576136363636366,0.2600861818181818,46.02,32.365,-83.505,0.5325,0.7124999999999999,0.4375,2.15,2.04,3.55
1900-01-01 13:28:48.000,5.878134000713373,-0.028694103999999998,-0.2198341,0.09876608,45.405,34.225,-81.1525,0.5575000000000001,0.7024999999999999,0.4175,1.6824999999999999,3.6875,3.605
1900-01-01 13:28:48.300,4.700099318716259,-0.5141007,-0.2192691,0.0077870510000000006,44.89333333333334,34.63666666666666,-79.47,0.5633333333333334,0.6999999999999998,0.4166666666666667,-1.3733333333333333,3.206666666666667,3.41
1900-01-01 13:28:48.600,2.00075541706565,-1.0448814545454546,-0.4347666363636364,-0.018955727272727273,42.87,35.894999999999996,-77.7925,0.5825,0.6725000000000001,0.4325,-1.875,3.2725,2.5225
1900-01-01 13:28:48.900,-0.266203703652223,-1.259107,-0.47487219999999997,0.022245405099999997,41.4,37.195,-76.6525,0.6,0.655,0.4425,-1.98,-1.56,1.2075
1900-01-01 13:28:49.200,-0.5005500105957162,-1.129197,-0.4730284,0.056218029999999995,41.6975,37.1625,-76.58500000000001,0.6,0.6625000000000001,0.44,-1.0775,1.2575,-1.3175
1900-01-01 13:28:49.500,0.10826384096392422,-1.0820527272727274,-0.5414531818181818,0.0719108,41.9575,36.76,-77.0475,0.595,0.66,0.4375,-0.9299999999999999,1.8775,0.5700000000000001
1900-01-01 13:28:49.800,0.3287105159712622,-1.0154665,-0.6475699,0.1304952,41.905,37.0125,-77.1825,0.5925,0.6575,0.43,-1.7974999999999999,1.6175,-2.1925
1900-01-01 13:28:50.100,3.255422912465885,-0.6128067272727272,-0.7110137272727273,0.20834290909090908,43.69,34.92,-78.9,0.5675,0.685,0.4375,-1.435,0.16749999999999998,-2.2825
1900-01-01 13:28:50.400,2.514007082647465,-0.33902109999999996,-0.5609574,0.19535639999999999,43.0175,35.817499999999995,-79.6825,0.5775,0.6725000000000001,0.43,-0.8099999999999999,-0.9850000000000001,-0.0925
1900-01-01 13:28:50.700,3.1273998851804423,-0.17812094,-0.3606155,0.1983705,44.6,35.527499999999996,-80.1825,0.5825,0.7025,0.4125,-0.675,0.09500000000000001,-2.7125
1900-01-01 13:28:51.000,6.99497984892817,0.1757386718181818,-0.03969562727272727,0.23959,46.155,33.4525,-83.2625,0.5425,0.7124999999999999,0.4125,-3.8225,0.83,-7.5125
1900-01-01 13:28:51.300,12.70955301718045,0.5549799090909091,0.23432399999999998,0.2086229090909091,48.8,29.432499999999997,-86.35249999999999,0.48,0.7324999999999999,0.4275,1.225,1.9849999999999999,1.5425
1900-01-01 13:28:51.600,7.326427825031687,0.2801885,0.225875,0.017221788,46.0625,33.9225,-84.52499999999999,0.5525,0.715,0.41,-3.1775,-1.005,3.24
1900-01-01 13:28:51.900,5.94795928725635,0.24155381818181818,0.18876736363636362,0.015627003636363636,45.10666666666666,34.56666666666667,-83.09333333333333,0.5666666666666668,0.6999999999999998,0.41333333333333333,0.5666666666666668,1.74,0.25666666666666665
1900-01-01 13:28:52.200,6.938276266728588,0.264059,-0.030792129999999994,0.08504559,45.775999999999996,33.252,-83.566,0.538,0.704,0.42400000000000004,-2.9400000000000004,3.2920000000000003,-1.6280000000000001
1900-01-01 13:28:52.500,8.823539641119902,0.37860127272727273,-0.29771245454545453,0.10641336363636364,46.9025,31.2725,-84.5125,0.515,0.7224999999999999,0.44,-1.195,2.485,-0.6575
1900-01-01 13:28:52.800,8.32395519694469,0.4527106666666667,-0.3566936666666667,0.12255466666666666,46.675,31.814999999999998,-84.4625,0.525,0.725,0.44,-0.5725,0.265,2.925
1900-01-01 13:28:53.100,7.37981449327692,0.4173917272727273,-0.08952794090909091,0.22224727272727274,45.72666666666667,33.163333333333334,-82.80666666666667,0.5366666666666667,0.7066666666666667,0.4266666666666667,-0.62,1.4066666666666665,1.0866666666666667
1900-01-01 13:28:53.400,6.65347865492818,0.3787205555555555,0.06648313333333333,0.2735881111111111,44.9275,33.7225,-82.465,0.5475000000000001,0.695,0.4325,-1.665,1.7,0.38249999999999995
1900-01-01 13:28:53.700,7.1417583664514845,-0.6292348839765851,-0.01418740712893736,0.08913260547051456,45.4925,33.2,-82.48,0.54,0.7024999999999999,0.43,-0.2875,1.365,-0.485
1900-01-01 13:28:54.000,7.012111441235983,-0.6292348839765851,-0.01418740712893736,0.08913260547051456,45.855000000000004,33.292500000000004,-82.8175,0.5425,0.7124999999999999,0.425,-0.295,0.85,-0.3125
1900-01-01 13:28:54.300,7.22076730926776,0.3811271666666667,0.10697876666666667,0.28521783333333334,45.95,33.43,-83.0375,0.5475000000000001,0.7124999999999999,0.4225,-2.2275,0.65,-0.4575
1900-01-01 13:28:54.600,8.45072752221428,0.46449981818181824,0.2033680909090909,0.37280945454545455,46.475,32.805,-83.52000000000001,0.5325,0.71,0.415,-1.6275,0.5075000000000001,-0.64
1900-01-01 13:28:54.900,9.443477121722493,0.48633590909090907,0.23590363636363634,0.3822138181818182,47.035,32.417500000000004,-84.0125,0.53,0.7224999999999999,0.4175,-2.38,0.10750000000000001,-2.1675
1900-01-01 13:28:55.200,11.129771414872344,0.5626491,0.2314755,0.4064648,46.4375,32.8375,-85.4625,0.53,0.71,0.415,-3.3875,-4.4725,-1.9700000000000002
1900-01-01 13:28:55.500,12.65874039045813,0.7048863636363637,0.25311181818181816,0.41279,47.57,33.065,-87.3675,0.545,0.735,0.39749999999999996,-0.6275000000000001,-3.9875,-3.3274999999999997
1900-01-01 13:28:55.800,17.13606001473525,0.7310107,0.2732236,0.35372339999999997,49.2825,31.5825,-89.1875,0.515,0.745,0.3825,-2.23,4.3149999999999995,-1.5625
1900-01-01 13:28:56.100,16.12041908763615,0.7072942727272727,0.26909236363636363,0.3282117272727273,48.78,31.317500000000003,-89.28,0.515,0.7424999999999999,0.4,-0.965,2.9,0.18999999999999997
1900-01-01 13:28:56.400,16.20384440384085,0.708584,0.24321589999999998,0.315471,49.4625,30.0875,-89.33250000000001,0.4925,0.7475,0.4075,-1.9275,2.7575,0.12249999999999998
1900-01-01 13:28:56.700,14.697984157312334,0.674683,0.21952270000000002,0.2860885,49.31,30.189999999999998,-89.24333333333334,0.49666666666666665,0.7466666666666667,0.41,-0.43,1.0833333333333333,0.41333333333333333
1900-01-01 13:28:57.000,12.324336293604226,0.6412249,0.1911206,0.2732903,48.7325,30.7075,-88.945,0.49,0.7224999999999999,0.40249999999999997,-0.4750000000000001,0.6100000000000001,0.925
1900-01-01 13:28:57.300,11.813085063344726,0.5425856363636363,-0.03735742090909091,0.2097158181818182,49.51,31.6125,-88.735,0.53,0.7675000000000001,0.3875,1.1025,-0.31999999999999995,-0.5325
1900-01-01 13:28:57.600,13.290773286543825,0.42877960000000004,-0.11645012000000002,0.222492,50.4525,31.06,-89.22999999999999,0.505,0.7575000000000001,0.365,-0.5575,1.3475000000000001,-1.1325
1900-01-01 13:28:57.900,14.318277711440874,0.326826,-0.18438859999999999,0.2436122,51.24,30.2375,-89.8025,0.5,0.7775000000000001,0.37,-0.5775,1.425,-0.7875000000000001
1900-01-01 13:28:58.200,15.2388386782153,0.3118144,-0.18354600000000001,0.2417708,51.4725,30.0425,-90.0625,0.4925,0.7675000000000001,0.3675,-1.8325,2.2425,0.18500000000000003
1900-01-01 13:28:58.500,16.072706391814226,0.3147705,-0.1794689,0.245113,51.7975,29.567500000000003,-90.13,0.485,0.7775000000000001,0.3675,-1.2525,2.0625,-0.1475
1900-01-01 13:28:58.800,15.9736306017593,0.318007,-0.177902,0.247513,51.22,29.69,-90.225,0.485,0.765,0.375,-2.52,1.08,-0.1375
1900-01-01 13:28:59.100,16.403762640993776,0.2919900909090909,-0.178956,0.24022445454545457,51.792500000000004,29.205,-90.345,0.4825,0.7775000000000001,0.3775,-0.27999999999999997,0.11249999999999999,-0.11
1900-01-01 13:28:59.400,16.413622664561775,0.2295916,-0.1799811,0.22839230000000002,51.87,29.7725,-90.5575,0.49,0.775,0.3625,-0.755,1.5025,-0.32
1900-01-01 13:28:59.700,16.9483820052501,0.19031499999999998,-0.2055644,0.2319566,52.182500000000005,29.240000000000002,-90.6925,0.485,0.7825,0.3675,-0.9775,1.9225,-0.05499999999999999
1900-01-01 13:29:00.000,17.925899360014824,0.1928737,-0.2142062,0.2376907,52.275,29.0675,-90.72,0.48,0.78,0.365,-1.285,2.1125,-0.2025
1900-01-01 13:29:00.300,18.313632511592473,0.21617730000000002,-0.22388210000000003,0.24673699999999998,52.0375,28.87,-90.7675,0.4725,0.775,0.375,-1.8624999999999998,3.02,1.0175
1900-01-01 13:29:00.600,18.112714321375133,0.19484681818181818,-0.26679718181818185,0.22824036363636366,52.01,28.53333333333333,-90.22666666666667,0.47333333333333333,0.7766666666666667,0.3833333333333333,-0.8533333333333334,1.9233333333333331,0.29
1900-01-01 13:29:00.900,17.58765228386795,0.165472,-0.2844433,0.2103062,51.8375,29.05,-89.975,0.475,0.77,0.3725,-0.8474999999999999,0.445,0.77
1900-01-01 13:29:01.200,14.5689200183627,0.13588118181818182,-0.27044036363636365,0.20297863636363636,51.205,30.32,-89.35,0.5025,0.7775000000000001,0.3675,0.4175,0.66,1.0025
1900-01-01 13:29:01.500,15.363424594629775,0.151185,-0.25676145454545457,0.21635854545454547,51.245,30.12,-89.195,0.5,0.7775000000000001,0.3725,-3.7025,2.37,-0.13
1900-01-01 13:29:01.800,17.156023319400276,0.2863244,-0.1801583,0.3178524,50.795,29.4675,-89.4,0.48,0.755,0.3875,-1.62,2.1025,-0.3275
1900-01-01 13:29:02.100,17.58169078484225,0.3571768181818182,-0.014688467454545455,0.38112172727272725,50.707499999999996,29.505000000000003,-89.39750000000001,0.485,0.76,0.39,-0.81,0.915,0.5975
1900-01-01 13:29:02.400,17.00059373495085,0.28838850000000005,0.06080455,0.3471598,50.405,30.05,-89.1425,0.4925,0.7575000000000001,0.3875,-0.9525,1.385,0.3225
1900-01-01 13:29:02.700,16.4932640650915,0.24229527272727272,0.07736069090909091,0.32826327272727274,50.4375,30.11,-89.10249999999999,0.495,0.7625,0.385,-0.6475,1.8125,-0.315
1900-01-01 13:29:03.000,16.687645220154252,0.2229850909090909,0.062356936363636366,0.31083,50.7175,29.9525,-89.2675,0.495,0.7625,0.3825,-0.9325,1.3875,0.012500000000000004
1900-01-01 13:29:03.300,16.790648510895725,0.19979118181818184,0.04511470909090909,0.290466,51.0125,29.8125,-89.25750000000001,0.49,0.7675000000000001,0.38,-0.99,1.25,0.09749999999999999
1900-01-01 13:29:03.600,16.69847648259135,0.1835059,0.04466644,0.2819291,51.265,29.76,-89.225,0.485,0.765,0.3725,-0.9075,1.4775,0.1125
1900-01-01 13:29:03.900,16.202567247876466,0.14494200000000002,0.04956485454545454,0.2648460909090909,50.776666666666664,30.040000000000003,-89.27,0.49333333333333335,0.7633333333333333,0.3833333333333333,-0.48666666666666664,1.8699999999999999,-0.20666666666666667
1900-01-01 13:29:04.200,16.89950710183946,0.057176477272727275,0.004226082181818182,0.20576563636363635,51.99400000000001,29.464,-89.53,0.484,0.774,0.364,1.698,2.944,-1.0139999999999998
1900-01-01 13:29:04.500,18.9655576288834,-0.02179279909090909,-0.05862430909090909,0.17368290909090908,53.76,28.080000000000002,-90.18333333333334,0.4633333333333334,0.7933333333333333,0.35333333333333333,-0.9199999999999999,1.4766666666666666,-0.24
1900-01-01 13:29:04.800,18.5666008778622,-0.0541832,-0.09526542,0.18873630000000002,53.567499999999995,28.2575,-90.2675,0.47,0.7925,0.355,-1.565,2.3600000000000003,0.3225
1900-01-01 13:29:05.100,19.338091612731375,-0.05898959166666667,-0.0961277,0.2158806666666667,52.6575,28.725,-90.055,0.475,0.785,0.3675,-3.4775,1.185,0.94
1900-01-01 13:29:05.400,19.462428160147226,-0.014397263636363638,0.10697190909090909,0.35771436363636366,52.115,28.84,-89.38499999999999,0.4725,0.7725,0.37,-0.2875,0.625,0.615
1900-01-01 13:29:05.700,19.0799981301809,-0.08111704,0.17286479999999999,0.350687,52.41,29.08,-89.015,0.48,0.78,0.3625,0.13500000000000004,0.6675,2.8825
1900-01-01 13:29:06.000,14.515026546396625,-0.24235145454545454,0.2378167272727273,0.2768000909090909,50.03,32.4875,-87.205,0.535,0.7675000000000001,0.35,-1.1575000000000002,0.22749999999999995,-0.05999999999999994
1900-01-01 13:29:06.300,15.8450355437173,0.19123384545454547,0.42928663636363634,0.2919162727272728,50.96,31.5875,-88.05250000000001,0.5175000000000001,0.7675000000000001,0.34500000000000003,-3.8825,-3.29,-1.87
1900-01-01 13:29:06.600,15.4879721932079,0.642870090909091,0.560629090909091,0.2735823636363636,50.4725,31.6725,-89.35249999999999,0.5075000000000001,0.7475,0.35,-3.46,-0.30500000000000005,-2.4375
1900-01-01 13:29:06.900,16.634100372981024,0.8293746363636363,0.31451609090909094,0.1576218181818182,51.269999999999996,30.5725,-90.32,0.505,0.7725,0.36,-0.9375000000000001,2.5725,-0.007499999999999998
1900-01-01 13:29:07.200,15.4363888202071,0.8225693,0.12600724000000002,0.08029823999999999,51.1025,30.94,-90.375,0.51,0.7725,0.3575,-2.8475,-2.0324999999999998,0.8025
1900-01-01 13:29:07.500,12.177163192886733,0.8267264000000001,0.08407028,0.07087873,49.38666666666666,32.61666666666667,-89.61333333333334,0.53,0.75,0.36000000000000004,-1.4366666666666668,2.7866666666666666,1.07
1900-01-01 13:29:07.800,13.6016525864282,0.7978194999999999,-0.038502725,0.05728514,49.865,31.695,-89.4475,0.5175000000000001,0.75,0.37,-1.3225,2.805,-0.1025
1900-01-01 13:29:08.100,12.963125433077781,0.7444786666666666,-0.1236706888888889,0.061272866666666675,49.87,31.628000000000004,-89.44800000000001,0.52,0.76,0.372,-1.592,1.9780000000000002,0.45199999999999996
1900-01-01 13:29:08.400,12.009836824958933,0.6573324545454545,-0.2233812727272727,0.09916348181818183,48.080000000000005,32.50333333333333,-88.38333333333333,0.5266666666666667,0.73,0.38999999999999996,-3.263333333333333,3.793333333333333,3.6999999999999997
1900-01-01 13:29:08.700,12.8547119126933,0.5568557000000001,-0.24600729999999998,0.12383,48.884,31.726,-87.402,0.522,0.742,0.388,0.27199999999999996,3.1439999999999997,1.1960000000000002
1900-01-01 13:29:09.000,12.191319061645332,-0.120674825,-0.3479974,0.1334484,47.589999999999996,32.71666666666667,-86.70333333333333,0.54,0.7366666666666667,0.39999999999999997,0.2833333333333332,7.516666666666667,-1.6266666666666667
1900-01-01 13:29:09.300,14.48540260395495,-0.8482133636363636,-0.28025263636363634,0.24117045454545452,48.8475,31.064999999999998,-87.09,0.505,0.7375,0.4,1.9525,1.52,1.3775
1900-01-01 13:29:09.600,14.072140321935676,-0.9062559,-0.08082888,0.35889610000000005,49.265,31.27,-86.6325,0.5075000000000001,0.745,0.3875,-1.4300000000000002,0.3875,-0.515
1900-01-01 13:29:09.900,14.904116470909425,-0.6555149090909091,-0.005340841818181818,0.35791209090909093,50.0475,31.03,-86.9675,0.51,0.76,0.38,-1.25,0.715,0.1775
1900-01-01 13:29:10.200,13.286366128349,-0.7390185,0.11874096,0.3587412,49.17,32.2225,-86.625,0.525,0.7475,0.37,0.3025,0.87,0.7375
1900-01-01 13:29:10.500,13.034724035744174,-0.7317355454545456,0.24439327272727274,0.31252972727272726,49.22,32.9775,-86.585,0.535,0.745,0.355,-2.3925,-2.36,0.21999999999999997
1900-01-01 13:29:10.800,13.180541942308524,-0.7096292727272727,0.3141944545454545,0.24845736363636364,49.635,32.427499999999995,-86.3,0.5325,0.7575000000000001,0.36,-1.145,2.33,0.5875
1900-01-01 13:29:11.100,12.11614464221785,-0.7300831000000001,0.3208824,0.2464763,48.4775,33.489999999999995,-85.1425,0.5425,0.7324999999999999,0.3575,-1.7999999999999998,2.22,2.3800000000000003
1900-01-01 13:29:11.400,11.155496190845126,-0.72844,0.3269974,0.2438158,48.307500000000005,33.9375,-84.945,0.5525,0.74,0.3575,-0.635,0.755,-0.9550000000000001
1900-01-01 13:29:11.700,11.762969059295175,-0.7151026,0.3127451,0.2302076,49.307500000000005,33.115,-85.4975,0.54,0.75,0.35,-0.245,2.4825,-0.7350000000000001
1900-01-01 13:29:12.000,12.160701587030166,-0.6886731818181818,0.21466899999999997,0.188481,49.74666666666667,32.656666666666666,-85.87333333333333,0.5333333333333333,0.7533333333333333,0.3466666666666667,-1.09,1.9333333333333333,-0.7533333333333334
1900-01-01 13:29:12.300,12.2027638355898,-0.6799974545454546,0.041117308181818184,0.10811276363636364,49.8675,32.277499999999996,-86.305,0.5275000000000001,0.7575000000000001,0.36,-1.0550000000000002,1.5325,-1.37
1900-01-01 13:29:12.600,14.566070918539525,-0.6600645,-0.13140882,0.06805075000000001,51.155,30.7125,-87.79249999999999,0.505,0.765,0.3575,-1.7075,3.08,-2.2100000000000004
1900-01-01 13:29:12.900,15.84997275586195,-0.6978422727272727,-0.25349381818181815,0.08592261818181818,51.495,29.285,-88.395,0.4825,0.77,0.38,-2.075,3.58,-0.0725
1900-01-01 13:29:13.200,15.356775091388549,-0.875299,-0.40353890000000003,0.09187297999999999,51.0875,29.865,-88.72,0.4825,0.755,0.3725,3.645,4.74,-1.335
1900-01-01 13:29:13.500,22.03307190008475,-1.319238181818182,-0.5181834545454546,0.0658262090909091,57.5075,25.005,-89.93,0.42,0.83,0.3275,6.8675,9.3725,-2.935
1900-01-01 13:29:13.800,25.525998733339875,-1.836889,-0.7273447,0.013569656,59.97,22.8475,-91.63,0.385,0.85,0.3125,2.9725,5.055,-3.4299999999999997
1900-01-01 13:29:14.100,28.861941868146925,-2.3793818181818183,-0.6653895454545454,0.07254247272727272,63.9925,20.9075,-94.495,0.35250000000000004,0.8875,0.25,5.515,-3.7125,-1.7975000000000003
1900-01-01 13:29:14.400,30.537906260802377,-2.537605,-0.4525805,0.14749289999999998,64.8125,21.57,-94.42,0.3625,0.8875,0.21000000000000002,3.6399999999999997,5.555,-0.67
1900-01-01 13:29:14.700,31.775177104069375,-2.5445554545454545,-0.4001576363636364,0.160029,66.7875,20.6875,-94.4225,0.3525,0.915,0.175,-1.3724999999999998,2.14,4.49
1900-01-01 13:29:15.000,27.287010497990977,-2.585451,-0.13465894,0.2351203,62.269999999999996,25.1175,-90.82499999999999,0.4275,0.885,0.1925,-2.52,3.1399999999999997,4.702500000000001
1900-01-01 13:29:15.300,28.25600789936425,-2.628155,0.26993083,0.31691020000000003,61.395,25.0775,-88.7375,0.415,0.865,0.22,-2.0524999999999998,3.995,1.835
1900-01-01 13:29:15.600,26.87861152735055,-2.675960909090909,0.6315512727272727,0.28095445454545454,59.62,26.17,-88.095,0.43,0.8425,0.24,-3.2525,2.83,-0.525
1900-01-01 13:29:15.900,25.262792687293448,-2.696237,0.7116771,0.3088006,60.75,24.255,-89.2525,0.4025,0.855,0.2575,-2.5825,3.02,-3.185
1900-01-01 13:29:16.200,17.6538910094655,-2.6975279999999997,0.7061186,0.3134903,61.95333333333334,23.316666666666666,-91.02,0.38999999999999996,0.8733333333333334,0.25,-0.8266666666666667,-1.1566666666666665,-3.22
1900-01-01 13:29:16.500,-0.10009937182223361,-2.680049,0.7367047999999999,0.317162,61.01800000000001,21.240000000000002,-91.56800000000001,0.364,0.8699999999999999,0.314,-12.36,6.332,-2.036
1900-01-01 13:29:16.800,1.7892234007219798,-2.611117,0.8545612,0.3244793,56.76,15.256666666666666,-94.66333333333334,0.25666666666666665,0.82,0.47,-1.0233333333333332,6.323333333333333,-5.88
1900-01-01 13:29:17.100,14.009535964480502,-2.455932727272727,1.0103594545454546,0.1704005181818182,57.1825,12.41,-95.41,0.23249999999999998,0.8,0.41,7.7025,-4.5600000000000005,3.8024999999999993
1900-01-01 13:29:17.400,12.300056568493659,-2.4310744444444445,1.0407122222222223,0.10920108888888888,63.235,19.265,-94.2575,0.3225,0.8775,0.2975,1.7650000000000001,6.0975,1.3575000000000002
1900-01-01 13:29:17.700,15.98166392050155,-2.40351,1.073363,0.10030391000000001,63.462500000000006,18.037499999999998,-93.41499999999999,0.3075,0.89,0.3175,-5.4925,2.105,0.7225
1900-01-01 13:29:18.000,9.308173236143116,-2.402142,1.089983,0.1081659,57.447500000000005,20.59,-92.055,0.345,0.83,0.4,-12.432500000000001,2.6225,3.16
1900-01-01 13:29:18.300,2.962321137754623,-2.371702,1.147823,0.1486749,51.85,20.05,-90.5125,0.3275,0.7525,0.4925,-8.9125,3.3325,2.0225
1900-01-01 13:29:18.600,0.2952583380675332,-2.355413,1.16131,0.1533647,49.3275,22.0175,-88.8925,0.3625,0.735,0.515,-0.5224999999999999,-0.35250000000000004,4.2075
1900-01-01 13:29:18.900,-1.7556989143685882,-2.3455736363636364,1.1686436363636366,0.14764536363636363,46.4125,25.985,-85.35,0.4275,0.7075,0.52,-3.9475,-1.0425,7.3975
1900-01-01 13:29:19.200,-3.8567063818100027,-2.28791,1.173475,0.09279337,44.92,29.5075,-82.405,0.485,0.6975,0.5025,-0.4175,-3.3725,0.11750000000000008
1900-01-01 13:29:19.500,-3.0942495482234547,-2.330375,1.0698693000000001,0.08709031,45.2,30.9075,-82.4325,0.505,0.6975,0.4725,0.6925,0.365,1.125
1900-01-01 13:29:19.800,-3.3760095621321273,-2.5321640000000003,0.8478235999999999,0.1933079,44.9075,30.1575,-81.86,0.495,0.6975,0.4875,-1.0375,2.7275,1.035
1900-01-01 13:29:20.100,-3.16591586406439,-2.538078181818182,0.6905615454545454,0.12381518181818181,45.11,31.104999999999997,-81.2825,0.5125,0.6975,0.4775,0.37249999999999994,2.5100000000000002,0.6525
1900-01-01 13:29:20.400,-0.3341468449380675,-2.523056,0.6621222999999999,0.09489948000000001,44.315,30.72,-80.7075,0.5025,0.6875,0.49,-5.5525,3.38,1.5274999999999999
1900-01-01 13:29:20.700,5.785758582544901,-2.4869836363636364,0.5795697272727273,0.028267654545454546,44.23,29.593333333333334,-80.75666666666666,0.48,0.68,0.5066666666666667,-0.5933333333333333,1.76,-3.6466666666666665
1900-01-01 13:29:21.000,11.26145558832261,-2.506671818181818,0.46071145454545454,0.009123096363636363,45.6125,27.5175,-83.03,0.45999999999999996,0.7075,0.5225,-1.6725,4.26,-5.9025
1900-01-01 13:29:21.300,20.38801302084635,-2.590619,0.4085743,-0.004179385,44.04,25.2925,-84.715,0.40499999999999997,0.6575,0.545,0.6475,6.07,3.9074999999999998
1900-01-01 13:29:21.600,29.3981195934619,-2.569817272727273,0.0632193090909091,-0.13836522727272726,52.1975,22.1075,-84.81,0.365,0.77,0.4675,10.934999999999999,4.802499999999999,-7.61
1900-01-01 13:29:21.900,25.90671719765715,-2.5614339999999998,-0.11434012,-0.1653636,53.9975,23.4525,-87.6325,0.3975,0.8025,0.4275,-1.2850000000000001,-9.23,0.26750000000000007
1900-01-01 13:29:22.200,24.05398001577445,-2.5642727272727273,-0.18215118181818182,-0.13683627272727272,54.3875,22.6475,-88.1375,0.3775,0.8,0.4275,-4.1225000000000005,3.4875,-1.6425
1900-01-01 13:29:22.500,25.11734109299285,-2.5194229999999997,-0.4374272,-0.1400283,53.555,21.8075,-88.795,0.36,0.7775000000000001,0.45,-2.3325,0.8599999999999999,0.2675
1900-01-01 13:29:22.800,24.190753510208975,-2.44726,-0.9994002,-0.1339678,53.0875,21.6075,-88.9675,0.36,0.7775000000000001,0.4625,-1.905,1.6025,-1.3624999999999998
1900-01-01 13:29:23.100,24.073443024375877,-2.377981,-1.4795729999999998,-0.1222721,53.614999999999995,20.7325,-89.8725,0.35,0.7925,0.47,-0.15750000000000003,2.815,-0.935
1900-01-01 13:29:23.400,25.689685020838652,-2.353785454545455,-1.6557172727272729,-0.0969599090909091,54.7325,19.8275,-90.03,0.3325,0.7975000000000001,0.4575,-1.7075,2.5825,0.7025
1900-01-01 13:29:23.700,24.71062962986895,-2.3742080000000003,-1.5107529999999998,-0.013190041,53.85,21.42,-89.2325,0.365,0.805,0.45999999999999996,2.9699999999999998,-1.75,4.9175
1900-01-01 13:29:24.000,21.68741124367505,-2.491120909090909,-0.5802084545454546,0.1950523363636364,54.43,24.72,-85.895,0.405,0.7925,0.3925,1.6375,-0.8075000000000001,2.68
1900-01-01 13:29:24.300,22.5898588905676,-2.541504,-0.06465294,0.2291525,55.235,24.795,-85.2625,0.4125,0.8075,0.38,0.3225,1.9024999999999999,-0.6675
1900-01-01 13:29:24.600,23.27198306524097,-2.554229090909091,0.09974905272727272,0.24872736363636364,55.833333333333336,24.776666666666667,-85.79333333333334,0.41,0.8133333333333334,0.3666666666666667,-1.6366666666666667,0.9533333333333335,-1.0033333333333332
1900-01-01 13:29:24.900,23.24961094390406,-2.572197,0.23242259999999998,0.3136358,55.798,24.502000000000002,-86.13,0.40599999999999997,0.8099999999999999,0.372,-1.212,1.256,-0.11199999999999999
1900-01-01 13:29:25.200,23.7343035434654,-2.57269,0.2610194,0.32208950000000003,55.98,24.383333333333336,-86.37,0.4066666666666667,0.8166666666666668,0.36999999999999994,-1.6066666666666667,1.5233333333333334,-0.3
1900-01-01 13:29:25.500,23.045897843957427,-2.5238727272727273,0.3346235454545454,0.27202272727272725,55.9875,24.8425,-86.1425,0.41,0.8075,0.3625,-0.61,-0.8500000000000001,1.74
1900-01-01 13:29:25.800,20.124893483621875,-2.484199,0.2709883,0.18315920000000002,54.64,27.075,-85.05250000000001,0.4575,0.8175,0.355,-3.535,-1.7650000000000001,1.88
1900-01-01 13:29:26.100,18.9795563998612,-2.567873,0.4247212,0.2780388,53.7125,27.66,-84.205,0.455,0.7925,0.36,-0.625,1.95,0.1475
1900-01-01 13:29:26.400,17.63163497286735,-2.550988181818182,0.5435788181818182,0.2610105454545455,53.379999999999995,28.01,-84.155,0.4575,0.7775000000000001,0.3575,-2.1325,-3.6100000000000003,0.965
1900-01-01 13:29:26.700,14.1249681982037,-2.3020959999999997,0.4114985,0.08338367,52.03,29.7425,-83.4875,0.485,0.775,0.355,-3.0475000000000003,-1.1325,0.45749999999999996
1900-01-01 13:29:27.000,13.539649365207275,-1.7175745454545455,0.04487337272727272,0.0062622090909090905,52.7125,30.002499999999998,-83.98,0.4975,0.7925,0.34,-2.4225000000000003,-2.61,-3.9050000000000002
1900-01-01 13:29:27.300,13.146609815535426,-1.0264134999999999,-0.3198428,0.25852082,53.74,28.27,-87.195,0.4775,0.8125,0.355,-6.26,-5.3675,-4.2475000000000005
1900-01-01 13:29:27.600,14.18144178142665,-0.5211363999999999,-0.034058377,0.4835199,54.175,29.1525,-88.185,0.485,0.805,0.3225,3.8825,-5.2875,2.1375
1900-01-01 13:29:27.900,14.071909467662074,-0.15838021,0.8116382,0.5187587,54.2425,31.325000000000003,-86.745,0.5,0.7825,0.255,1.14,-2.0325,1.36
1900-01-01 13:29:28.200,14.6267549370419,0.053422621,0.9830403999999999,0.3480226,54.57666666666666,31.893333333333334,-86.82333333333334,0.5266666666666667,0.8166666666666668,0.23666666666666666,0.49333333333333335,3.3233333333333337,-2.4566666666666666
1900-01-01 13:29:28.500,17.049282876032642,0.2220649090909091,0.7080095454545454,0.2209899090909091,54.938,29.912,-87.52799999999999,0.5,0.82,0.28200000000000003,-4.602,9.872,1.344
1900-01-01 13:29:28.800,20.465229915137368,-0.060373671,0.8624655000000001,0.1808757,56.31333333333333,27.21666666666667,-86.00666666666666,0.4466666666666667,0.8133333333333334,0.31,1.4033333333333333,2.5633333333333335,-1.096666666666667
1900-01-01 13:29:29.100,15.897464193036726,-0.8536862,1.156371,0.1317792,52.26,30.7575,-87.47749999999999,0.53,0.8200000000000001,0.35000000000000003,-7.1125,6.15,-2.97
1900-01-01 13:29:29.400,31.980772651142225,-1.4156140000000001,1.40268,0.11110876,51.1875,19.05,-90.9075,0.305,0.73,0.4925,-20.5375,18.975,-6.11
1900-01-01 13:29:29.700,29.29107867448235,-1.796338,1.5318720000000001,0.0478199,45.3025,18.2675,-93.21000000000001,0.2925,0.6699999999999999,0.5875,3.925,-8.045,1.725
1900-01-01 13:29:30.000,17.3975096408145,-1.8349620000000002,1.519534,0.008196869999999998,49.2775,25.295,-89.53,0.435,0.7675000000000001,0.4975,5.5725,-3.5075000000000003,4.6475
1900-01-01 13:29:30.300,16.62506193068465,-1.8372872727272729,1.5169545454545454,0.06481257272727273,51.7875,25.645,-89.72,0.4175,0.765,0.4275,3.6675000000000004,-1.815,-3.2399999999999998
1900-01-01 13:29:30.600,14.177701132730975,-2.12946,1.257961,0.15677,54.5425,25.8425,-90.18,0.4325,0.8075,0.3775,9.0,4.015000000000001,3.06
1900-01-01 13:29:30.900,15.325468141731001,-2.445406363636364,1.0064523636363636,0.2051477272727273,57.5175,24.655,-89.69749999999999,0.4125,0.83,0.33499999999999996,2.6975,3.8275,-2.1125
1900-01-01 13:29:31.200,17.0855666154794,-2.576916363636364,0.8724322727272728,0.18113363636363636,58.9375,23.4525,-90.5825,0.3925,0.845,0.3225,-2.56,1.955,-0.22749999999999998
1900-01-01 13:29:31.500,15.75197190334195,-2.58568,0.8258108999999999,0.10527850000000001,56.870000000000005,24.822499999999998,-90.6525,0.415,0.8275,0.345,-5.9025,0.7025,-1.0475
1900-01-01 13:29:31.800,20.59511359774085,-2.584003,0.6775769,0.05127471,53.4125,21.490000000000002,-92.6425,0.35,0.7675000000000001,0.45,-13.3725,4.395,-4.585
1900-01-01 13:29:32.100,24.162909957360373,-2.578705454545455,0.48721045454545453,0.009364090909090909,53.17,18.9975,-94.2775,0.315,0.7775000000000001,0.49,-1.2475,2.9525,-1.3475000000000001
1900-01-01 13:29:32.400,27.2495457714916,-2.499672,0.301153,-0.03524859,52.44,17.835,-95.8575,0.29500000000000004,0.77,0.51,-5.3025,1.9000000000000001,-2.8125
1900-01-01 13:29:32.700,27.4514480774178,-2.4783654545454543,0.16918058181818182,-0.008542952727272728,51.025,16.869999999999997,-96.8375,0.28,0.7525,0.54,-1.7025000000000001,3.5375,-0.46
1900-01-01 13:29:33.000,29.330817540405533,-2.4533945454545454,0.01909040636363636,-0.012673784545454547,52.43333333333334,15.340000000000002,-96.87666666666667,0.26,0.7799999999999999,0.54,-1.1,2.5033333333333334,0.5233333333333333
1900-01-01 13:29:33.300,28.192364304451623,-2.4802229999999996,-0.05897314,0.006043035,51.512,16.356,-96.49600000000001,0.272,0.754,0.534,-0.33199999999999996,1.706,0.9179999999999999
1900-01-01 13:29:33.600,28.070784768543934,-2.50373,-0.13194618181818182,0.029644981818181818,52.35333333333333,15.996666666666664,-96.02666666666666,0.27,0.7766666666666667,0.53,0.7933333333333333,2.1266666666666665,0.9366666666666666
1900-01-01 13:29:33.900,28.197853105426177,-2.5322454545454547,-0.14602563636363636,0.056568936363636364,52.41,16.0475,-95.7575,0.2675,0.765,0.5275000000000001,-1.3699999999999999,1.96,0.40750000000000003
1900-01-01 13:29:34.200,28.99651198980345,-2.568758181818182,-0.08387061818181818,0.10969233636363636,52.8125,15.7925,-95.39,0.265,0.77,0.525,-0.41500000000000004,2.7325,1.0699999999999998
1900-01-01 13:29:34.500,29.8682799811648,-2.5731740000000003,-0.0008688049999999996,0.1342957,52.7625,16.185000000000002,-94.5275,0.2725,0.7775000000000001,0.52,-2.86,1.6725,1.055
1900-01-01 13:29:34.800,28.011293852437873,-2.5727054545454546,0.032857309090909094,0.10221178181818182,51.215,16.945,-94.4125,0.28250000000000003,0.75,0.535,-3.6675,-2.335,0.07500000000000001
1900-01-01 13:29:35.100,23.922895082593875,-2.5632336363636363,0.0077648027272727285,0.06829693636363636,51.295,18.2,-94.3125,0.3,0.75,0.52,5.664999999999999,1.2975,0.285
1900-01-01 13:29:35.400,23.3988484196587,-2.5424454545454545,-0.09372127272727272,0.042546118181818186,54.49666666666667,18.286666666666665,-93.81666666666666,0.31,0.8066666666666666,0.48,-0.73,1.37,1.3733333333333333
1900-01-01 13:29:35.700,24.83550394801364,-2.527117272727273,-0.2628217272727273,0.022411561818181817,53.742,16.7,-94.372,0.28200000000000003,0.79,0.504,-2.948,3.312,-2.646
1900-01-01 13:29:36.000,29.2252285764649,-2.526090909090909,-0.4275696363636364,0.026802336363636367,58.8025,13.620000000000001,-96.675,0.225,0.825,0.4425,14.35,8.752500000000001,-2.9125
1900-01-01 13:29:36.300,33.450901268049364,-2.5382018181818182,-0.4485326363636364,0.04159923636363636,67.14333333333333,10.719999999999999,-97.38,0.18333333333333335,0.9,0.33666666666666667,9.913333333333334,5.933333333333334,0.65
1900-01-01 13:29:36.600,32.26079773729638,-2.555184545454545,-0.44780309090909093,0.05396977272727273,69.30250000000001,11.6275,-96.78999999999999,0.2,0.9175,0.2825,3.7825,4.9799999999999995,1.6375
1900-01-01 13:29:36.900,32.6845588690392,-2.544957272727273,-0.4446161818181818,0.056578172727272724,72.76599999999999,11.534,-94.584,0.194,0.9380000000000001,0.21400000000000002,3.588,10.309999999999999,4.46
1900-01-01 13:29:37.200,31.1383094529856,-2.526153,-0.45001420000000003,0.053480700000000006,71.90666666666668,11.173333333333334,-92.69,0.19999999999999998,0.9633333333333333,0.24666666666666667,-22.383333333333336,-12.086666666666668,4.183333333333334
1900-01-01 13:29:37.500,24.8663053292034,-2.048490909090909,-0.4743198181818182,0.08447222727272728,57.045,18.01,-91.6375,0.29500000000000004,0.8075,0.4325,-20.255,-8.0125,-3.8375000000000004
1900-01-01 13:29:37.800,23.813500986518473,-1.0286116,-0.6026493,0.22207369999999998,55.6575,18.1675,-94.89,0.3025,0.805,0.45999999999999996,-4.865,-11.0225,-6.715
1900-01-01 13:29:38.100,24.9962456017256,-0.200617183,-0.5314646,0.2944618,56.7475,17.244999999999997,-98.2075,0.29,0.8225,0.4475,0.09999999999999998,-6.2175,-1.6025
1900-01-01 13:29:38.400,19.762270981615224,0.4706990909090909,-0.013262727272727275,0.24860418181818184,56.52,21.560000000000002,-97.7425,0.36,0.8125,0.4,1.375,-5.0125,1.2675
1900-01-01 13:29:38.700,23.13286852381555,0.7808186,0.1853592,0.2611826,58.7475,19.6875,-98.45500000000001,0.3325,0.8425,0.39,-4.2575,-0.745,-2.4075
1900-01-01 13:29:39.000,21.256666620070835,0.9196777,0.1741023,0.2235552,56.906666666666666,21.253333333333334,-99.23666666666666,0.3566666666666667,0.82,0.39999999999999997,-2.6666666666666665,-1.4133333333333333,-0.2133333333333333
1900-01-01 13:29:39.300,23.88775500461185,1.0185491818181818,0.021333986363636363,0.16043691818181818,57.9975,18.875,-100.0725,0.3175,0.835,0.4125,-2.935,2.8725,-1.0825
1900-01-01 13:29:39.600,22.1440501446491,0.8354635,-0.12463089999999999,0.07952662,56.362,20.148,-99.614,0.33999999999999997,0.818,0.422,1.2120000000000002,-1.1960000000000002,1.592
1900-01-01 13:29:39.900,17.7664990146605,0.8178217272727273,-0.029473707272727277,0.11034105454545454,55.957499999999996,23.4575,-98.19,0.39,0.81,0.385,-0.34750000000000003,-1.485,2.325
1900-01-01 13:29:40.200,17.292017939691267,0.8458783636363637,0.0951538909090909,0.16131854545454546,56.47666666666667,23.80666666666667,-97.57666666666667,0.39666666666666667,0.8233333333333333,0.37333333333333335,-1.6199999999999999,-0.9666666666666667,0.17666666666666667
1900-01-01 13:29:40.500,16.772770884678618,0.960742,0.1771586,0.1580049,56.455999999999996,24.32,-97.512,0.404,0.82,0.364,-1.332,0.562,-0.39999999999999997
1900-01-01 13:29:40.800,17.413147133422765,1.142924,0.182458,0.2031784,56.653333333333336,23.973333333333333,-97.91000000000001,0.39999999999999997,0.8233333333333333,0.3633333333333333,-2.783333333333333,-0.043333333333333356,0.5733333333333334
1900-01-01 13:29:41.100,15.1417462190061,1.1619072727272728,0.14523818181818182,0.2092109090909091,53.914,26.032,-96.252,0.42800000000000005,0.794,0.386,-3.5380000000000003,1.008,2.822
1900-01-01 13:29:41.400,14.809133462171433,1.0412061,0.1421945,0.16714916,53.82,25.536666666666665,-95.34666666666668,0.42333333333333334,0.7966666666666667,0.39999999999999997,-1.36,3.9500000000000006,1.7166666666666668
1900-01-01 13:29:41.700,14.043051561281526,0.5406120999999999,0.061441035,0.05355315000000001,52.52,26.66,-94.4125,0.44,0.7775000000000001,0.40249999999999997,-1.88,4.8775,1.2475
1900-01-01 13:29:42.000,14.108741902399276,-0.21134874444444446,-0.16172307777777778,-0.016967799999999998,51.7175,25.8425,-93.68,0.4275,0.77,0.4325,-0.5125,7.5649999999999995,1.3425
1900-01-01 13:29:42.300,15.08683876144635,-0.8298845454545455,-0.2876917272727273,-0.01370376909090909,51.6125,24.8375,-92.6675,0.41,0.765,0.445,0.595,4.7225,1.205
1900-01-01 13:29:42.600,14.100423155054175,-0.9694163636363636,-0.32941254545454546,-0.013110327272727273,52.015,25.19,-92.9125,0.4175,0.77,0.435,-1.47,0.6549999999999999,-1.4249999999999998
1900-01-01 13:29:42.900,14.245513359583349,-0.9292505999999999,-0.3249104,3.73026999999998e-05,52.22,24.965,-93.5975,0.41250000000000003,0.77,0.4325,-1.685,0.6699999999999999,0.21749999999999997
1900-01-01 13:29:43.200,14.142119594705475,-0.9268694545454547,-0.28950827272727275,0.015312909090909089,52.7925,24.795,-93.495,0.41000000000000003,0.7775000000000001,0.425,1.755,2.9325,-0.635
1900-01-01 13:29:43.500,14.440496294075626,-0.9400823,-0.27725900000000003,0.02201814,53.6725,24.715,-93.2625,0.41,0.79,0.415,-9.06,-2.4525,8.135
1900-01-01 13:29:43.800,2.468896273237074,-1.0202091818181818,-0.1991557272727273,0.08441047272727273,40.9625,33.582499999999996,-85.7675,0.5425,0.6425000000000001,0.5025,-3.4849999999999994,2.0975,5.2725
1900-01-01 13:29:44.100,3.7759451995131066,-1.0155627272727272,-0.16733363636363638,0.09583214545454545,45.01,31.856666666666666,-85.81333333333333,0.5233333333333333,0.7033333333333333,0.4633333333333334,3.09,0.42333333333333334,-1.3833333333333335
1900-01-01 13:29:44.400,4.575357033996657,-0.9757066363636363,-0.14858363636363636,0.06722573636363637,46.575,30.9425,-86.72,0.5025,0.7075,0.445,-0.5349999999999999,-1.4124999999999999,-1.675
1900-01-01 13:29:44.700,2.9109842671113366,-0.893127,-0.136188,0.025998959999999998,45.085,32.9075,-87.345,0.54,0.7025,0.445,-2.9925,1.0925,-0.875
1900-01-01 13:29:45.000,5.42541811071813,-0.8347228181818181,-0.20308563636363636,0.03070293636363636,45.218,31.188,-88.174,0.51,0.7,0.47000000000000003,-2.556,2.354,0.14600000000000005
1900-01-01 13:29:45.300,5.613419253642292,-0.8865080000000001,-0.25476519999999997,0.054349959999999996,45.66,31.1025,-87.8825,0.5075000000000001,0.7024999999999999,0.45999999999999996,-2.0075,0.335,-0.07499999999999998
1900-01-01 13:29:45.600,4.3749710384595035,-0.8691585454545454,-0.2366028181818182,0.04231202727272727,44.39333333333334,31.606666666666666,-87.95,0.5133333333333333,0.6833333333333332,0.4766666666666666,-0.8833333333333333,1.53,-0.7400000000000001
1900-01-01 13:29:45.900,6.47766743323908,-0.8541112999999999,-0.2357839,0.041801939999999996,47.2825,29.68,-88.965,0.4875,0.72,0.455,4.5525,5.2275,-4.6375
1900-01-01 13:29:46.200,10.965213053487625,-0.4875922727272728,-0.3188473636363636,0.11684791818181818,50.2425,26.2325,-93.2525,0.4325,0.76,0.4525,-2.9050000000000002,-0.795,-8.6425
1900-01-01 13:29:46.500,14.4575295694401,0.35017818,-0.2595844,0.2081791,52.9375,23.3825,-97.4,0.39,0.78,0.4425,-1.1300000000000001,-3.7224999999999997,-3.525
1900-01-01 13:29:46.800,14.612932103426475,0.8817937272727273,-0.011957724545454546,0.191228,53.28,24.405,-98.21000000000001,0.40249999999999997,0.785,0.425,-2.8449999999999998,-2.3225,1.97
1900-01-01 13:29:47.100,13.370119389730334,0.9073397272727273,0.010355334545454547,0.15009254545454545,52.24666666666667,26.066666666666666,-97.52666666666666,0.43,0.7733333333333334,0.42,-0.6266666666666666,1.7966666666666666,-0.29333333333333333
1900-01-01 13:29:47.400,13.330532546626362,0.8725761000000001,-0.015514350000000001,0.1169277,52.436,26.080000000000002,-97.65,0.43200000000000005,0.778,0.414,-0.6559999999999999,1.41,0.23199999999999998
1900-01-01 13:29:47.700,13.894669276962766,0.8517702999999999,-0.03318981,0.10444298,52.93666666666667,25.570000000000004,-97.53666666666668,0.42,0.7799999999999999,0.41,-1.18,1.86,-0.20333333333333334
1900-01-01 13:29:48.000,14.19688825947432,0.8336538181818182,-0.09811143636363638,0.07884662727272727,53.038,25.318,-97.59400000000001,0.418,0.786,0.41600000000000004,-1.096,1.77,0.32999999999999996
1900-01-01 13:29:48.300,14.539546749946533,0.779194,-0.1553936,0.0979719,52.4,25.516666666666666,-97.03333333333335,0.42,0.77,0.42,-3.36,1.843333333333333,1.7533333333333332
1900-01-01 13:29:48.600,15.340531702603899,0.500838,-0.23333330000000002,0.07620698000000001,52.83,25.1125,-96.7225,0.4175,0.78,0.42,2.2225,7.6525,0.515
1900-01-01 13:29:48.900,16.553554084066583,-0.2021256909090909,-0.3504930909090909,0.057639027272727274,54.629999999999995,24.192,-95.096,0.404,0.806,0.404,2.6399999999999997,5.886,4.42
1900-01-01 13:29:49.200,12.820568659501351,-0.8008246,-0.31390789999999996,0.042686999999999996,53.1975,26.447499999999998,-92.075,0.4425,0.79,0.395,2.17,3.76,3.6375
1900-01-01 13:29:49.500,9.654824554021204,-1.1993981818181818,-0.2386200909090909,0.046315609090909086,52.14333333333334,28.456666666666667,-90.54333333333334,0.4633333333333334,0.7733333333333334,0.37666666666666665,0.9833333333333333,-1.22,1.14
1900-01-01 13:29:49.800,8.997597207716405,-1.270932,-0.1852123,0.061777280000000004,53.135,28.6425,-90.2375,0.4725,0.7875000000000001,0.3525,-0.5825,0.16250000000000003,0.655
1900-01-01 13:29:50.100,7.7139751947357205,-1.3158463636363635,-0.14204463636363637,0.0982326090909091,53.05,29.2,-89.8825,0.485,0.7925,0.3475,-0.7625,0.91,0.435
1900-01-01 13:29:50.400,7.52840383880276,-1.3410009090909092,-0.07400616363636364,0.13236527272727272,53.0225,29.490000000000002,-89.68,0.485,0.79,0.345,-1.315,0.375,0.3375
1900-01-01 13:29:50.700,6.93144465767362,-1.329078,-0.0252562,0.1571113,52.6075,29.8625,-89.8175,0.4925,0.7825,0.3425,-1.6575,0.6875,-0.5925
1900-01-01 13:29:51.000,7.32067440006025,-1.31678,-0.002153386818181818,0.16389618181818183,52.519999999999996,29.3975,-89.9925,0.4825,0.7825,0.355,-2.7125000000000004,1.1475,0.07500000000000001
1900-01-01 13:29:51.300,6.852608106299705,-1.3036927272727274,0.0153057,0.15532545454545454,51.7375,30.072499999999998,-89.9375,0.495,0.775,0.3575,-2.115,0.34249999999999997,0.3
1900-01-01 13:29:51.600,5.7748152826588495,-1.2867099999999998,0.03223683,0.14347490000000002,51.065,30.78,-89.605,0.5075000000000001,0.77,0.36,-1.55,1.345,0.1225
1900-01-01 13:29:51.900,8.121126436055732,-1.2507654545454545,-0.03788086272727273,0.1069721,52.3725,28.87,-91.505,0.47750000000000004,0.78,0.365,-2.3850000000000002,3.3225,-7.0275
1900-01-01 13:29:52.200,13.454039036775225,-1.058125,-0.3611055454545455,0.025675136363636365,54.3925,25.1125,-95.03999999999999,0.4125,0.795,0.3925,-2.36,0.9375,-3.425
1900-01-01 13:29:52.500,15.35240472359005,-0.779569,-0.5922946363636363,0.02948579090909091,55.7875,23.365000000000002,-96.8025,0.39,0.8125,0.39,-1.3825,1.2025,-2.4375
1900-01-01 13:29:52.800,16.874117662960476,-0.5330398181818182,-0.7699141818181818,0.05237962727272727,56.595,21.84,-98.62,0.365,0.815,0.3975,-2.2,0.8625,-3.3825000000000003
1900-01-01 13:29:53.100,19.537013651013535,-0.27421670000000004,-0.8796415,0.082662,57.92333333333334,19.5,-100.31,0.33,0.8333333333333334,0.4066666666666667,-4.823333333333333,0.029999999999999954,-2.7533333333333334
1900-01-01 13:29:53.400,15.900595529297501,0.1686075366666667,-0.7979961666666666,0.08727449999999999,52.575,21.67,-100.485,0.365,0.78,0.4725,-9.97,-3.4525,0.6200000000000001
1900-01-01 13:29:53.700,16.971974842646375,0.6874634000000001,-0.5968047000000001,0.06512952,52.0775,21.66,-101.6725,0.36,0.7725,0.4775,-2.68,-0.5975,-3.06
1900-01-01 13:29:54.000,19.199901312672324,0.9366307272727272,-0.48905609090909086,0.06286026363636364,53.15,20.2325,-103.09,0.3375,0.78,0.475,0.16749999999999998,1.99,-0.92
1900-01-01 13:29:54.300,19.847930347558673,0.967436,-0.499022,0.06114928181818182,53.885,19.9225,-103.5125,0.335,0.79,0.46749999999999997,-0.1925,2.03,-0.41
1900-01-01 13:29:54.600,20.31849433291455,0.971024,-0.5136354545454546,0.05837821818181818,54.34,19.6425,-103.7475,0.33,0.7925,0.46499999999999997,-0.505,1.57,-0.2275
1900-01-01 13:29:54.900,20.505820265857775,0.9731455999999999,-0.5222864,0.05675774,54.735,19.4675,-103.88,0.325,0.795,0.46,-0.53,1.3125,0.14250000000000002
1900-01-01 13:29:55.200,18.386969113846174,0.9707454,-0.5048974,0.061030589999999996,54.870000000000005,20.8975,-103.1175,0.34750000000000003,0.7975000000000001,0.4375,1.8825,-0.63,2.7875
1900-01-01 13:29:55.500,16.913011463488633,0.9825959090909091,-0.4295872727272727,0.08963042727272728,55.586666666666666,21.796666666666667,-102.02333333333333,0.3633333333333333,0.81,0.4166666666666667,0.32666666666666666,0.49,0.83
1900-01-01 13:29:55.800,16.13761978813946,0.9818421,-0.3591994,0.10433493,55.548,22.608,-101.498,0.376,0.804,0.40800000000000003,-0.26,0.466,3.336
1900-01-01 13:29:56.100,10.47020074906918,0.7787591818181817,-0.10865840909090908,0.07646757272727273,51.85,27.326666666666668,-98.16666666666667,0.45,0.7733333333333334,0.4066666666666667,-1.8666666666666665,-0.9199999999999999,7.536666666666666
1900-01-01 13:29:56.400,8.953330774646163,0.6700115454545454,0.19557103636363635,0.11343209090909091,51.75,28.6575,-96.1125,0.47,0.7725,0.3825,-1.3925,-1.6425,-0.46499999999999997
1900-01-01 13:29:56.700,7.19748486004601,0.8060507272727272,0.4345635454545454,0.13723381818181818,50.8475,30.345,-96.16,0.495,0.765,0.37,-2.3575,-1.96,-0.91
1900-01-01 13:29:57.000,8.926844125385907,1.0237794,0.5360324000000001,0.1288337,52.125,29.4025,-97.08500000000001,0.4825,0.78,0.365,-0.39,0.1525,-0.9550000000000001
1900-01-01 13:29:57.300,8.550019885271597,1.1283727272727273,0.5493355454545454,0.13150336363636364,52.175,29.544999999999998,-97.31,0.4925,0.7875000000000001,0.3625,-1.6325,1.9224999999999999,0.38
1900-01-01 13:29:57.600,8.754556075784258,1.135145,0.5122561,0.12426090000000001,50.7725,30.0975,-96.1225,0.4925,0.7625,0.3775,-4.5225,2.2525,2.46
1900-01-01 13:29:57.900,8.797410203162638,1.0615393636363637,0.48182172727272726,0.10312723636363637,50.495,29.802500000000002,-95.5925,0.49,0.7575000000000001,0.395,-0.07,2.9325,1.4075000000000002
1900-01-01 13:29:58.200,7.400752650706175,0.6198243,0.41487189999999996,0.04792759,49.504999999999995,31.0925,-94.2475,0.5075000000000001,0.7475,0.3875,1.44,6.715,3.2375
1900-01-01 13:29:58.500,7.684110845694669,0.07203509500000001,0.3804487,0.0518902,50.656666666666666,30.626666666666665,-92.42666666666666,0.5033333333333333,0.7666666666666666,0.37333333333333335,6.506666666666667,5.04,2.793333333333333
1900-01-01 13:29:58.800,5.837928845187038,-0.22572872727272728,0.4584150909090909,0.05054023636363636,51.26800000000001,31.689999999999998,-91.118,0.518,0.774,0.33399999999999996,4.228,2.852,1.262
1900-01-01 13:29:59.100,6.65790272569168,-0.338367,0.4789769,0.0533096,53.4725,30.8625,-90.9275,0.51,0.8,0.3,-0.9650000000000001,0.2,-0.28250000000000003
1900-01-01 13:29:59.400,5.194705141141437,-0.3372210909090909,0.5153584545454546,0.06716872727272727,52.3625,31.97,-90.8125,0.5275000000000001,0.79,0.3025,-4.9425,-0.69,0.7325
1900-01-01 13:29:59.700,5.343845690246642,-0.327987,0.5404935999999999,0.06940310000000001,50.8875,32.4,-90.455,0.5275000000000001,0.76,0.3275,-3.04,1.25,-0.21499999999999997
1900-01-01 13:30:00.000,4.565851350674543,-0.33252550000000003,0.5463214,0.0700021,50.580000000000005,32.57,-90.68,0.5333333333333333,0.77,0.33666666666666667,0.1366666666666667,1.2566666666666668,-0.04
1900-01-01 13:30:00.300,4.576439308935159,-0.38012218181818186,0.5409654545454545,0.04927552272727273,51.49,32.5175,-91.23,0.525,0.77,0.31,1.9849999999999999,2.6475,-0.10250000000000004
1900-01-01 13:30:00.600,4.145595070284067,-0.733253090909091,0.5003373636363636,-0.0038100354545454545,51.0875,33.085,-90.4575,0.535,0.765,0.3025,-3.4825,2.12,2.315
1900-01-01 13:30:00.900,2.6637858607909672,-1.0967405,0.4619123,0.06457813999999999,49.2775,33.9475,-88.75,0.545,0.7375,0.3275,1.9975,0.32499999999999996,5.3875
1900-01-01 13:30:01.200,-5.44427120445942,-1.3734439999999999,0.6735276,0.15288092,47.135,38.6425,-84.6925,0.6325000000000001,0.7424999999999999,0.275,1.465,-0.8875000000000001,4.835
1900-01-01 13:30:01.500,-6.807809573025823,-1.5830650000000002,0.9289554999999999,0.26488075,46.39,39.58,-83.0675,0.635,0.7224999999999999,0.26,-0.7625,1.8125,0.64
1900-01-01 13:30:01.800,-5.765827372712493,-1.6492740000000001,1.0181722,0.2847233,46.905,39.1425,-83.35,0.63,0.7275,0.26,-0.2075,2.31,-1.5375
1900-01-01 13:30:02.100,-4.344552586581576,-1.6119245454545454,1.105980909090909,0.2859892727272727,47.903333333333336,38.21,-84.02,0.62,0.7399999999999999,0.25666666666666665,-0.7333333333333334,0.3466666666666667,-0.8866666666666667
1900-01-01 13:30:02.400,-3.0118696860017744,-1.5057109090909089,1.215958181818182,0.29130236363636364,48.524,37.784000000000006,-84.768,0.61,0.748,0.248,-1.238,0.672,-1.416
1900-01-01 13:30:02.700,-2.169054521135275,-1.4301354545454545,1.2457636363636364,0.29165454545454544,48.8975,37.3475,-85.6225,0.6025,0.7475,0.2475,-1.6225,0.8325,-0.4875
1900-01-01 13:30:03.000,-1.952262494661475,-1.37734,1.249221,0.2889358,49.165,37.14,-85.93,0.6025,0.755,0.25,-1.045,1.1975,-0.53
1900-01-01 13:30:03.300,-1.5334677759782203,-1.2980572727272728,1.2752127272727274,0.27338718181818183,49.515,36.942499999999995,-86.2225,0.6,0.76,0.245,-1.12,-0.21249999999999997,-0.24
1900-01-01 13:30:03.600,-1.228724185798352,-1.1627954545454544,1.3478054545454545,0.25323690909090907,49.485,37.2575,-86.4875,0.5974999999999999,0.7525,0.23249999999999998,-1.1600000000000001,0.35,-0.28750000000000003
1900-01-01 13:30:03.900,-0.98683941380098,-1.059808181818182,1.4207545454545454,0.24275454545454547,49.71,37.166666666666664,-86.57666666666667,0.6033333333333334,0.7600000000000001,0.23,-1.16,0.68,-0.12666666666666668
1900-01-01 13:30:04.200,-1.0916195412262408,-0.9780637272727273,1.4766536363636362,0.22686072727272724,49.480000000000004,37.3525,-86.66,0.6074999999999999,0.76,0.2325,-1.4975,0.6475,-0.039999999999999994
1900-01-01 13:30:04.500,-0.97600288315456,-0.9466857,1.4997639999999999,0.2226117,49.565,37.42,-86.75,0.605,0.76,0.225,-1.105,1.375,-0.165
1900-01-01 13:30:04.800,-0.873676901644123,-0.945165,1.5007,0.223055,49.755,37.24,-86.89750000000001,0.6025,0.76,0.225,-0.9675,1.4925000000000002,-0.1575
1900-01-01 13:30:05.100,-0.6781384902168388,-0.945004,1.50009,0.22263333333333332,49.9125,37.085,-87.0,0.6,0.76,0.2225,-1.0899999999999999,1.47,-0.05
1900-01-01 13:30:05.400,-0.8224886701997703,-0.9448887272727272,1.4871936363636364,0.21285772727272728,49.98666666666667,37.056666666666665,-87.06333333333333,0.6,0.7633333333333333,0.22333333333333336,-0.6833333333333332,1.8933333333333333,-0.12333333333333334
1900-01-01 13:30:05.700,-0.3072880478794202,-0.9493723000000001,1.473748,0.2015088,50.444,36.676,-87.23400000000001,0.596,0.768,0.22200000000000003,-0.9640000000000001,1.386,-0.18
1900-01-01 13:30:06.000,-0.03948075539818301,-0.9463019999999999,1.4621699999999997,0.19360266666666667,50.67,36.480000000000004,-87.36,0.5925,0.7725,0.22,-1.3125,1.2275,-0.145
1900-01-01 13:30:06.300,-0.2518642433578145,-0.9452588181818182,1.458239090909091,0.19092727272727272,50.49,36.625,-87.4125,0.595,0.7675000000000001,0.22,-1.265,1.2525,0.039999999999999994
1900-01-01 13:30:06.600,-0.29849953936200435,-0.945081,1.4575699999999998,0.190472,50.53,36.64,-87.4625,0.595,0.7675000000000001,0.2175,-1.25,1.2725,-0.0425
1900-01-01 13:30:06.900,-0.20493586280351023,-0.9471732727272727,1.4537890909090907,0.187094,50.485,36.6475,-87.5275,0.5925,0.7675000000000001,0.22,-0.7475,1.4525000000000001,-0.0925
1900-01-01 13:30:07.200,0.00271296342869215,-0.9489962000000001,1.44666,0.1812948,50.875,36.4175,-87.5925,0.59,0.7725,0.215,-0.98,1.1725,0.055
1900-01-01 13:30:07.500,-0.7460006133540457,-0.9541706363636364,1.4474736363636365,0.1805561818181818,50.51666666666667,36.803333333333335,-87.48333333333333,0.5966666666666667,0.7666666666666666,0.21,-0.84,1.3133333333333332,0.6233333333333334
1900-01-01 13:30:07.800,-0.5727887323195048,-0.944423,1.4356281818181817,0.17434472727272726,50.6375,36.662499999999994,-87.4225,0.5925,0.77,0.21,-1.8025,0.7975,-0.8725
1900-01-01 13:30:08.100,0.5686261587667998,-0.8414241,1.3728310000000001,0.15622149999999999,51.629999999999995,35.739999999999995,-88.256,0.582,0.782,0.20800000000000002,-1.522,0.8780000000000001,-0.898
1900-01-01 13:30:08.400,1.0976860802296178,-0.7811498181818183,1.322259090909091,0.1370460909090909,52.01666666666667,35.306666666666665,-88.76333333333334,0.5766666666666667,0.7833333333333333,0.21,-1.2366666666666666,0.7433333333333333,-1.6300000000000001
1900-01-01 13:30:08.700,2.812415031300922,-0.6479353,1.177086,0.07713345,53.292500000000004,34.165,-90.34,0.5575,0.795,0.2025,-2.1025,-0.27249999999999996,-3.585
1900-01-01 13:30:09.000,5.537318227278325,-0.49805454545454547,0.9504453636363636,-0.02063241109090909,54.9875,32.1725,-92.5125,0.5275000000000001,0.8125,0.21,-2.81,1.6225,-4.0175
1900-01-01 13:30:09.300,9.213035408905714,-0.32549900000000004,0.6858657,-0.10005537,56.8975,29.28,-95.6,0.48,0.8225,0.24,-5.234999999999999,1.6400000000000001,-5.835
1900-01-01 13:30:09.600,13.21173068717385,-0.06209367363636364,0.3709042727272727,-0.11903336363636363,59.0475,26.095,-98.8,0.4325,0.8425,0.2625,-3.115,1.7475,-4.3025
1900-01-01 13:30:09.900,15.947907407364227,0.12360046363636364,-0.010641754545454548,-0.12156972727272727,60.3775,23.6075,-101.2425,0.395,0.8574999999999999,0.2875,-3.21,2.44,-3.2875
1900-01-01 13:30:10.200,17.85034478538065,0.14092596363636364,-0.3913122727272727,-0.11017736363636364,61.25,21.28,-103.04,0.3525,0.855,0.3075,-4.5875,4.37,-1.99
1900-01-01 13:30:10.500,18.05153869781945,-0.06859135454545455,-0.8691080909090908,-0.06512585454545455,60.0125,19.77,-104.06,0.33,0.8475,0.3575,-5.2925,4.9350000000000005,-1.6525
1900-01-01 13:30:10.800,18.93757859398945,-0.3092092,-1.408069,-0.03133591,59.1125,18.2225,-105.2175,0.305,0.84,0.4,-3.92,4.9025,-1.63
1900-01-01 13:30:11.100,20.5123003153513,-0.4767518181818182,-1.83412,0.012335080545454546,58.76666666666667,15.450000000000001,-106.30666666666667,0.26333333333333336,0.84,0.4366666666666667,-4.693333333333333,5.196666666666666,-3.3366666666666664
1900-01-01 13:30:11.400,23.071714551887624,-0.5346788181818182,-2.1538,0.05076928181818181,57.4,13.3225,-108.14500000000001,0.2225,0.8175,0.47,-6.3225,5.5175,-3.7725
1900-01-01 13:30:11.700,25.993569475112174,-0.5339115454545454,-2.415841818181818,0.042984972727272724,56.4225,10.355,-110.16,0.17250000000000001,0.8075000000000001,0.5075000000000001,-1.6324999999999998,2.645,-0.8825000000000001
1900-01-01 13:30:12.000,25.5586054925706,-0.532061,-2.46351,0.0415811,56.695,10.555,-110.1525,0.175,0.81,0.5025,-0.255,1.1,0.705
1900-01-01 13:30:12.300,25.109684618280227,-0.53154825,-2.464968333333333,0.04171456666666667,56.99,10.66,-109.8375,0.18,0.81,0.4975,-0.9175,1.265,0.475
1900-01-01 13:30:12.600,23.66776855649295,-0.5930153636363636,-2.4593654545454546,0.03682887272727273,57.105,11.4825,-109.2825,0.19,0.81,0.485,0.2849999999999999,1.715,3.7275
1900-01-01 13:30:12.900,21.032914370999226,-0.8956347000000001,-2.3291709999999997,-0.00011584199999999994,58.465,14.3275,-105.755,0.2425,0.84,0.45,3.1125,2.245,6.6075
1900-01-01 13:30:13.200,17.344618733048375,-1.2664454545454547,-1.9891181818181816,0.0011516573636363636,58.35,18.05,-102.11500000000001,0.3025,0.8325,0.415,3.2375,0.065,6.575
1900-01-01 13:30:13.500,12.291032750778857,-1.5612819999999998,-1.4686270000000001,0.0232389457,57.9775,22.4875,-97.8225,0.3725,0.8274999999999999,0.35750000000000004,3.4699999999999998,-3.0575,6.2325
1900-01-01 13:30:13.800,9.254951775118256,-1.61457,-1.0474884,0.02889117,57.754999999999995,25.28,-95.315,0.4225,0.8325,0.3175,-0.625,-1.9175,1.8875000000000002
1900-01-01 13:30:14.100,6.166741613629595,-1.5150718181818184,-0.675141,0.05189716363636363,55.585,28.1675,-93.535,0.4625,0.8125,0.3075,-1.91,-2.21,4.3275
1900-01-01 13:30:14.400,4.5310887385222465,-1.296350909090909,-0.23008756363636362,0.06315174545454545,54.67333333333334,29.74,-91.96,0.49,0.8066666666666666,0.2933333333333333,-2.08,-2.983333333333333,0.14333333333333334
1900-01-01 13:30:14.700,4.637393883052102,-0.9429460000000001,0.038125563,0.0399691,54.705,30.197499999999998,-92.425,0.495,0.805,0.28250000000000003,-1.7850000000000001,-1.925,-2.415
1900-01-01 13:30:15.000,7.558385322892089,-0.5103476666666666,0.13670377777777779,0.041007800000000004,56.712500000000006,28.6125,-95.4425,0.475,0.825,0.2625,-3.29,-3.625,-6.9425
1900-01-01 13:30:15.300,10.281001576916628,-0.6292348839765851,-0.01418740712893736,0.08913260547051456,58.1125,26.63,-98.19749999999999,0.4425,0.8374999999999999,0.27749999999999997,-1.6549999999999998,-1.0925,-1.535
1900-01-01 13:30:15.600,10.773422448231102,-0.6292348839765851,-0.01418740712893736,0.08913260547051456,59.0225,26.13,-99.055,0.4375,0.8474999999999999,0.2625,-1.2650000000000001,-1.5375,-2.0125
1900-01-01 13:30:15.900,14.095766531970474,1.3116432,0.3545524,0.34466571999999995,61.722500000000004,23.925,-100.9625,0.395,0.8625,0.24,-0.6475,-2.485,-2.8
1900-01-01 13:30:16.200,14.807947145418876,1.694398181818182,0.35681263636363636,0.2147910909090909,61.545,24.95,-101.6125,0.415,0.8674999999999999,0.2175,1.4324999999999999,3.1025,0.565
1900-01-01 13:30:16.500,15.340246565002374,1.377559090909091,0.26683972727272726,0.09576001818181817,61.9125,24.435000000000002,-101.0675,0.41,0.875,0.22,-3.045,3.83,1.19
1900-01-01 13:30:16.800,13.6558752987942,0.8634411818181817,0.10867693636363636,0.030910063636363637,58.6725,25.685000000000002,-100.08250000000001,0.43,0.8425,0.28500000000000003,-9.2375,-0.06250000000000003,3.8449999999999998
1900-01-01 13:30:17.100,11.913385895638225,0.6506864,0.09157765,0.011579981999999999,54.805,27.39,-98.4725,0.445,0.79,0.3375,-5.2925,5.119999999999999,-0.09749999999999999
1900-01-01 13:30:17.400,13.48174892772155,0.5754834,0.025247498,0.007914187999999999,54.8075,26.555,-98.6225,0.4425,0.8075000000000001,0.3575,-1.5875,2.42,-0.885
1900-01-01 13:30:17.700,14.134535591752774,0.6442401818181819,-0.019317324545454543,0.03102713818181818,55.2175,25.645,-99.2525,0.4225,0.805,0.365,-2.2425,1.0275,-0.6525
1900-01-01 13:30:18.000,13.719803908015026,0.6978859,-0.09544941,0.029004659999999998,54.74,25.6575,-99.63749999999999,0.4275,0.8025,0.375,-2.5075000000000003,1.665,-0.6074999999999999
1900-01-01 13:30:18.300,13.744892482246934,0.7166090909090909,-0.17394345454545454,0.01642691818181818,54.88666666666666,25.403333333333336,-99.83333333333333,0.42333333333333334,0.81,0.38000000000000006,-1.99,2.8066666666666666,0.21333333333333335
1900-01-01 13:30:18.600,13.44521208083395,0.6987916000000001,-0.2081169,0.033327260000000004,53.9025,25.78,-99.195,0.425,0.7875000000000001,0.39,-1.8125,1.1225,1.5275
1900-01-01 13:30:18.900,14.402045826516074,0.522055909090909,-0.1932659090909091,0.021732755454545453,54.88,25.1075,-98.8375,0.4175,0.805,0.3825,-0.25,3.01,1.28
1900-01-01 13:30:19.200,11.73730638166685,-0.1626080956,-0.057707949999999994,0.07172625,52.8625,27.72,-97.21,0.44999999999999996,0.77,0.3725,5.5375,3.4075,6.8325
1900-01-01 13:30:19.500,6.691850785673992,-0.6958829090909091,0.3144277272727273,0.13426427272727273,52.935,30.965,-92.435,0.515,0.7975,0.3125,4.5975,0.6725,4.725
1900-01-01 13:30:19.800,5.0851548663550075,-0.8761852000000001,0.5056784000000001,0.17881260000000002,52.845,32.215,-91.1375,0.53,0.79,0.2825,-0.9500000000000001,1.1475,0.42500000000000004
1900-01-01 13:30:20.100,3.58089879910451,-0.9735475454545455,0.6212552727272728,0.21651772727272728,52.0,32.89333333333334,-90.85000000000001,0.5366666666666667,0.7733333333333334,0.2866666666666667,-1.4566666666666663,1.1666666666666667,0.5
1900-01-01 13:30:20.400,2.936773295304906,-1.0325436363636362,0.689589,0.223142,51.727999999999994,33.31,-90.61,0.544,0.78,0.284,-0.5279999999999999,1.022,0.392
1900-01-01 13:30:20.700,3.1387101250094,-1.0626945454545453,0.7299666363636365,0.21201954545454546,52.1875,32.815,-90.515,0.54,0.7875000000000001,0.28500000000000003,-3.1375,1.355,-0.44499999999999995
1900-01-01 13:30:21.000,5.508964084094417,-1.0891579999999998,0.7886854,0.1718788,51.355,32.4,-91.01,0.52,0.76,0.31,-2.9124999999999996,1.6675,-0.5349999999999999
1900-01-01 13:30:21.300,4.46767074299243,-1.11085,0.8040866,0.14755859999999998,51.375,32.614999999999995,-91.1875,0.535,0.775,0.31,-0.5499999999999999,1.6475,-0.5825
1900-01-01 13:30:21.600,6.413832732891548,-1.1417863636363637,0.8147445454545454,0.120086,52.61,31.515,-91.9,0.52,0.7875000000000001,0.3075,0.28500000000000003,2.925,-1.0625
1900-01-01 13:30:21.900,6.824123346577074,-1.1801545454545455,0.8235103636363637,0.11552718181818182,52.88333333333333,31.183333333333334,-92.27,0.51,0.79,0.30666666666666664,-1.2433333333333332,1.3133333333333335,0.10333333333333335
1900-01-01 13:30:22.200,7.568034322536822,-1.1327918181818182,0.7675817272727272,0.09331425454545456,53.116,30.354000000000003,-92.886,0.496,0.788,0.32,-2.768,2.902,-3.524
1900-01-01 13:30:22.500,14.724497288248033,-0.8089492,0.4522062,0.004179098,57.54,25.336666666666662,-96.49666666666667,0.42333333333333334,0.8333333333333334,0.32,-3.9866666666666664,3.0533333333333332,-7.383333333333333
1900-01-01 13:30:22.800,16.604082240437698,-0.26814524545454543,0.06045514181818182,-0.0011273627272727275,56.26,23.552500000000002,-99.01,0.39,0.8075,0.3725,-7.1075,0.09750000000000003,-1.57
1900-01-01 13:30:23.100,15.478818410547,-0.08714885,-0.07148373999999999,0.0031656877999999998,54.545,23.68,-98.9275,0.3925,0.8,0.4075,-4.077500000000001,-1.9124999999999999,3.6574999999999998
1900-01-01 13:30:23.400,11.465464788004175,-0.07050583636363637,-0.0565147,-0.0019471217272727275,52.3075,26.810000000000002,-97.285,0.4475,0.7825,0.405,-0.81,1.9575,-1.2525
1900-01-01 13:30:23.700,14.024606379191725,-0.03270482727272727,-0.12089451818181818,-0.006750642145454546,54.7475,25.1025,-98.9225,0.41500000000000004,0.8,0.3825,0.9499999999999998,1.0725,-3.13
1900-01-01 13:30:24.000,15.8190987443514,0.019669286,-0.2762422,-0.004039415,56.1425,23.43,-100.2175,0.39,0.8175,0.3825,-0.965,1.975,-0.41000000000000003
1900-01-01 13:30:24.300,15.090773680667224,0.019830161818181816,-0.28636036363636364,-0.0055626163636363635,55.9925,23.8925,-99.9625,0.4,0.8225,0.3825,-0.795,0.38,1.2025
1900-01-01 13:30:24.600,15.390387210693826,-0.19907144545454544,-0.28355790909090905,-0.043505445454545454,56.92,24.4975,-99.4475,0.4,0.8125,0.3425,3.6225,3.9825,0.6375
1900-01-01 13:30:24.900,18.31377757385285,-0.7487816363636365,-0.3298801818181818,-0.04215953636363637,60.79,22.41,-99.5325,0.375,0.8574999999999999,0.2975,9.675,11.935,-1.7175
1900-01-01 13:30:25.200,20.883849389406052,-1.361003,-0.365616,-0.02782139,63.8775,20.1625,-99.985,0.3375,0.8875,0.2675,2.175,7.4975,1.7349999999999999
1900-01-01 13:30:25.500,23.5022025195213,-1.8770709090909092,-0.3411894545454546,-0.03232350909090909,65.5975,18.957500000000003,-99.69,0.315,0.8875,0.2475,6.6875,12.0925,-1.9725000000000001
1900-01-01 13:30:25.800,25.312918144662977,-2.3069545454545453,-0.3248848181818182,-0.01759552727272727,68.4675,17.1275,-100.5325,0.2925,0.9175,0.2175,1.6475,4.1825,-0.02500000000000001
1900-01-01 13:30:26.100,25.413665629561425,-2.4631354545454545,-0.3020947272727273,-0.015630436363636365,68.6125,17.259999999999998,-100.4725,0.2925,0.9075,0.2075,-1.755,1.4125,0.2525
1900-01-01 13:30:26.400,25.739017459575667,-2.486172,-0.29432230000000004,-0.013167499999999999,68.63333333333334,17.176666666666666,-100.35666666666667,0.29,0.9133333333333334,0.21,-1.4466666666666665,0.8700000000000001,0.29333333333333333
1900-01-01 13:30:26.700,25.16600701004345,-2.5109781818181816,-0.24458163636363636,0.007533264545454546,68.39,17.7575,-100.36,0.3,0.915,0.2025,-1.6724999999999999,-1.6575,0.2025
1900-01-01 13:30:27.000,23.630172955432876,-2.544944545454545,-0.12736067272727272,0.05718125454545455,67.975,18.39,-100.1725,0.3125,0.915,0.2,-1.505,-0.775,0.20750000000000002
1900-01-01 13:30:27.300,23.266390283409677,-2.553623,-0.022249156,0.10360306,67.78,18.5825,-100.0425,0.3125,0.91,0.2,-1.4975,-0.225,0.035
1900-01-01 13:30:27.600,22.457798616993475,-2.5450227272727273,0.021315027272727275,0.11551745454545453,67.405,19.15,-100.06,0.3225,0.9075,0.1975,-1.8475000000000001,0.13499999999999998,0.29
1900-01-01 13:30:27.900,21.694765106298025,-2.5387329999999997,0.04060064,0.11210710000000002,66.85,19.54,-99.8025,0.3275,0.9025000000000001,0.2025,-2.1125,0.635,0.67
1900-01-01 13:30:28.200,21.471878787615623,-2.536034,0.038921090000000005,0.10907229999999998,66.745,19.6425,-99.5675,0.33,0.905,0.2025,-1.355,1.4100000000000001,0.16499999999999998
1900-01-01 13:30:28.500,21.2985922330855,-2.531793,0.02557643,0.10293719999999999,66.66,19.7225,-99.515,0.33,0.9025000000000001,0.2025,-1.2575,1.2425,0.07
1900-01-01 13:30:28.800,21.0859768154829,-2.527732,0.012826146,0.09711334,66.56,19.8225,-99.44749999999999,0.335,0.9025000000000001,0.2,-1.1975,1.4775,0.2675
1900-01-01 13:30:29.100,21.091830652816725,-2.526095,0.007679793,0.09477175,66.6025,19.8125,-99.37,0.3325,0.905,0.2025,-1.03,1.2825,0.1725
1900-01-01 13:30:29.400,20.872028002257967,-2.52603,0.007473860000000001,0.0946782,66.52,20.006666666666664,-99.3,0.34,0.9033333333333333,0.20000000000000004,-1.1066666666666667,1.3033333333333335,0.17
1900-01-01 13:30:29.700,20.309718058253743,-2.5257,0.0064439250000000005,0.09421075,66.39200000000001,20.316,-99.06800000000001,0.34,0.9040000000000001,0.194,-0.188,1.684,0.798
1900-01-01 13:30:30.000,19.885278975118148,-2.51979,-0.009736340999999999,0.08616746,66.45,20.5925,-98.5425,0.3475,0.9075,0.19,-0.8075,2.06,0.3975
1900-01-01 13:30:30.300,19.84354781353025,-2.51406,-0.0242155,0.078534,66.2975,20.7175,-98.435,0.35,0.9025000000000001,0.1875,-1.595,1.2725,0.22250000000000003
1900-01-01 13:30:30.600,19.961946521064974,-2.514541818181818,-0.022711518181818182,0.07920627272727274,66.27250000000001,20.7,-98.3825,0.35,0.9,0.1875,-1.2575,1.4100000000000001,0.09749999999999999
1900-01-01 13:30:30.900,19.97374973372263,-2.5158519999999998,-0.0186329,0.08103102,66.26,20.653333333333332,-98.37,0.3499999999999999,0.9033333333333333,0.19000000000000003,-1.2633333333333334,1.42,-0.11
1900-01-01 13:30:31.200,20.208224590056876,-2.5198227272727274,-0.004696815181818182,0.08678710909090909,66.4,20.497500000000002,-98.53,0.345,0.9025000000000001,0.19,-1.2625,1.565,-0.15
1900-01-01 13:30:31.500,20.024475850082077,-2.5212745454545455,0.003961503090909091,0.08933649090909092,66.1325,20.7225,-98.56,0.3475,0.9025000000000001,0.1925,-1.5474999999999999,1.335,0.0325
1900-01-01 13:30:31.800,19.9566906166842,-2.52456,0.0142623,0.0940118,66.1425,20.6525,-98.6325,0.345,0.8975,0.195,-1.475,1.1275,-0.035
1900-01-01 13:30:32.100,19.460526798052275,-2.5112449999999997,0.04613104,0.08441155,66.215,20.8,-98.465,0.34750000000000003,0.9,0.1875,-0.7875,0.1375,0.585
1900-01-01 13:30:32.400,19.701867799179976,-2.4990127272727274,0.06979213636363636,0.07501582727272728,66.035,20.9725,-98.4125,0.355,0.905,0.19,-1.8050000000000002,1.5474999999999999,-0.33
1900-01-01 13:30:32.700,19.85002784171145,-2.5040554545454543,0.06898795454545455,0.07402742727272728,65.92,20.9525,-98.5075,0.35,0.8975,0.19,-0.06000000000000005,2.105,-0.027499999999999997
1900-01-01 13:30:33.000,20.657673382706427,-2.5108360000000003,0.06629106,0.07264637,66.9825,20.2775,-98.8275,0.3425,0.9075,0.18,-0.6375,1.9925,-0.7975
1900-01-01 13:30:33.300,20.092036634364675,-2.502185,0.038583469999999995,0.05992636,67.64,19.7575,-99.4025,0.3325,0.9125000000000001,0.17250000000000001,-0.3925,1.1125,-0.8125
1900-01-01 13:30:33.600,19.886153009375175,-2.49829,0.0264297,0.05436640000000001,67.65,19.7675,-99.59,0.3325,0.9075,0.17,-1.725,0.24750000000000005,0.7625
1900-01-01 13:30:33.900,16.481677233467472,-2.493567272727273,0.00996257,0.04794961818181818,66.21,21.31,-98.6425,0.36,0.91,0.1775,-1.2075,0.06749999999999995,1.7125
1900-01-01 13:30:34.200,16.127147675101074,-2.492957,0.006687388,0.04885115,66.22749999999999,21.48,-98.2175,0.36,0.9,0.165,-1.3025,1.4825,-0.06
1900-01-01 13:30:34.500,16.1597325264278,-2.494116,-0.0033619870000000003,0.04882009,66.295,21.295,-98.355,0.36,0.9075,0.17,-1.4475,1.0775000000000001,-0.175
1900-01-01 13:30:34.800,15.999778245504466,-2.4854627272727274,-0.03456462727272727,0.0364728,66.41333333333334,21.21666666666667,-98.47666666666667,0.36000000000000004,0.9066666666666667,0.17,-1.5266666666666666,1.0133333333333334,-0.3499999999999999
1900-01-01 13:30:35.100,16.14337498694165,-2.475098,-0.07003648,0.022633530000000002,66.4425,21.127499999999998,-98.6175,0.355,0.9025000000000001,0.1675,-1.25,1.3625,-0.085
1900-01-01 13:30:35.400,16.4357249643263,-2.4652745454545455,-0.09911890909090909,0.0117005,66.6625,20.98,-98.72749999999999,0.355,0.91,0.1675,-1.1949999999999998,1.3050000000000002,-0.08
1900-01-01 13:30:35.700,16.249229321546725,-2.464748,-0.1028168,0.010812707000000001,66.47999999999999,21.1475,-98.81,0.355,0.905,0.1675,-1.5925000000000002,1.1925,-0.1175
1900-01-01 13:30:36.000,16.400927480040426,-2.465832727272727,-0.111667,0.011059718181818182,66.5875,21.0125,-98.8925,0.3525,0.9075,0.17,-1.045,1.3775,-0.05
1900-01-01 13:30:36.300,16.4275042510956,-2.467241,-0.1170447,0.011966300000000001,66.81,20.925,-98.89,0.3525,0.9075,0.1625,-0.4675,1.355,0.4675
1900-01-01 13:30:36.600,16.488222548209976,-2.480841818181818,-0.136026,0.023936818181818184,67.17,20.880000000000003,-99.10249999999999,0.3475,0.9025000000000001,0.15,3.6274999999999995,4.5024999999999995,-3.9225000000000003
1900-01-01 13:30:36.900,23.2634643072216,-2.505593,-0.1843807,0.04491078,73.0575,16.1025,-102.36250000000001,0.275,0.945,0.09,6.33,6.455,-4.6274999999999995
1900-01-01 13:30:37.200,25.598097043075075,-2.5020554545454545,-0.24485536363636362,0.039531109090909095,75.0625,14.635000000000002,-104.3025,0.25,0.955,0.05,0.3125,2.3425000000000002,-1.26
1900-01-01 13:30:37.500,29.840401025104427,-2.491797,-0.2976185,0.029773679999999997,78.12,11.7775,-106.7,0.2025,0.9675,-0.005,6.74,5.1725,-5.8775
1900-01-01 13:30:37.800,31.963057954151967,-2.4853549999999998,-0.35187219999999997,0.02139781,79.46,10.356666666666667,-108.46333333333332,0.18000000000000002,0.9700000000000001,-0.03,-1.4166666666666667,1.24,-0.08333333333333333
1900-01-01 13:30:38.100,31.76306096843155,-2.4818672727272726,-0.3924788181818182,0.016414463636363636,79.33,10.4975,-108.5175,0.18,0.97,-0.03,-1.53,1.1175,0.0375
1900-01-01 13:30:38.400,31.26745460594372,-2.476482,-0.40487890000000004,0.01635935,78.92999999999999,10.894,-108.31800000000001,0.186,0.97,-0.032,-1.322,-0.9179999999999999,1.4300000000000002
1900-01-01 13:30:38.700,29.613939728033234,-2.442871818181818,-0.3574309090909091,0.03659319090909091,78.2,11.660000000000002,-107.30333333333333,0.19999999999999998,0.9633333333333333,-0.02666666666666667,-2.4499999999999997,0.7233333333333333,0.6366666666666667
1900-01-01 13:30:39.000,29.715351887701075,-2.439188,-0.34974049999999995,0.03973272,78.2,11.6875,-107.0825,0.2,0.965,-0.0225,-1.8125,1.0575,0.6275
1900-01-01 13:30:39.300,26.0633396217538,-2.4115522222222223,-0.32477555555555554,0.04516126666666667,75.9825,13.899999999999999,-106.26,0.2375,0.96,0.017499999999999998,-5.5025,-1.9675,2.215
1900-01-01 13:30:39.600,27.21265265680355,-2.0407318181818184,-0.19506372727272725,0.11415449999999999,76.175,13.57,-105.13,0.23500000000000001,0.97,0.035,-12.4275,-7.825,5.952500000000001
1900-01-01 13:30:39.900,18.0099251211065,-1.4356345454545456,-0.059421650909090906,0.17403472727272729,67.3275,20.427500000000002,-100.4925,0.34,0.9,0.1575,-10.435,-8.055,1.5675
1900-01-01 13:30:40.200,18.551557331748427,-0.5445453272727273,0.10068959999999999,0.15218254545454546,66.7175,20.5625,-101.4225,0.34750000000000003,0.91,0.18,-6.5075,-9.855,-1.6324999999999998
1900-01-01 13:30:40.500,17.377655917665223,0.35539190363636364,0.3302006363636364,0.09283011818181817,65.145,21.3275,-101.91,0.3575,0.8975,0.20750000000000002,-6.49,-6.64,-0.22499999999999998
1900-01-01 13:30:40.800,16.100318774467034,0.9326871000000001,0.3466287,0.037366809,63.49333333333334,22.179999999999996,-102.19,0.3666666666666667,0.8733333333333334,0.2333333333333333,-5.876666666666666,-1.3466666666666667,-0.4633333333333333
1900-01-01 13:30:41.100,17.884976819701922,1.2015945454545454,0.07242910818181819,-0.015301213636363636,63.227999999999994,20.726,-103.122,0.35,0.882,0.274,-5.17,1.528,-1.1420000000000001
1900-01-01 13:30:41.400,19.771773756642734,1.2227666666666666,-0.12605051666666667,-0.03918505,63.71333333333333,20.286666666666665,-103.39999999999999,0.33666666666666667,0.8733333333333334,0.26666666666666666,-2.313333333333333,-4.09,3.6
1900-01-01 13:30:41.700,12.5170384185223,1.1418,-0.06805607,-0.06503400000000001,58.42999999999999,25.16,-100.334,0.418,0.8379999999999999,0.3,-4.912000000000001,1.434,2.3020000000000005
1900-01-01 13:30:42.000,12.929264452265,1.1080518181818182,-0.09566133636363636,-0.062417118181818186,57.18000000000001,25.08,-100.02666666666666,0.41,0.82,0.32666666666666666,-3.6833333333333336,2.893333333333333,0.8599999999999999
1900-01-01 13:30:42.300,9.754456985874992,1.0404314545454545,-0.17426163636363637,-0.049016736363636355,54.715,26.6675,-97.8875,0.44,0.8075,0.3575,-3.4675000000000002,2.3975,4.5475
1900-01-01 13:30:42.600,8.572535312560337,0.5520007527272728,-0.21501245454545453,-0.0421239,53.25333333333333,28.669999999999998,-96.05,0.47,0.7833333333333333,0.35000000000000003,3.73,8.37,7.133333333333334
1900-01-01 13:30:42.900,7.9516798824628365,-0.5888309090909091,-0.210227,-0.057061263636363636,54.324,29.018,-92.036,0.48,0.808,0.32,11.446000000000002,10.854,4.586
1900-01-01 13:30:43.200,4.596455184803295,-1.3143718181818183,0.004878636363636364,-0.09195472727272726,54.114999999999995,31.34,-88.9975,0.515,0.8025,0.2675,0.22499999999999998,2.055,3.13
1900-01-01 13:30:43.500,3.7762553129241425,-1.5039245454545453,0.12013427272727273,-0.07681477272727272,53.83,31.68,-88.13,0.52,0.795,0.265,-2.17,0.5425,-0.895
1900-01-01 13:30:43.800,4.94728611313485,-1.3836881818181819,0.09906169999999999,-0.06250093636363636,54.81666666666666,30.849999999999998,-89.35333333333334,0.51,0.81,0.26,-2.78,-2.2966666666666664,-3.9966666666666666
1900-01-01 13:30:44.100,4.549522441193625,-1.2542149999999999,0.1710534,-0.015327961000000001,54.775,30.6575,-90.325,0.5125,0.8225,0.27,-5.1975,-2.8125,3.3874999999999997
1900-01-01 13:30:44.400,2.859259794265313,-1.2324,0.2490720909090909,-0.01668237272727273,52.41,32.405,-88.5775,0.525,0.7725,0.28,-4.695,1.6675000000000004,-0.6725000000000001
1900-01-01 13:30:44.700,1.8551964679283224,-1.2161629999999999,0.2621676,-0.02528531,51.629999999999995,32.994,-88.952,0.542,0.776,0.296,0.22199999999999998,1.7619999999999998,-0.554
1900-01-01 13:30:45.000,4.161311173477997,-1.193532,0.23092549999999998,-0.038811240000000004,53.803333333333335,30.94666666666667,-90.31333333333333,0.5066666666666667,0.79,0.2866666666666667,2.3266666666666667,5.21,-3.8733333333333335
1900-01-01 13:30:45.300,6.514054791677895,-1.1519118181818182,0.1369337909090909,-0.062843,55.924,28.842000000000002,-91.75999999999999,0.47400000000000003,0.818,0.28,-0.8480000000000001,3.28,-1.738
1900-01-01 13:30:45.600,8.559505482770605,-1.144568,-0.025888931999999996,-0.03510071,57.169999999999995,27.183333333333334,-92.86333333333334,0.4566666666666667,0.8366666666666666,0.29,-0.8533333333333334,1.8433333333333335,-0.17333333333333334
1900-01-01 13:30:45.900,7.528789538435925,-1.236216,-0.1484999,-0.0013914696999999998,56.945,28.265,-92.6525,0.46499999999999997,0.8225,0.265,7.95,3.46,-0.6424999999999998
1900-01-01 13:30:46.200,12.05777848815748,-1.543655,-0.14130530000000002,0.015495201,62.7825,24.7625,-94.38,0.415,0.885,0.18,5.0075,7.625,-4.0975
1900-01-01 13:30:46.500,15.627474875644825,-2.06841,-0.21362154545454545,-0.02024291727272727,66.3825,21.825,-97.80250000000001,0.3675,0.9025,0.14500000000000002,7.595,7.575,-6.584999999999999
1900-01-01 13:30:46.800,17.18867239773625,-2.46415,-0.23512439999999998,-0.0041806448,68.6125,19.4125,-99.53999999999999,0.3325,0.93,0.15000000000000002,-1.1775,19.830000000000002,2.805
1900-01-01 13:30:47.100,20.5785117291253,-2.540344,-0.24195950000000002,-0.010845730000000001,67.3575,18.7425,-97.1875,0.315,0.9075,0.20750000000000002,-2.6174999999999997,11.4725,4.205
1900-01-01 13:30:47.400,21.376841209103702,-2.5306279999999997,-0.2988521,-0.0401734,65.12,19.9875,-95.24,0.335,0.89,0.24,-3.6125,6.3575,1.2
1900-01-01 13:30:47.700,20.6864676271597,-2.52604,-0.312077,-0.0453305,64.0525,20.485,-94.83,0.345,0.885,0.26,-0.65,0.325,0.14250000000000002
1900-01-01 13:30:48.000,20.92238016939135,-2.527247,-0.3117988,-0.044121270000000004,64.9375,20.345,-94.91,0.3425,0.8925000000000001,0.2375,-0.39249999999999996,-2.44,0.275
1900-01-01 13:30:48.300,18.28874217014185,-2.5511340000000002,-0.24218960000000003,0.018769702,63.615,22.357499999999998,-94.525,0.3775,0.885,0.23,-3.585,-8.4375,0.49
1900-01-01 13:30:48.600,15.020690448279575,-2.579789,-0.08004736700000001,0.11361444000000001,62.44,24.48,-94.1925,0.4125,0.8775,0.2025,-1.31,-6.1025,1.6025
1900-01-01 13:30:48.900,11.847011204317475,-2.600748,0.07013388,0.1796235,61.38,25.9775,-93.32,0.435,0.8725,0.195,-2.015,-2.885,0.6225
1900-01-01 13:30:49.200,10.50045675260221,-2.5754363636363635,0.17139245454545457,0.2044349090909091,61.0625,26.802500000000002,-93.15,0.445,0.8674999999999999,0.17250000000000001,-1.97,-1.1725,0.26
1900-01-01 13:30:49.500,9.404610240457764,-2.502976,0.2471699,0.1781719,59.835,27.755,-92.3675,0.465,0.86,0.19,-4.905,-0.615,2.3625
1900-01-01 13:30:49.800,7.687795440804909,-2.319039090909091,0.2775823636363636,0.14291654545454546,58.10666666666666,29.133333333333336,-91.72666666666667,0.48,0.83,0.20000000000000004,-3.533333333333333,-2.0833333333333335,-0.9233333333333335
1900-01-01 13:30:50.100,8.33652457943428,-2.038804545454546,0.2719163636363637,0.16028209090909093,59.370000000000005,28.095,-92.4075,0.4675,0.8525,0.1925,-2.2675,-3.63,-2.135
1900-01-01 13:30:50.400,10.793381656892056,-1.5108345454545455,0.10749554545454544,0.13479954545454545,61.2,25.87,-94.9175,0.44,0.885,0.20500000000000002,-14.752500000000001,-3.025,-8.3225
1900-01-01 13:30:50.700,18.491751567233948,-0.8088501000000001,-0.2784479,0.14175401,59.72,21.71,-100.59,0.355,0.8325,0.3275,-10.4475,-3.5075,-6.8475
1900-01-01 13:30:51.000,18.77007335554925,-0.1495071181818182,-0.420897,0.23634845454545453,59.8675,20.855,-103.16499999999999,0.35,0.8474999999999999,0.3475,-1.9175,-3.42,-1.5025
1900-01-01 13:30:51.300,20.052352100877876,0.42010245454545453,-0.2924102727272727,0.22428836363636365,60.88,20.9575,-103.6825,0.355,0.8674999999999999,0.325,-1.3275000000000001,-4.8275,1.2575
1900-01-01 13:30:51.600,14.629919191578225,0.8500947272727273,-0.0076069809090909095,0.23006263636363639,59.395,24.5775,-102.24,0.415,0.855,0.29000000000000004,1.78,-3.5175,3.335
1900-01-01 13:30:51.900,12.2899990411171,0.9506067,0.26556959999999996,0.2300319,58.61,26.6175,-100.3725,0.44,0.8425,0.2625,0.405,1.0325,3.3825
1900-01-01 13:30:52.200,10.325988249334848,0.7700332727272727,0.39878872727272724,0.17593654545454546,56.43,29.009999999999998,-98.545,0.4775,0.8225,0.2625,-2.1725000000000003,1.1975,2.315
1900-01-01 13:30:52.500,9.909437700221897,0.6619720909090909,0.4830261818181818,0.14881945454545453,55.85,29.455,-97.28,0.4875,0.82,0.265,-0.6950000000000001,2.3175,1.29
1900-01-01 13:30:52.800,8.90280056090317,0.5714785454545455,0.4555235454545455,0.1500831818181818,55.379999999999995,30.11,-96.8075,0.495,0.8125,0.26,0.7925,5.08,1.48
1900-01-01 13:30:53.100,9.35809988736964,0.01656840909090909,0.3681954545454546,0.07940409090909091,55.346666666666664,30.323333333333334,-95.88,0.49666666666666665,0.8066666666666666,0.25666666666666665,6.733333333333333,8.423333333333334,0.9199999999999999
1900-01-01 13:30:53.400,9.896993032774537,-0.6498901,0.3560779,0.028961340000000002,57.814,29.272000000000002,-94.446,0.49000000000000005,0.8480000000000001,0.21200000000000002,6.502,5.826,3.418
1900-01-01 13:30:53.700,7.58127751095326,-1.036831090909091,0.4860376363636364,0.03308263636363636,57.54333333333333,30.64,-92.71,0.51,0.8433333333333333,0.16666666666666666,0.05333333333333331,1.8,2.0733333333333333
1900-01-01 13:30:54.000,6.251443348942667,-1.2456627272727272,0.5648246363636363,0.027200581818181815,56.2425,31.875,-92.005,0.525,0.8225,0.17,-1.2225000000000001,1.895,0.7475
1900-01-01 13:30:54.300,5.434990202350407,-1.282839,0.5931521,0.0128663229,55.786,31.922000000000004,-91.90599999999999,0.524,0.8219999999999998,0.186,-7.4,-2.138,0.5
1900-01-01 13:30:54.600,4.368507835669613,-1.2551627272727273,0.6126200909090909,-5.633118181818181e-05,54.400000000000006,32.88,-91.60499999999999,0.535,0.805,0.20500000000000002,-1.2625,1.1325,-0.5525
1900-01-01 13:30:54.900,4.68486219867724,-1.25557,0.614095,0.000683911,55.00333333333333,32.28,-91.78666666666668,0.53,0.8166666666666668,0.20666666666666667,-0.75,1.5533333333333335,-0.09999999999999999
1900-01-01 13:30:55.200,4.521074578348475,-1.256645,0.614346,0.0016264754999999998,54.765,32.6075,-91.94749999999999,0.535,0.81,0.2025,-0.7725,1.545,-0.4275
1900-01-01 13:30:55.500,4.97144039959421,-1.2548599999999999,0.6086475454545455,0.0030520336363636363,55.3525,32.015,-92.3525,0.5275000000000001,0.8175,0.20500000000000002,-1.6949999999999998,1.53,-1.205
1900-01-01 13:30:55.800,9.505130037779297,-1.17,0.36636290000000005,0.049619228,57.0,28.697499999999998,-94.81,0.47250000000000003,0.825,0.25,-6.2225,7.0725,-8.4
1900-01-01 13:30:56.100,15.953721799037666,-0.7945409999999999,-0.09486802,0.12828002,58.526666666666664,24.55666666666667,-99.14666666666666,0.4066666666666667,0.8366666666666666,0.3133333333333333,-8.426666666666668,-2.563333333333333,-7.223333333333333
1900-01-01 13:30:56.400,14.946896906488462,-0.05992868181818181,-0.05780802727272727,0.169041,58.762,24.862000000000002,-101.30199999999999,0.414,0.842,0.292,0.8320000000000001,-10.016,1.69
1900-01-01 13:30:56.700,11.139274981148354,0.5996791,0.4785707,0.09837116,58.876666666666665,28.0,-99.87666666666667,0.4633333333333334,0.84,0.21,2.3366666666666664,-5.303333333333334,2.606666666666667
1900-01-01 13:30:57.000,8.892907843720726,0.8658545999999999,0.8657119999999999,0.05548963,58.193999999999996,30.174,-98.172,0.49800000000000005,0.8400000000000001,0.156,1.86,-1.346,2.334
1900-01-01 13:30:57.300,8.051177833143896,0.8934633636363636,0.9981971818181818,0.032058472727272726,57.67,30.87,-97.425,0.5075000000000001,0.835,0.14500000000000002,-1.9500000000000002,1.03,-0.16750000000000004
1900-01-01 13:30:57.600,8.325357432529476,0.9650171000000001,1.066216,0.03109743,57.8075,31.035,-97.5625,0.5175000000000001,0.85,0.135,-1.7275,-0.3325,0.16000000000000003
1900-01-01 13:30:57.900,8.077907852372173,1.079218,1.143878,0.02582873,57.36333333333334,31.42,-97.37333333333333,0.5166666666666667,0.8333333333333334,0.1366666666666667,-1.4100000000000001,0.9,-0.049999999999999996
1900-01-01 13:30:58.200,8.8708436087629,1.090716,1.09661,0.0097405012,57.272000000000006,31.05,-97.42,0.512,0.834,0.16,-3.2660000000000005,3.254,-0.2
1900-01-01 13:30:58.500,9.318762850174426,1.0204603,0.965823,-0.02181888,57.405,30.65,-97.6625,0.5025,0.83,0.17,0.10250000000000001,4.2875,0.3325
1900-01-01 13:30:58.800,9.203285602531606,0.6858947,0.7683137999999999,-0.08514580000000001,57.089999999999996,30.790000000000003,-97.29666666666667,0.51,0.8366666666666666,0.18000000000000002,-1.4066666666666665,4.076666666666667,0.8366666666666668
1900-01-01 13:30:59.100,8.628288949850678,0.2682617,0.5071838,-0.1194035,56.9375,30.2675,-97.25,0.5,0.835,0.2075,-3.4075,3.5825,-1.15
1900-01-01 13:30:59.400,9.763012332766243,0.0206125102,0.1958317,-0.10069952,58.1075,28.41,-98.5225,0.475,0.845,0.2275,-1.045,2.1825,-2.3625
1900-01-01 13:30:59.700,10.535508542139667,0.011411877099999999,0.09632515999999999,-0.10050245,58.777499999999996,28.0375,-99.3775,0.4625,0.845,0.2175,-0.6775,0.515,0.18
1900-01-01 13:31:00.000,8.888095343561147,0.04644198,0.1394641,-0.06616683,58.09,28.785,-98.99,0.4775,0.845,0.2175,-1.5,0.815,1.0175
1900-01-01 13:31:00.300,9.922862906128024,0.028750242,0.13675120000000002,-0.053341559999999996,58.585,28.205,-98.5925,0.46499999999999997,0.8374999999999999,0.215,-2.3875,2.5475,0.11499999999999999
1900-01-01 13:31:00.600,9.201111265055598,-0.003670202,0.1058038,-0.039658519999999996,57.9675,28.685,-98.6575,0.4775,0.84,0.2225,-0.8500000000000001,0.5700000000000001,-0.065
1900-01-01 13:31:00.900,8.457590588070403,-0.010807192,0.1109513,-0.04040699,58.2,28.759999999999998,-98.7125,0.475,0.8425,0.21250000000000002,0.5275,3.0,-1.0225
1900-01-01 13:31:01.200,10.458344463130585,-0.2297099727272727,0.05719064272727273,-0.07432387272727273,59.230000000000004,27.775,-99.1125,0.46,0.8474999999999999,0.2075,-0.9650000000000001,4.5325,0.49500000000000005
1900-01-01 13:31:01.500,11.868416150288567,-0.6377096363636364,-0.13494322727272728,-0.08787422727272727,59.31666666666666,26.573333333333334,-99.19333333333333,0.44,0.8466666666666667,0.23666666666666666,-4.5566666666666675,4.6000000000000005,-0.5566666666666666
1900-01-01 13:31:01.800,13.68019958816852,-0.9790694999999999,-0.556256,-0.10431759,58.326,25.188,-100.17999999999999,0.41600000000000004,0.836,0.298,-6.362,9.43,-3.066
1900-01-01 13:31:02.100,18.280594140003732,-1.2889254545454545,-1.1748960909090909,-0.04732598181818182,58.10333333333333,20.726666666666667,-102.29,0.3466666666666667,0.83,0.38000000000000006,-6.596666666666667,10.17,-4.34
1900-01-01 13:31:02.400,23.28045853951712,-1.480091,-1.8018360000000002,-0.016031503,57.324,15.919999999999998,-105.138,0.266,0.8220000000000001,0.45599999999999996,-5.1259999999999994,6.5,-3.472
1900-01-01 13:31:02.700,25.39903359543077,-1.6104936363636364,-2.1663245454545454,0.0047673661818181815,56.73,13.483333333333334,-106.69333333333333,0.22666666666666666,0.8133333333333334,0.48333333333333334,-2.106666666666667,3.1166666666666667,-1.4466666666666665
1900-01-01 13:31:03.000,25.67007476443695,-1.658908181818182,-2.3056063636363637,0.0021962327272727275,56.8425,12.8575,-107.2675,0.215,0.81,0.485,-1.1375,1.9175,-0.18999999999999997
1900-01-01 13:31:03.300,25.594040355498848,-1.6679089999999999,-2.312781,0.0031578010000000004,57.0625,12.807500000000001,-107.2425,0.215,0.815,0.4825,-0.77,1.0150000000000001,0.3125
1900-01-01 13:31:03.600,24.588744799332673,-1.7183263636363635,-2.292857272727273,-0.002827027090909091,57.425,13.64,-106.74,0.22999999999999998,0.82,0.4725,0.49250000000000005,0.21749999999999997,2.0075
1900-01-01 13:31:03.900,22.898180688260826,-1.7865220000000002,-2.241186,-0.017601160999999997,58.06,14.8975,-105.75750000000001,0.2525,0.8225,0.45,-0.86,-0.5574999999999999,2.0675
1900-01-01 13:31:04.200,18.02370834908845,-1.7338259999999999,-1.8802230000000002,0.0248746875,56.24,19.529999999999998,-103.27250000000001,0.325,0.81,0.4325,4.42,-8.915,6.172499999999999
1900-01-01 13:31:04.500,9.700715493816155,-1.0698291,-0.9003197000000001,0.1288781,56.7825,26.365000000000002,-100.0,0.4425,0.83,0.3175,4.4575,-13.2225,3.98
1900-01-01 13:31:04.800,7.4593760187655604,-0.020315215454545458,0.1979547090909091,0.10719392727272727,57.760000000000005,28.95,-98.785,0.48,0.835,0.22,1.025,-5.9875,-1.01
1900-01-01 13:31:05.100,10.217752215484834,0.8882630000000001,0.7135246363636364,0.09342768181818183,59.6625,28.22,-99.65,0.47,0.8574999999999999,0.1775,0.010000000000000009,-2.2625,-1.295
1900-01-01 13:31:05.400,11.060862339503945,1.2990119999999998,0.8987465,0.1311363,59.8125,28.2,-100.025,0.4675,0.855,0.1675,-6.0425,-0.5425,0.9049999999999998
1900-01-01 13:31:05.700,10.77157471691225,1.305434,0.8606994,0.08985154,57.9525,28.92,-99.44749999999999,0.48,0.845,0.215,-1.2575,0.9375,0.715
1900-01-01 13:31:06.000,11.6147836056803,1.233698,0.8357514,0.06268978,58.215,28.795,-99.2225,0.4725,0.835,0.21,-0.8699999999999999,3.965,0.04749999999999999
1900-01-01 13:31:06.300,12.041614366195299,1.078086,0.6831765,0.08042189,58.01666666666667,28.633333333333336,-99.27333333333333,0.47333333333333333,0.8366666666666666,0.22333333333333336,-1.3299999999999998,3.1466666666666665,-0.7966666666666665
1900-01-01 13:31:06.600,12.435461813215126,0.8453366666666667,0.501875,0.05802455555555556,58.415,28.0275,-99.505,0.4625,0.84,0.2275,-2.375,6.2475000000000005,-0.20249999999999999
1900-01-01 13:31:06.900,17.8743104224997,0.15911202727272727,-0.06821116363636363,0.040422545454545454,57.985,25.127499999999998,-100.44500000000001,0.4125,0.8225,0.3025,-4.3825,13.6475,-4.08
1900-01-01 13:31:07.200,20.843315472552526,-0.4781763,-0.6448649,0.0283897,58.5175,21.5625,-102.35,0.3625,0.835,0.3625,-2.7874999999999996,5.702500000000001,-0.3075
1900-01-01 13:31:07.500,20.985812879429425,-0.8890824,-0.9333116,-0.008349958000000001,58.39,20.8275,-102.365,0.34750000000000003,0.835,0.3775,-1.8125,3.1725,0.6325
1900-01-01 13:31:07.800,19.7235875469401,-1.22076,-1.1012645454545456,-0.04963697272727272,57.96333333333333,21.02,-102.02333333333333,0.35333333333333333,0.8333333333333334,0.3833333333333333,-2.0,2.0233333333333334,0.48
1900-01-01 13:31:08.100,16.2715915198886,-1.3490744444444445,-1.1209533333333335,-0.07268565555555556,56.07000000000001,22.834,-100.818,0.384,0.82,0.396,-4.074,-2.782,4.208
1900-01-01 13:31:08.400,13.854602080232874,-1.3685154545454545,-1.0882072727272727,-0.07517381818181817,54.0775,24.4325,-98.36500000000001,0.4,0.7825,0.4,-1.855,0.4800000000000001,1.0175
1900-01-01 13:31:08.700,11.9143480112024,-1.368063,-1.0550950000000001,-0.07256393,53.785,25.805,-98.3325,0.4225,0.785,0.3875,3.1599999999999997,-0.29500000000000004,-1.7525
1900-01-01 13:31:09.000,12.52137189262125,-1.2449077777777777,-0.8525411111111111,0.014505678888888889,56.8275,25.48,-99.2,0.4225,0.82,0.33,-0.8125,-2.8325,2.0475
1900-01-01 13:31:09.300,8.55686776688124,-1.0252082,-0.5590667,0.16989680000000001,54.235,28.3675,-97.26,0.46499999999999997,0.8,0.335,-3.1925,-0.9450000000000001,2.5175
1900-01-01 13:31:09.600,7.0169517008392255,-0.8620003636363637,-0.31002345454545455,0.31694045454545455,53.269999999999996,29.2725,-96.28999999999999,0.48,0.7925,0.34,-3.365,-0.5925,0.345
1900-01-01 13:31:09.900,7.003777032911684,-0.8017052222222222,-0.05136637777777778,0.44674966666666666,52.47,29.822499999999998,-96.13499999999999,0.4875,0.7775000000000001,0.345,-0.865,-1.4275,2.8950000000000005
1900-01-01 13:31:10.200,1.1865076504986294,-0.7081014,0.41205860000000005,0.4746513,50.04,33.97,-94.03666666666668,0.55,0.7533333333333333,0.31,1.1666666666666667,-2.5166666666666666,3.5
1900-01-01 13:31:10.500,1.4364724842542622,-0.6119063,0.7266505999999999,0.4354712,50.008,35.044,-92.76400000000001,0.572,0.76,0.288,-0.9560000000000001,0.074,0.932
1900-01-01 13:31:10.800,-0.7793878494799571,-0.5764747,1.0188159,0.45271,48.375,36.92,-91.645,0.5974999999999999,0.7424999999999999,0.2825,-1.625,-0.8175,2.8525
1900-01-01 13:31:11.100,-1.752251871173895,-0.5476471818181818,1.4232863636363637,0.4132118181818182,47.4125,38.265,-89.985,0.6125,0.7324999999999999,0.27,-1.245,-0.89,2.1675
1900-01-01 13:31:11.400,-2.3340869822325634,-0.5248393,1.7285,0.3394872,46.73,39.28666666666666,-89.04333333333334,0.6333333333333333,0.7266666666666666,0.26,-1.5999999999999999,0.2866666666666666,1.2666666666666668
1900-01-01 13:31:11.700,-2.826859763908913,-0.5376885,1.899475,0.2885715,46.1725,40.085,-88.715,0.64,0.715,0.255,-0.9075,1.1575,0.11749999999999998
1900-01-01 13:31:12.000,-2.447561617994465,-0.5499163636363636,1.9093454545454547,0.2469600909090909,46.47,39.8175,-88.845,0.6425000000000001,0.7224999999999999,0.2525,-0.7775,1.6,-0.45999999999999996
1900-01-01 13:31:12.300,-2.0374720933257424,-0.5595730999999999,1.845227,0.1895246,46.730000000000004,39.4825,-89.1875,0.6325000000000001,0.725,0.255,-0.8825000000000001,2.0300000000000002,-0.4575
1900-01-01 13:31:12.600,-1.6209159132498134,-0.5669138181818182,1.8152554545454544,0.16393663636363637,47.20666666666667,39.04,-89.48,0.6266666666666666,0.73,0.25,-0.09000000000000001,1.9466666666666665,-0.4666666666666666
1900-01-01 13:31:12.900,-1.4948804063977226,-0.5770616,1.780511,0.1479964,47.5775,38.8425,-89.655,0.6275,0.7375,0.25,-0.315,1.55,-0.28250000000000003
1900-01-01 13:31:13.200,-1.547647990493314,-0.7359411,1.715627,0.07282512599999999,47.732,38.976,-89.264,0.634,0.744,0.238,1.3379999999999999,4.328,2.452
1900-01-01 13:31:13.500,-2.3172590062289635,-1.1911251,1.5541459999999998,-0.010580132,46.78,39.586666666666666,-87.77666666666666,0.64,0.7266666666666666,0.25,0.6733333333333333,6.396666666666667,1.23
1900-01-01 13:31:13.800,-2.0180220989818074,-1.6354354545454546,1.2844281818181817,-0.03546099090909091,46.7725,39.2125,-87.3575,0.63,0.7224999999999999,0.2625,0.04500000000000001,5.07,0.67
1900-01-01 13:31:14.100,-1.8369245115962876,-1.881758,1.0587241,-0.030240919999999998,46.95,38.535,-87.115,0.6225,0.7324999999999999,0.28,-1.1025,2.925,-0.025
1900-01-01 13:31:14.400,-1.8429298556337474,-1.9553660000000002,0.9514484,-0.01616308,46.875,38.510000000000005,-87.16499999999999,0.62,0.7275,0.28,-1.2875,1.685,-0.07500000000000001
1900-01-01 13:31:14.700,-1.6107606982508025,-1.9820254545454545,0.9101143636363637,-0.006657572727272728,47.045,38.245,-87.2675,0.6174999999999999,0.73,0.28250000000000003,-1.1825,1.5725,-0.14250000000000002
1900-01-01 13:31:15.000,-1.454164072646865,-1.9970510000000001,0.8856154,-0.0008951130000000001,47.3425,38.027499999999996,-87.405,0.6125,0.73,0.28,-1.0875,1.5325,-0.17500000000000002
1900-01-01 13:31:15.300,-1.4696241526514624,-2.0174309999999998,0.8569749,0.008680246999999999,47.36,38.0025,-87.57,0.6125,0.7324999999999999,0.28,-0.8049999999999999,1.6375,-0.4225
1900-01-01 13:31:15.600,-1.3542935222098351,-2.0313936363636365,0.8305864545454544,0.013279690909090909,47.6325,37.7025,-87.855,0.61,0.7375,0.28250000000000003,-1.2625,1.2275,-0.195
1900-01-01 13:31:15.900,-1.0598325809335396,-2.027554,0.8052450999999999,0.0019146508,47.9175,37.4975,-87.975,0.605,0.735,0.28,-0.915,1.4224999999999999,-0.2475
1900-01-01 13:31:16.200,-0.8752993922231345,-1.9904881818181819,0.7532285454545454,-0.025434236363636363,48.0775,37.29,-88.29,0.6,0.7375,0.2775,-2.5175,-0.365,-2.2325
1900-01-01 13:31:16.500,0.8713766870501976,-1.533102,0.5934806,-0.05677694,49.7125,35.6875,-91.0975,0.5775,0.7525,0.275,-3.2649999999999997,-2.8200000000000003,-6.41
1900-01-01 13:31:16.800,6.2503818241286755,-0.7329538,0.3275039,-0.005394639999999999,54.0775,31.6375,-95.1325,0.5225,0.8075,0.26,-2.315,-1.1775,-6.285
1900-01-01 13:31:17.100,8.815086650940023,-0.10361563636363637,0.05627929545454546,0.08339776363636364,55.965,29.375,-98.0175,0.485,0.8225,0.265,-2.925,0.275,-2.64
1900-01-01 13:31:17.400,10.33211215781314,0.22690899999999997,-0.16554338,0.09208078,57.04,28.083333333333332,-99.49000000000001,0.4633333333333333,0.8266666666666667,0.27,-1.8,0.9933333333333333,-2.6366666666666667
1900-01-01 13:31:17.700,11.066085149919525,0.3751636,-0.3261786,0.09535369,57.37,27.310000000000002,-100.6725,0.455,0.835,0.28250000000000003,-1.405,1.46,-1.2825
1900-01-01 13:31:18.000,11.37319175458714,0.4330499,-0.3763136,0.1065365,57.92,26.802,-101.202,0.44400000000000006,0.836,0.276,-1.108,1.5,-0.532
1900-01-01 13:31:18.300,12.420552112627675,0.4596861428571429,-0.4672397142857143,0.08687014285714285,58.4475,26.16,-101.78,0.435,0.845,0.28,-1.52,1.5125,-1.015
1900-01-01 13:31:18.600,12.833739049192566,0.48536175000000004,-0.572340375,0.06346595,58.703333333333326,25.71666666666667,-102.26666666666667,0.43,0.8433333333333333,0.28,-1.2733333333333334,1.5466666666666669,-0.4000000000000001
1900-01-01 13:31:18.900,13.244805194113425,0.49535645454545457,-0.6117449090909092,0.05544506363636364,59.0175,25.3875,-102.5175,0.425,0.845,0.28,-1.2675,1.46,-0.3775
1900-01-01 13:31:19.200,13.412503465051525,0.49956209090909093,-0.6279534545454545,0.05230779090909091,59.04,25.3425,-102.71,0.42,0.8474999999999999,0.28,-1.2875,1.325,-0.1325
1900-01-01 13:31:19.500,13.712838146989,0.5007094545454546,-0.6323780909090909,0.05146057272727273,59.3425,25.025,-102.8175,0.415,0.85,0.28,-0.955,1.3925,-0.125
1900-01-01 13:31:19.800,13.707914483086725,0.500928,-0.633221,0.05129969999999999,59.39,25.03,-102.8925,0.4175,0.8474999999999999,0.2775,-1.35,1.21,-0.009999999999999995
1900-01-01 13:31:20.100,12.79464485708665,0.4534307,-0.6289338,0.027409301000000004,59.0875,25.5875,-102.7875,0.425,0.845,0.2725,-0.49000000000000005,1.53,2.0525
1900-01-01 13:31:20.400,11.423512475377025,0.21180284,-0.5768759,-0.055844939999999996,58.805,26.3575,-101.16499999999999,0.44,0.8474999999999999,0.265,-0.4525,3.3449999999999998,2.1725
1900-01-01 13:31:20.700,10.937604786131574,-0.2392347828181818,-0.5526396363636364,-0.13877272727272727,57.5975,27.2125,-100.0375,0.4475,0.83,0.2725,-2.8925,4.67,1.7725
1900-01-01 13:31:21.000,8.974677678530062,-0.6711572,-0.6609372,-0.153474,55.685,27.765,-99.29,0.46,0.8125,0.3125,-4.035,0.015000000000000013,-1.1600000000000001
1900-01-01 13:31:21.300,9.85910380840065,-0.4555718181818182,-0.7309665454545455,-0.07719682727272727,56.725,26.405,-101.105,0.4375,0.825,0.3175,-1.62,-1.205,-3.5725
1900-01-01 13:31:21.600,11.088713928647024,0.0738159181818182,-0.7888848181818182,0.04730316545454545,57.835,25.7175,-102.68,0.4275,0.8374999999999999,0.3025,-2.6500000000000004,-1.8900000000000001,-1.71
1900-01-01 13:31:21.900,11.600281804124801,0.653964,-0.690732,0.14505827272727273,58.635,25.5625,-103.535,0.4275,0.8474999999999999,0.2875,2.0775,-3.7775,1.4475
1900-01-01 13:31:22.200,8.913971956741953,0.9751744545454546,-0.26011826363636364,0.267383,58.03333333333333,28.296666666666667,-102.17333333333333,0.47,0.84,0.22999999999999998,1.1633333333333333,-3.2533333333333334,3.033333333333333
1900-01-01 13:31:22.500,6.686868335175717,1.15752,0.2944903909090909,0.33859218181818185,56.6775,30.5825,-100.46,0.5075000000000001,0.8325,0.20750000000000002,1.0450000000000002,-1.8075,2.91
1900-01-01 13:31:22.800,5.236722224535075,1.1736054545454546,0.781483,0.2786431818181818,55.4325,32.67,-98.2075,0.5375000000000001,0.8225,0.1725,-0.7024999999999999,-0.9725,3.9074999999999998
1900-01-01 13:31:23.100,3.9724618731680477,1.1780872727272726,1.0794333636363638,0.22403700000000001,54.3825,34.2225,-96.92,0.5575,0.8075,0.15000000000000002,0.0050000000000000044,0.345,0.79
1900-01-01 13:31:23.400,4.6465012878627725,1.1480627272727273,1.110711818181818,0.16885654545454545,54.442499999999995,34.18,-96.7075,0.5575000000000001,0.805,0.14750000000000002,-2.195,3.5225,0.07999999999999999
1900-01-01 13:31:23.700,4.6916936276041845,0.9987929999999999,0.9884505454545455,0.08618039090909091,54.115,34.2,-96.72,0.555,0.8,0.1625,-0.6325000000000001,4.495,0.5125
1900-01-01 13:31:24.000,4.93689254541116,0.33080312545454543,0.7623380000000001,-0.010809242727272727,53.97,34.08,-95.955,0.56,0.805,0.1775,1.485,8.0525,0.6024999999999999
1900-01-01 13:31:24.300,5.4483883804434035,-0.5028772727272727,0.44430245454545453,-0.04973550909090909,53.88666666666666,33.37,-96.01333333333334,0.5466666666666667,0.8000000000000002,0.21,-0.9899999999999999,7.3,0.9
1900-01-01 13:31:24.600,3.320043917321558,-0.876925,0.3081031818181818,-0.045959990909090906,52.686,33.884,-95.296,0.562,0.798,0.238,-3.714,1.276,0.9620000000000001
