Time,Roll1,Pitch1,Yaw1,AccX1,AccY1,AccZ1,RotX1,RotY1,RotZ1,Roll2,Pitch2,Yaw2,AccX2,AccY2,AccZ2,RotX2,RotY2,RotZ2
1:25:10.935 PM,18.81,3.06,-54.53,0.05,0.31,0.91,-1.37,1.25,0.03,27.7,0.01,-47.44,0,0.46,0.88,-0.52,-0.34,-0.82
1:25:10.967 PM,19.26,3.34,-54.53,0.06,0.32,0.91,-1.41,1.31,0.1,27.72,0.24,-47.41,0,0.46,0.88,-0.4,-0.32,-1.02
1:25:11.057 PM,19.01,3.11,-54.53,0.05,0.31,0.91,-1.43,1.24,-0.05,27.58,0,-47.41,0,0.46,0.88,-0.66,-0.22,-1.05
1:25:11.150 PM,19.06,3.33,-54.54,0.06,0.31,0.9,-1.27,1.24,0.03,27.82,0.14,-47.41,0,0.46,0.88,-0.56,-0.31,-1.03
1:25:11.197 PM,18.98,3.24,-54.55,0.05,0.31,0.91,-1.22,1.28,0.01,27.65,0.11,-47.41,0,0.46,0.88,-0.59,-0.27,-0.99
1:25:11.289 PM,18.89,3.19,-54.55,0.05,0.31,0.91,-1.38,1.25,0.06,27.73,0,-47.4,0,0.46,0.88,-0.43,-0.34,-1
1:25:11.382 PM,19.02,3.1,-54.55,0.05,0.31,0.91,-1.42,1.26,0.08,27.77,0.14,-47.4,0,0.46,0.88,-0.53,-0.32,-0.9
1:25:11.430 PM,19.06,3.25,-54.55,0.05,0.31,0.91,-1.28,1.38,0.05,27.54,0.03,-47.38,0,0.46,0.88,-0.51,-0.16,-1.06
1:25:11.524 PM,19.34,3.17,-54.55,0.05,0.32,0.91,-1.44,1.4,0.11,27.7,0.1,-47.38,0,0.46,0.88,-0.72,0.05,-0.95
1:25:11.578 PM,18.98,3.18,-54.54,0.05,0.31,0.91,-1.41,1.44,0.07,27.72,0.14,-47.37,0,0.46,0.88,-0.68,-0.01,-0.98
1:25:11.666 PM,18.96,3.1,-54.54,0.05,0.31,0.91,-1.52,1.4,0.11,27.64,-0.18,-47.36,0,0.46,0.88,-0.85,0.15,-0.92
1:25:11.759 PM,18.81,3.3,-54.53,0.06,0.31,0.91,-1.5,1.43,0.04,27.4,-0.1,-47.34,0,0.46,0.88,-0.82,0.03,-1.1
1:25:11.805 PM,18.78,3.25,-54.54,0.05,0.31,0.91,-1.4,1.27,0.07,27.53,-0.2,-47.35,0,0.46,0.88,-0.6,-0.15,-0.99
1:25:11.899 PM,18.82,3.26,-54.53,0.05,0.31,0.91,-1.48,1.31,0.11,27.55,-0.2,-47.34,0,0.46,0.88,-0.49,-0.26,-0.94
1:25:11.992 PM,18.92,3.44,-54.53,0.06,0.31,0.9,-1.82,1.35,0.07,27.56,0.19,-47.33,0,0.46,0.89,-0.56,-0.28,-1.05
1:25:12.039 PM,18.34,3.46,-54.52,0.06,0.3,0.91,-1.69,1.26,-0.11,27.1,-0.21,-47.33,0,0.45,0.88,-0.65,-0.45,-1.37
1:25:12.131 PM,20.34,2.45,-54.55,0.04,0.34,0.91,-0.66,1.53,-0.56,27.47,0.24,-47.38,0,0.46,0.88,-0.36,-0.85,-1.5
1:25:12.225 PM,19.3,2.66,-54.64,0.04,0.32,0.91,-0.56,1.44,0.31,27.36,-0.88,-47.45,-0.02,0.45,0.88,-0.38,-0.24,-0.82
1:25:12.271 PM,18.77,3.73,-54.6,0.06,0.31,0.91,-1.11,1.21,-0.11,26.76,0.4,-47.42,0.01,0.45,0.89,0.23,-1.15,-1.2
1:25:12.366 PM,18.73,2.92,-54.63,0.05,0.31,0.9,-1.28,1.16,-0.06,27.78,-0.1,-47.45,0,0.46,0.88,-0.32,-0.29,-0.92
1:25:12.427 PM,18.81,3.1,-54.65,0.05,0.31,0.91,-1.19,1.08,0.17,27.99,-0.25,-47.43,0,0.47,0.88,-0.34,-0.5,-0.58
1:25:12.507 PM,18.92,3.38,-54.63,0.06,0.31,0.91,-1.37,1.27,0.06,27.03,0.24,-47.36,0,0.45,0.89,-0.03,-0.74,-0.97
1:25:12.600 PM,18.69,3.1,-54.63,0.05,0.31,0.91,-0.9,1.16,0.01,27.4,-0.17,-47.35,0,0.46,0.88,-0.37,-0.44,-0.92
1:25:12.646 PM,18.96,3.34,-54.64,0.06,0.31,0.91,-1.18,1.15,0.18,27.77,0.14,-47.33,0,0.46,0.88,-0.41,-0.45,-0.57
1:25:12.753 PM,18.82,3.18,-54.62,0.05,0.31,0.9,-1.3,1.38,0,27.55,0.03,-47.26,0,0.46,0.88,-0.39,-0.36,-1.09
1:25:12.795 PM,19.21,3.3,-54.63,0.06,0.32,0.91,-1.18,1.17,-0.03,27.67,0.45,-47.27,0.01,0.46,0.88,-0.63,-0.28,-1.01
1:25:12.892 PM,19.13,3.07,-54.64,0.05,0.31,0.9,-1.37,1.32,0.04,27.85,0.18,-47.26,0,0.47,0.88,-0.6,-0.27,-0.96
1:25:12.978 PM,18.69,3.28,-54.64,0.05,0.31,0.91,-1.59,1.5,0.13,27.39,0.11,-47.25,0,0.46,0.88,-0.61,-0.18,-1.08
1:25:13.101 PM,18.98,3.1,-54.63,0.05,0.31,0.91,-1.56,1.09,0.02,27.75,0.1,-47.26,0,0.46,0.88,-0.8,-0.05,-0.99
1:25:13.154 PM,18.87,3.18,-54.64,0.05,0.31,0.91,-1.42,1.43,0.04,27.6,-0.06,-47.25,0,0.46,0.88,-0.76,-0.04,-1.1
1:25:13.198 PM,18.81,3.27,-54.64,0.05,0.31,0.91,-1.21,1.36,-0.05,27.4,0.01,-47.26,0,0.46,0.88,-0.87,-0.1,-1.07
1:25:13.514 PM,18.8,3.15,-54.66,0.05,0.31,0.91,-1.29,1.23,-0.01,27.52,-0.02,-47.27,0,0.46,0.88,-0.53,-0.26,-1.07
1:25:13.514 PM,18.81,3.23,-54.67,0.05,0.31,0.91,-1.26,1.31,0.08,27.52,-0.04,-47.27,0,0.46,0.88,-0.48,-0.28,-0.98
1:25:13.514 PM,18.68,3.18,-54.66,0.05,0.31,0.91,-1.47,1.27,-0.02,27.33,-0.03,-47.26,0,0.46,0.88,-0.61,-0.19,-1.08
1:25:13.514 PM,18.77,3.32,-54.67,0.06,0.31,0.91,-1.37,1.26,0.07,27.55,-0.1,-47.27,0,0.46,0.88,-0.63,-0.17,-0.97
1:25:13.594 PM,18.59,3.22,-54.67,0.05,0.31,0.91,-1.27,1.37,0.01,27.42,-0.06,-47.26,0,0.46,0.88,-0.69,-0.22,-0.98
1:25:13.665 PM,18.82,3.26,-54.68,0.05,0.31,0.91,-1.33,1.21,-0.01,27.69,0.1,-47.25,0,0.46,0.88,-0.47,-0.35,-0.97
1:25:13.736 PM,18.94,3.19,-54.69,0.05,0.31,0.91,-1.58,1.24,0.09,27.59,-0.02,-47.24,0,0.46,0.88,-0.58,-0.23,-1.02
1:25:13.821 PM,18.95,3.17,-54.68,0.05,0.31,0.91,-1.09,1.27,0,27.55,0.03,-47.24,0,0.46,0.88,-0.38,-0.41,-0.99
1:25:13.898 PM,18.93,3.25,-54.69,0.05,0.31,0.91,-1.19,1.27,0.04,27.44,0.06,-47.23,0,0.46,0.88,-0.6,-0.42,-0.89
1:25:14.008 PM,18.67,3.36,-54.69,0.06,0.31,0.91,-1.72,1.34,0.18,27.31,-0.02,-47.21,0,0.46,0.88,-0.47,-0.27,-1.01
1:25:14.088 PM,18.57,3.11,-54.68,0.05,0.31,0.91,-1.49,1.11,0.14,27.55,-0.2,-47.21,0,0.46,0.88,-0.5,-0.46,-0.67
1:25:14.139 PM,18.7,3.18,-54.66,0.05,0.31,0.91,-1.44,1.05,0.27,27.59,-0.16,-47.15,0,0.46,0.88,-0.68,-0.47,-0.63
1:25:14.192 PM,19.07,3.12,-54.63,0.05,0.31,0.91,-1.48,1.34,0.05,27.52,0.31,-47.09,0.01,0.46,0.88,-1.03,-0.1,-0.85
1:25:14.292 PM,18.98,3.02,-54.63,0.05,0.31,0.91,-1.36,1.35,0.11,27.48,0.04,-47.06,0,0.46,0.88,-0.79,-0.24,-1.01
1:25:14.354 PM,18.91,3.07,-54.62,0.05,0.31,0.91,-1.76,1.27,-0.05,27.42,0.25,-47.06,0,0.46,0.88,-0.84,-0.15,-1.28
1:25:14.511 PM,18.53,3.36,-54.64,0.06,0.3,0.91,-1.6,1.44,-0.05,27.16,-0.04,-47.1,0,0.45,0.88,-1.25,0.18,-1.25
1:25:14.511 PM,18.66,3.25,-54.65,0.05,0.31,0.91,-1.8,1.45,0.02,27.24,0,-47.13,0,0.46,0.89,-1.16,0.38,-1.15
1:25:14.554 PM,18.38,3.07,-54.66,0.05,0.3,0.91,-1.6,1.56,-0.08,27.19,-0.23,-47.14,0,0.45,0.88,-1.18,0.47,-1.41
1:25:14.643 PM,18.45,3.24,-54.68,0.05,0.3,0.91,-1.82,1.31,-0.05,27.08,-0.38,-47.2,-0.01,0.45,0.89,-1.02,0.17,-1.4
1:25:14.721 PM,18.34,3.16,-54.7,0.05,0.3,0.91,-1.76,1.39,-0.01,26.85,-0.14,-47.26,0,0.45,0.89,-0.94,0.07,-1.2
1:25:14.806 PM,17.81,3.37,-54.71,0.06,0.29,0.91,-1.19,1.37,-0.03,27.05,-0.31,-47.28,-0.01,0.45,0.89,-0.83,0.19,-0.84
1:25:14.872 PM,18.97,3.14,-54.72,0.05,0.31,0.91,-1.98,1.88,-0.35,27.58,0.08,-47.25,0,0.47,0.89,-0.79,1.4,-2.95
1:25:15.037 PM,18.58,2.5,-54.78,0.04,0.31,0.91,-2.26,1.61,-0.05,26.61,-1.32,-47.55,-0.02,0.44,0.88,-1.54,1.57,-2.77
1:25:15.037 PM,18.28,2.93,-54.8,0.05,0.3,0.91,-1.54,1.34,0.14,26.59,-1.37,-47.81,-0.02,0.44,0.89,-1.05,0.32,-1.24
1:25:15.109 PM,18.25,3.1,-54.79,0.05,0.3,0.91,-1.86,1.47,0.05,26.52,-1.17,-47.84,-0.02,0.44,0.89,-1.07,0.31,-1.05
1:25:15.177 PM,17.77,2.85,-54.79,0.05,0.29,0.91,-1.32,1.34,0.11,26.25,-1.6,-47.84,-0.03,0.44,0.89,-0.79,-0.11,-0.76
1:25:15.242 PM,17.7,3.25,-54.78,0.05,0.29,0.91,-1.11,1.05,-0.02,26.22,-1.21,-47.8,-0.02,0.44,0.89,-0.4,-0.77,-0.77
1:25:15.360 PM,17.51,3.04,-54.79,0.05,0.29,0.91,-1.31,1.39,-0.1,26.21,-1.47,-47.76,-0.03,0.44,0.89,-0.87,-0.14,-1.18
1:25:15.400 PM,18.46,2.81,-54.81,0.05,0.3,0.91,-1.24,0.98,0.04,26.29,-1.45,-47.79,-0.02,0.44,0.88,-0.27,-0.92,-0.73
1:25:15.482 PM,18.63,2.66,-54.81,0.04,0.31,0.91,-1.76,0.87,0.3,26.46,-1.25,-47.74,-0.02,0.44,0.89,-0.24,-1.52,0.44
1:25:15.569 PM,19.33,2.87,-54.78,0.05,0.32,0.91,-1.45,1.52,0.05,26.32,-0.61,-47.51,-0.01,0.45,0.9,0.27,-1.44,1.58
1:25:15.640 PM,17.22,3.73,-54.78,0.06,0.28,0.92,-1.6,1.56,0.37,25.8,-0.31,-47.11,-0.01,0.43,0.89,-0.95,0.24,1.35
1:25:15.760 PM,17.87,2.75,-54.73,0.05,0.29,0.9,-3.97,-4.66,0.63,26.96,-1.23,-46.75,-0.02,0.45,0.88,-0.91,0.24,2.71
1:25:15.811 PM,18.2,3.61,-54.64,0.06,0.3,0.91,-2.53,1.93,0.75,27.58,-0.55,-46.18,-0.01,0.46,0.88,-0.3,-0.39,2.68
1:25:15.874 PM,18.28,3.46,-54.54,0.06,0.3,0.91,-1.39,3.92,0.47,27.16,0.39,-45.61,0.01,0.46,0.89,0.46,-1.2,0.74
1:25:16.000 PM,16.91,3.79,-54.47,0.06,0.28,0.92,-2.72,-0.02,0.25,25.69,-0.19,-45.34,0,0.43,0.89,-0.35,-1.09,0.09
1:25:16.043 PM,16.11,4.3,-54.44,0.07,0.27,0.92,-3.03,1.24,0.98,26.64,0.77,-45.17,0.01,0.45,0.89,-0.68,-2.69,3.36
1:25:16.097 PM,15.85,3.95,-54.3,0.07,0.26,0.92,-3.27,2.66,1.91,27.45,1.21,-44.5,0.02,0.46,0.89,-1.44,-2.17,4.48
1:25:16.195 PM,16.9,3.56,-54.02,0.06,0.28,0.92,-3.15,0.56,0.37,28.29,2.29,-43.65,0.04,0.48,0.89,0.32,-3.02,3.12
1:25:16.232 PM,16.21,3.76,-53.97,0.06,0.27,0.92,-1.85,1.56,0.45,27.66,2.34,-43.02,0.04,0.46,0.87,2.61,-5.76,2.76
1:25:16.323 PM,16.86,3.35,-53.91,0.06,0.28,0.91,-1.7,0.86,-0.02,27.47,3.2,-42.44,0.06,0.46,0.88,1.62,-4.07,0.52
1:25:16.417 PM,15.01,4.19,-53.92,0.07,0.25,0.92,-1.73,1.6,0.34,26.58,3.88,-42.21,0.07,0.45,0.9,-1.16,-0.82,1.83
1:25:16.463 PM,14.9,4.32,-53.88,0.07,0.25,0.92,-1.36,1.09,-0.11,28.22,4.62,-41.77,0.08,0.47,0.87,0.77,-0.75,1.05
1:25:16.606 PM,16.82,3.91,-53.9,0.06,0.27,0.91,-1.15,0.65,-0.17,28.48,4.74,-41.45,0.08,0.47,0.87,1.31,-1.82,0.04
1:25:16.656 PM,17.05,4.08,-53.94,0.07,0.28,0.93,-0.51,-0.18,-0.69,28.66,5.15,-41.29,0.09,0.48,0.88,0.63,-1.03,-1.64
1:25:16.737 PM,15.31,3.55,-54.05,0.06,0.25,0.92,-1.12,-0.23,-0.85,28.84,4.32,-41.38,0.07,0.48,0.86,1.21,-0.89,-2.09
1:25:16.775 PM,17.13,4.34,-54.19,0.07,0.28,0.92,-0.63,0.9,-0.52,29.22,5.02,-41.54,0.09,0.49,0.87,-0.62,0.14,-3.18
1:25:16.884 PM,16.4,3.97,-54.28,0.07,0.27,0.91,-1.97,1.14,-0.71,28.91,4.54,-41.87,0.08,0.48,0.87,-0.98,1.02,-4.05
1:25:16.948 PM,17.28,3.46,-54.4,0.06,0.29,0.92,-1.33,1.34,-0.18,29.14,3.83,-42.33,0.07,0.48,0.86,-1.07,1.27,-4.09
1:25:17.015 PM,14.7,6.98,-54.43,0.12,0.24,0.92,-1.38,1.99,-0.81,25.83,4.58,-42.79,0.08,0.44,0.9,-1.09,-0.27,-3.89
1:25:17.130 PM,15.95,2.96,-54.56,0.05,0.26,0.92,-1.73,2.05,-0.36,27.63,2.98,-43.23,0.05,0.46,0.88,-3.33,1.89,-3.99
1:25:17.161 PM,15.03,5.38,-54.63,0.09,0.25,0.92,-1.5,1.6,0.21,26.68,3.3,-43.68,0.06,0.44,0.88,-1.11,0.89,-2.31
1:25:17.236 PM,16.78,3.72,-54.6,0.06,0.28,0.92,-2.35,2.05,0.38,28.23,3.11,-43.88,0.05,0.47,0.88,-0.86,0.11,-1.83
1:25:17.317 PM,14.43,3.95,-54.55,0.07,0.24,0.91,-3.07,2.44,1.09,26.7,2.28,-44,0.04,0.44,0.88,-5.21,2.08,0.04
1:25:17.422 PM,16.69,3.97,-54.4,0.07,0.28,0.93,-2.28,1.14,0.65,28.54,3.23,-43.83,0.06,0.48,0.88,-2.05,0.08,-0.21
1:25:17.462 PM,14.99,3.92,-54.31,0.07,0.25,0.92,-1.23,1.44,-0.19,26.62,2.76,-43.71,0.05,0.44,0.89,-0.24,-1.45,-1
1:25:17.569 PM,16.08,3.96,-54.34,0.07,0.27,0.92,-0.92,0.98,0.24,26.74,2.75,-43.7,0.05,0.45,0.89,-1.11,-0.11,-0.24
1:25:17.614 PM,15.86,3.97,-54.31,0.07,0.26,0.92,-1.5,1.07,0.05,26.99,3.28,-43.58,0.06,0.45,0.89,-1.19,-0.01,-0.35
1:25:17.750 PM,15.49,3.96,-54.31,0.07,0.26,0.92,-2.44,1.66,0.43,26.9,2.66,-43.48,0.05,0.45,0.89,-1.98,1.91,-0.17
1:25:17.787 PM,15.8,3.57,-54.26,0.06,0.26,0.93,-3.72,1.34,0.46,26.61,2.75,-43.34,0.05,0.45,0.89,-2.97,3.15,-1
1:25:17.852 PM,13.73,4.36,-54.2,0.07,0.23,0.92,-2.05,1.06,0.13,25.99,1.92,-43.34,0.03,0.43,0.89,-1.52,1.05,-0.48
1:25:17.912 PM,14.88,3.84,-54.19,0.06,0.25,0.93,-0.86,0.8,-0.41,26.74,1.99,-43.25,0.03,0.45,0.89,-0.95,-1.01,-1.46
1:25:18.083 PM,14.76,4.1,-54.26,0.07,0.24,0.92,-0.91,1.07,-0.92,26.14,2.32,-43.32,0.04,0.44,0.9,-0.28,-1.65,-3.13
1:25:18.083 PM,14.81,3.83,-54.41,0.06,0.25,0.93,-1.5,1.73,-0.59,25.98,1.96,-43.64,0.03,0.44,0.9,-2.17,0.39,-4.12
1:25:18.208 PM,15.05,3.83,-54.51,0.06,0.25,0.93,-1.66,2.04,-0.53,25.6,1.87,-44.11,0.03,0.43,0.9,-1.3,0.94,-3.65
1:25:18.304 PM,15.04,3.61,-54.6,0.06,0.25,0.93,-1.48,1.92,-0.08,25.79,1.08,-44.51,0.02,0.43,0.89,-0.24,1.16,-2.24
1:25:18.304 PM,15.06,3.4,-54.62,0.06,0.25,0.92,-0.73,1.34,0.34,25.71,1.08,-44.69,0.02,0.43,0.88,-0.53,-0.31,-0.35
1:25:18.423 PM,14.52,3.54,-54.57,0.06,0.24,0.92,-0.6,0.46,0.49,25.94,1.28,-44.59,0.02,0.43,0.89,-0.74,-0.11,-0.12
1:25:18.470 PM,14.81,3.62,-54.51,0.06,0.25,0.93,-1.53,0.84,0.97,26.42,1.37,-44.45,0.02,0.45,0.9,-1.98,-0.19,0.76
1:25:18.570 PM,15.16,4.25,-54.37,0.07,0.25,0.93,-1.77,1.01,0.89,26.55,1.95,-44.17,0.03,0.45,0.89,-2.4,-0.63,0.65
1:25:18.656 PM,14.44,4.28,-54.24,0.07,0.24,0.93,-2.34,0.74,0.75,25.49,1.94,-43.91,0.03,0.43,0.9,-1.53,-1,1.09
1:25:18.697 PM,14.92,3.92,-54.13,0.07,0.25,0.92,-2.47,1.45,1.2,25.67,2.15,-43.59,0.04,0.43,0.9,-3,1.14,1.05
1:25:18.799 PM,15,4.06,-53.96,0.07,0.25,0.93,-0.79,0.79,0.45,25.57,1.92,-43.27,0.03,0.43,0.89,-0.44,-0.98,0.57
1:25:18.851 PM,15.12,4.14,-53.9,0.07,0.25,0.93,-0.53,0.64,-0.13,25.31,2.61,-43.03,0.05,0.43,0.91,1.64,-1.93,0.2
1:25:18.942 PM,14.88,4.33,-53.93,0.07,0.25,0.93,-2.1,2.01,0.23,25.51,2.73,-42.84,0.05,0.44,0.91,-0.53,1.69,-0.57
1:25:19.007 PM,15,3.76,-53.9,0.06,0.25,0.93,-2.69,2.32,0.34,26.14,1.85,-42.77,0.03,0.44,0.89,-1.57,3.02,-1.46
1:25:19.053 PM,14.71,3.92,-53.86,0.07,0.24,0.93,-1.68,1.68,-0.43,25.65,1.64,-42.83,0.03,0.43,0.89,0.76,1.15,-2.06
1:25:19.206 PM,13.49,4.59,-53.93,0.08,0.22,0.93,-2.54,2.92,0.54,23.82,1.54,-42.98,0.03,0.4,0.91,-3.13,2.57,-1.28
1:25:19.206 PM,13.88,3.09,-53.86,0.05,0.23,0.93,-1.21,1.11,0.82,25.44,0.1,-43.02,0,0.42,0.88,-3.87,0.89,0.55
1:25:19.294 PM,14.43,4.18,-53.74,0.07,0.24,0.93,-0.04,0.47,-0.4,25.61,1.54,-42.78,0.03,0.43,0.9,1.58,-4.27,-0.62
1:25:19.367 PM,15.59,3.62,-53.81,0.06,0.26,0.92,-0.58,1.46,-0.15,25.34,2.33,-42.72,0.04,0.43,0.92,1.07,-3.47,-1.16
1:25:19.453 PM,15.24,3.58,-53.84,0.06,0.25,0.93,-1.33,2.11,0.44,25.19,2.04,-42.73,0.04,0.43,0.91,-1.99,0.32,-0.67
1:25:19.557 PM,14.73,3.51,-53.78,0.06,0.24,0.93,-1.02,1.73,0.09,25.1,1.82,-42.68,0.03,0.42,0.9,-0.58,-0.03,-0.93
1:25:19.600 PM,14.16,3.76,-53.78,0.06,0.24,0.93,-1.15,1.68,0.27,24.58,1.7,-42.66,0.03,0.41,0.91,-0.77,0.27,-0.46
1:25:19.688 PM,14.48,3.5,-53.74,0.06,0.24,0.93,-1.6,1.05,0.15,25.3,1.75,-42.57,0.03,0.43,0.9,-0.92,0.1,-0.38
1:25:19.748 PM,14.49,3.66,-53.73,0.06,0.24,0.93,-1.23,1.19,-0.06,25.04,1.72,-42.47,0.03,0.42,0.9,-0.56,-0.37,-1.06
1:25:19.864 PM,14.49,3.69,-53.75,0.06,0.24,0.93,-1.5,1.34,-0.1,24.94,1.94,-42.48,0.03,0.42,0.91,-0.5,-0.29,-1.13
1:25:19.939 PM,14.88,3.41,-53.77,0.06,0.25,0.93,-1.37,1.08,0.02,25.26,1.77,-42.49,0.03,0.43,0.9,-0.37,-0.14,-0.92
1:25:19.984 PM,14.5,3.58,-53.78,0.06,0.24,0.93,-1.13,1.35,0.05,24.8,1.74,-42.48,0.03,0.42,0.9,-0.42,-0.25,-0.83
1:25:20.081 PM,14.43,3.48,-53.78,0.06,0.24,0.93,-1.02,1.1,0.01,25.01,1.59,-42.44,0.03,0.42,0.9,-0.11,-0.78,-0.82
1:25:20.128 PM,14.67,3.69,-53.78,0.06,0.24,0.93,-0.92,1.02,0.06,25.04,1.95,-42.41,0.03,0.42,0.9,-0.23,-0.85,-0.67
1:25:20.238 PM,14.72,3.66,-53.78,0.06,0.24,0.93,-1.28,1.34,0.18,25.2,1.94,-42.35,0.03,0.43,0.9,-0.54,-0.18,-0.55
1:25:20.276 PM,14.95,3.7,-53.77,0.06,0.25,0.93,-1.28,1.23,0.12,25.38,2.08,-42.28,0.04,0.43,0.9,-0.6,-0.3,-0.48
1:25:20.360 PM,14.91,3.66,-53.76,0.06,0.25,0.93,-1.34,1.23,0.01,25.37,2.08,-42.19,0.04,0.43,0.9,-0.5,-0.38,-0.77
1:25:20.450 PM,14.82,3.71,-53.76,0.06,0.25,0.93,-1.44,1.4,-0.05,25.12,2.03,-42.15,0.04,0.42,0.9,-0.52,-0.38,-0.93
1:25:20.569 PM,14.68,3.78,-53.78,0.06,0.24,0.93,-1.45,1.32,-0.02,24.98,2.03,-42.14,0.04,0.42,0.9,-0.63,-0.21,-0.92
1:25:20.610 PM,14.82,3.65,-53.79,0.06,0.25,0.93,-1.62,1.4,0.05,25.27,1.97,-42.12,0.03,0.43,0.9,-0.85,0.04,-1.05
1:25:20.670 PM,14.74,3.67,-53.79,0.06,0.24,0.93,-1.31,1.21,-0.01,25.2,2.01,-42.12,0.03,0.42,0.9,-0.63,-0.29,-1.01
1:25:20.789 PM,14.8,3.72,-53.8,0.06,0.25,0.93,-1.24,1.33,-0.02,24.95,2.2,-42.12,0.04,0.42,0.9,-0.73,-0.21,-0.95
1:25:20.837 PM,14.61,3.58,-53.81,0.06,0.24,0.93,-1.81,1.61,0.08,25.01,1.87,-42.11,0.03,0.42,0.91,-0.91,0.27,-1.03
1:25:20.955 PM,14.43,3.46,-53.81,0.06,0.24,0.93,-1.4,1.3,-0.05,24.93,1.69,-42.1,0.03,0.42,0.9,-0.56,-0.25,-1.08
1:25:20.993 PM,14.51,3.62,-53.82,0.06,0.24,0.93,-1.18,1.32,-0.01,24.77,1.87,-42.11,0.03,0.42,0.91,-0.23,-0.7,-1
1:25:21.038 PM,14.29,3.6,-53.83,0.06,0.24,0.93,-0.98,1.15,0.02,24.94,1.91,-42.11,0.03,0.42,0.9,-0.4,-0.55,-0.85
1:25:21.134 PM,14.93,3.58,-53.84,0.06,0.25,0.93,-1.27,0.92,0.05,25.41,2.06,-42.08,0.04,0.43,0.9,-0.27,-0.99,-0.7
1:25:21.237 PM,14.77,3.75,-53.84,0.06,0.25,0.93,-1.49,1.31,0.07,24.94,2.29,-42.03,0.04,0.42,0.91,-0.76,-0.23,-0.85
1:25:21.285 PM,14.44,3.77,-53.84,0.06,0.24,0.93,-1.55,1.43,0.11,24.88,2.1,-42,0.04,0.42,0.9,-1.01,0.32,-0.87
1:25:21.368 PM,14.5,3.58,-53.83,0.06,0.24,0.93,-1.44,1.24,0.05,25.23,2.09,-41.97,0.04,0.43,0.9,-0.64,-0.14,-0.78
1:25:21.435 PM,14.67,3.68,-53.83,0.06,0.24,0.93,-1.32,1.35,-0.05,25.18,2.22,-41.93,0.04,0.42,0.9,-0.49,-0.37,-1.1
1:25:21.542 PM,14.63,3.55,-53.85,0.06,0.24,0.93,-1.38,1.31,-0.08,25.1,2.11,-41.94,0.04,0.42,0.9,-0.59,-0.27,-1.22
1:25:21.588 PM,14.39,3.62,-53.87,0.06,0.24,0.93,-1.6,1.45,0,24.9,2.06,-41.97,0.04,0.42,0.91,-0.89,0.2,-1.18
1:25:21.680 PM,14.49,3.53,-53.87,0.06,0.24,0.93,-1.44,1.3,-0.01,24.98,1.76,-41.99,0.03,0.42,0.9,-0.7,-0.1,-1.04
1:25:21.732 PM,14.68,3.59,-53.88,0.06,0.24,0.93,-0.96,1.01,-0.07,24.96,1.98,-41.99,0.03,0.42,0.9,0.03,-0.79,-0.95
1:25:21.813 PM,14.67,3.65,-53.9,0.06,0.24,0.93,-0.87,1.26,-0.08,24.87,2.11,-41.98,0.04,0.42,0.91,0.19,-0.41,-0.94
1:25:21.949 PM,14.69,3.73,-53.92,0.06,0.24,0.93,-1.43,1.45,0.17,24.9,1.91,-41.97,0.03,0.42,0.9,-0.69,0.26,-0.78
1:25:22.004 PM,14.6,3.63,-53.91,0.06,0.24,0.93,-1.63,1.45,0.21,25.12,1.83,-41.93,0.03,0.42,0.9,-0.87,0.38,-0.75
1:25:22.045 PM,14.46,3.53,-53.88,0.06,0.24,0.93,-1.2,1.31,0.06,24.92,1.72,-41.88,0.03,0.42,0.9,-0.33,0.1,-0.77
1:25:22.109 PM,14.53,3.61,-53.88,0.06,0.24,0.93,-1.29,1.31,0.08,24.93,1.81,-41.84,0.03,0.42,0.9,-0.48,0.37,-0.7
1:25:22.194 PM,14.57,3.57,-53.88,0.06,0.24,0.93,-1.79,1.56,0.15,24.96,1.65,-41.79,0.03,0.42,0.9,-1.02,0.82,-0.95
1:25:22.285 PM,14.35,3.52,-53.86,0.06,0.24,0.93,-1.74,1.5,0.08,25.03,1.44,-41.78,0.02,0.42,0.9,-1.04,0.6,-1.05
1:25:22.356 PM,14.42,3.53,-53.86,0.06,0.24,0.93,-1.37,1.31,-0.04,24.99,1.35,-41.78,0.02,0.42,0.9,-0.71,-0.03,-1.04
1:25:22.478 PM,14.36,3.49,-53.87,0.06,0.24,0.93,-1.18,1.18,-0.06,24.93,1.38,-41.78,0.02,0.42,0.9,-0.23,-0.56,-1.14
1:25:22.538 PM,14.34,3.44,-53.89,0.06,0.24,0.93,-0.85,1.03,-0.18,24.98,1.32,-41.79,0.02,0.42,0.9,-0.34,-1.24,-1.21
1:25:22.587 PM,14.59,3.57,-53.93,0.06,0.24,0.93,-0.31,0.68,-0.18,24.99,1.6,-41.82,0.03,0.42,0.9,0.27,-2.54,-1.05
1:25:22.653 PM,14.88,3.73,-53.97,0.06,0.25,0.93,-0.61,0.89,-0.16,25.09,2.03,-41.82,0.04,0.42,0.9,0.34,-2.17,-1.03
1:25:22.812 PM,14.75,3.64,-54,0.06,0.25,0.93,-0.83,0.89,-0.09,25.09,2.17,-41.82,0.04,0.42,0.9,-0.34,-0.91,-1
1:25:22.812 PM,14.78,3.72,-54.02,0.06,0.24,0.93,-1.24,1.11,-0.11,25.17,2.23,-41.82,0.04,0.42,0.9,-0.5,-0.66,-1.13
1:25:22.918 PM,14.64,3.77,-54.05,0.06,0.24,0.93,-1.43,1.23,-0.02,25.03,2.25,-41.83,0.04,0.42,0.9,-0.57,-0.47,-0.99
1:25:22.975 PM,14.78,3.86,-54.06,0.06,0.25,0.93,-1.56,1.22,0.05,25.2,2.15,-41.82,0.04,0.43,0.9,-0.65,-0.25,-0.86
1:25:23.099 PM,14.76,3.68,-54.06,0.06,0.25,0.93,-1.55,1.26,0.08,25.23,2.25,-41.8,0.04,0.42,0.9,-0.69,-0.13,-0.84
1:25:23.099 PM,14.76,3.73,-54.05,0.06,0.24,0.93,-1.49,1.37,0.11,25.16,2.17,-41.77,0.04,0.42,0.9,-0.76,0.05,-0.92
1:25:23.199 PM,14.68,3.7,-54.04,0.06,0.24,0.93,-1.15,1.12,-0.1,25,2.16,-41.75,0.04,0.42,0.9,-0.5,-0.31,-1.03
1:25:23.330 PM,15.05,3.81,-54.07,0.06,0.25,0.93,-0.93,0.82,-0.11,24.96,2.2,-41.75,0.04,0.42,0.9,-0.18,-0.48,-0.89
1:25:23.330 PM,14.79,3.93,-54.09,0.07,0.25,0.93,-1.53,0.86,-0.02,25.05,2.26,-41.73,0.04,0.43,0.91,-0.78,0.24,0.3
1:25:23.434 PM,14.54,4.01,-54.11,0.07,0.24,0.93,-2.44,1.99,-0.15,25.46,2.37,-41.52,0.04,0.43,0.91,-1.75,2.06,-1.08
1:25:23.480 PM,14.45,3.37,-54.14,0.06,0.24,0.93,-3.74,3.06,0.08,25.33,1.31,-41.53,0.02,0.43,0.91,-3.62,4.27,-2.85
1:25:23.621 PM,14.47,3.47,-54.13,0.06,0.24,0.93,-3.13,2.3,-0.3,24.45,0.83,-41.81,0.01,0.41,0.9,-3.18,3.25,-3.41
1:25:23.659 PM,13.94,3.3,-54.19,0.06,0.23,0.93,-2.96,1.42,-0.71,23.93,0.15,-42.17,0,0.4,0.9,-1.15,0.82,-3.08
1:25:23.765 PM,13.19,2.97,-54.3,0.05,0.22,0.93,-1.66,1.35,-0.19,23.17,-0.68,-42.48,-0.01,0.39,0.91,-1.42,0.36,-1.65
1:25:23.815 PM,13.57,3.36,-54.34,0.06,0.23,0.93,-0.47,0.37,-0.07,23.49,-0.16,-42.58,0,0.39,0.9,-0.05,-1.35,-0.64
1:25:23.905 PM,13.89,3.64,-54.36,0.06,0.23,0.93,0.03,0.44,0.18,23.44,0.5,-42.52,0.01,0.4,0.92,0.63,-1.68,0.15
1:25:24.018 PM,13.93,3.58,-54.34,0.06,0.23,0.93,-0.35,0.8,0.45,23.87,0.4,-42.34,0.01,0.4,0.91,-0.2,-0.42,0.69
1:25:24.018 PM,14.1,3.69,-54.28,0.06,0.23,0.93,-0.65,0.63,0.27,24.57,0.57,-42.07,0.01,0.41,0.91,0.49,-0.91,0.52
1:25:24.121 PM,14.38,3.7,-54.25,0.06,0.24,0.93,-0.66,0.82,0.07,24.75,0.84,-41.83,0.01,0.42,0.91,0.63,-1.54,-0.04
1:25:24.185 PM,14.48,3.81,-54.25,0.06,0.24,0.93,-1.02,0.95,-0.01,24.69,1.09,-41.68,0.02,0.42,0.91,0.3,-1.31,-0.79
1:25:24.293 PM,14.52,3.94,-54.26,0.07,0.24,0.93,-0.86,0.75,-0.06,24.41,1.26,-41.64,0.02,0.41,0.91,0.13,-1.4,-0.62
1:25:24.339 PM,14.41,4.03,-54.27,0.07,0.24,0.93,-0.83,0.9,0.05,24.38,1.31,-41.58,0.02,0.41,0.91,-0.18,-1.18,-0.26
1:25:24.423 PM,14.47,3.84,-54.27,0.06,0.24,0.93,-1.05,1.11,-0.02,24.82,1.33,-41.46,0.02,0.42,0.91,-0.34,-0.69,-0.53
1:25:24.489 PM,14.48,4.07,-54.29,0.07,0.24,0.93,-1.92,1.75,0.05,24.73,1.68,-41.38,0.03,0.42,0.91,-0.8,0.79,-1.16
1:25:24.595 PM,14.26,3.91,-54.29,0.07,0.24,0.93,-2.13,1.84,0.13,24.51,1.2,-41.4,0.02,0.41,0.9,-1.76,1.81,-1.27
1:25:24.643 PM,13.88,3.91,-54.27,0.07,0.23,0.93,-1.85,1.56,-0.04,24.27,0.77,-41.44,0.01,0.41,0.91,-1.16,0.89,-1.42
1:25:24.711 PM,14.2,3.62,-54.29,0.06,0.24,0.93,-1.52,1.44,-0.31,24.53,0.8,-41.5,0.01,0.41,0.91,-0.42,-0.13,-1.79
1:25:24.868 PM,14.16,3.93,-54.34,0.07,0.24,0.93,-1.73,1.63,-0.17,24.14,0.87,-41.61,0.02,0.41,0.91,-0.66,0.31,-1.91
1:25:24.868 PM,13.89,3.82,-54.38,0.06,0.23,0.93,-1.51,1.46,0.13,24.13,0.43,-41.75,0.01,0.41,0.91,-1.03,0.68,-0.98
1:25:24.943 PM,14.07,3.45,-54.37,0.06,0.23,0.93,-1.31,1.37,0.05,24.67,0.34,-41.74,0.01,0.42,0.9,-0.64,0.25,-0.87
1:25:25.019 PM,13.87,3.8,-54.37,0.06,0.23,0.93,-1.18,1.13,0,24.12,0.4,-41.71,0.01,0.4,0.9,-0.27,-0.39,-1.15
1:25:25.105 PM,13.97,3.6,-54.38,0.06,0.23,0.93,-0.83,1.04,0.04,24.26,0.35,-41.73,0.01,0.41,0.91,-0.5,-0.89,-0.69
1:25:25.198 PM,14.25,3.86,-54.38,0.06,0.24,0.93,-1.16,1.07,-0.02,24.64,0.71,-41.68,0.01,0.42,0.91,-0.29,-0.83,-0.78
1:25:25.255 PM,14.36,3.6,-54.39,0.06,0.24,0.93,-1.57,1.31,-0.05,24.9,0.74,-41.64,0.01,0.42,0.9,-0.31,-0.22,-1.24
1:25:25.337 PM,14.42,3.76,-54.41,0.06,0.24,0.93,-1.15,1.23,-0.15,24.4,0.78,-41.67,0.01,0.41,0.91,-0.07,-0.52,-1.2
1:25:25.409 PM,14.13,3.87,-54.44,0.06,0.23,0.93,-1.32,1.38,-0.05,24.32,0.59,-41.69,0.01,0.41,0.91,-0.5,0.05,-1.14
1:25:25.518 PM,14.01,3.78,-54.45,0.06,0.23,0.93,-1.46,1.41,0.07,24.4,0.51,-41.71,0.01,0.41,0.91,-0.44,0.1,-0.98
1:25:25.569 PM,14.18,3.74,-54.45,0.06,0.24,0.93,-1.31,1.37,0.11,24.51,0.6,-41.7,0.01,0.41,0.91,-0.24,-0.02,-0.82
1:25:25.674 PM,14.32,3.67,-54.44,0.06,0.24,0.93,-1.55,1.41,0.11,24.67,0.67,-41.67,0.01,0.42,0.91,-0.53,0.25,-0.88
1:25:25.718 PM,14.11,3.68,-54.44,0.06,0.23,0.93,-1.59,1.6,0.08,24.72,0.36,-41.64,0.01,0.42,0.91,-0.58,0.42,-1.06
1:25:25.771 PM,14.1,3.57,-54.43,0.06,0.23,0.93,-1.45,1.31,-0.03,24.6,0.31,-41.65,0.01,0.41,0.9,-0.41,-0.02,-1.08
1:25:25.849 PM,14.24,3.55,-54.45,0.06,0.24,0.93,-1.37,1.38,0.01,24.59,0.35,-41.65,0.01,0.42,0.91,-0.63,0.13,-1.11
1:25:25.935 PM,14.13,3.68,-54.45,0.06,0.23,0.93,-1.26,1.31,-0.06,24.62,0.21,-41.67,0,0.41,0.9,-0.59,-0.02,-1.17
1:25:26.050 PM,14.04,3.55,-54.47,0.06,0.23,0.93,-1.18,1.23,-0.02,24.58,0.03,-41.69,0,0.41,0.9,-0.45,-0.44,-1.09
1:25:26.085 PM,14.18,3.48,-54.48,0.06,0.24,0.93,-1.04,1.03,-0.16,24.57,0.21,-41.69,0,0.41,0.9,-0.4,-0.8,-1.24
1:25:26.205 PM,14.13,3.65,-54.52,0.06,0.23,0.93,-1.17,0.95,-0.09,24.45,0.35,-41.73,0.01,0.41,0.91,-0.6,-0.66,-1.01
1:25:26.247 PM,14.13,3.96,-54.54,0.07,0.23,0.93,-1.74,1.5,0.28,24.22,0.39,-41.72,0.01,0.41,0.91,-1.34,0.75,-0.6
1:25:26.311 PM,14.03,3.61,-54.5,0.06,0.23,0.93,-1.69,1.37,0.11,24.43,-0.17,-41.65,0,0.41,0.9,-0.75,0.34,-0.95
1:25:26.400 PM,13.94,3.7,-54.49,0.06,0.23,0.93,-0.98,1.02,-0.18,24.42,0.07,-41.64,0,0.41,0.9,-0.26,-1.15,-1.12
1:25:26.485 PM,14.27,3.65,-54.53,0.06,0.24,0.93,-1.05,1.15,-0.22,24.58,0.29,-41.65,0.01,0.42,0.91,-0.31,-1.05,-1.31
1:25:26.604 PM,14.14,3.81,-54.57,0.06,0.24,0.93,-1.39,1.15,-0.15,24.71,0.31,-41.7,0.01,0.42,0.91,-0.37,-0.66,-1.21
1:25:26.641 PM,13.94,3.82,-54.6,0.06,0.23,0.93,-0.82,1.65,-0.02,24.52,0.26,-41.72,0,0.42,0.91,-0.73,0.12,-0.75
1:25:26.697 PM,14.24,3.72,-54.62,0.06,0.24,0.93,-1.42,1.69,0.18,24.17,0.38,-41.68,0.01,0.41,0.91,-1.07,0.61,-0.83
1:25:26.824 PM,13.98,3.73,-54.6,0.06,0.23,0.93,-1.76,1.56,0.21,24.2,0.22,-41.65,0,0.41,0.91,-0.68,0.49,-0.95
1:25:26.969 PM,13.98,3.57,-54.57,0.06,0.23,0.93,-1.47,1.47,0.22,24.47,0.03,-41.63,0,0.41,0.91,-0.93,0.65,-0.95
1:25:26.969 PM,13.99,3.48,-54.55,0.06,0.23,0.93,-1.17,1.07,0.08,24.26,-0.21,-41.62,0,0.41,0.9,-0.26,-0.49,-1.05
1:25:27.059 PM,13.91,3.57,-54.55,0.06,0.23,0.93,-0.85,1.39,-0.03,24.07,-0.07,-41.62,0,0.41,0.91,-0.4,-0.65,-1.06
1:25:27.094 PM,14.2,3.71,-54.56,0.06,0.24,0.93,-1.44,1.46,0.07,24.27,0.11,-41.63,0,0.41,0.91,-0.68,-0.18,-1.02
1:25:27.195 PM,13.99,3.58,-54.56,0.06,0.23,0.93,-1.74,1.46,0.17,24.45,-0.02,-41.62,0,0.41,0.91,-0.95,0.38,-1.02
1:25:27.232 PM,14.2,3.57,-54.54,0.06,0.24,0.93,-1.24,1.25,0.02,24.21,-0.11,-41.62,0,0.41,0.9,-0.41,-0.41,-1.02
1:25:27.312 PM,14.12,3.73,-54.55,0.06,0.23,0.93,-1.37,1.17,-0.2,24.35,0.04,-41.62,0,0.41,0.91,0.24,-1.15,-1.1
1:25:27.404 PM,14.02,3.62,-54.58,0.06,0.23,0.93,-1.44,1.27,-0.15,24.35,0.14,-41.63,0,0.41,0.91,0.08,-0.96,-1.18
1:25:27.535 PM,14.07,3.53,-54.62,0.06,0.23,0.93,-1.36,1.37,0.15,24.22,0.22,-41.65,0,0.41,0.91,-0.56,-0.26,-0.94
1:25:27.535 PM,14.01,3.53,-54.6,0.06,0.23,0.93,-1.49,1.44,0.22,24.24,0.29,-41.63,0.01,0.41,0.91,-0.62,0.12,-0.8
1:25:27.628 PM,13.86,3.48,-54.58,0.06,0.23,0.93,-1.31,1.28,0.11,24.44,0.06,-41.6,0,0.41,0.9,-0.44,-0.34,-0.76
1:25:27.723 PM,14.02,3.55,-54.57,0.06,0.23,0.93,-1.26,1.19,0.1,24.54,0.2,-41.56,0,0.41,0.91,-0.38,-0.63,-0.85
1:25:27.785 PM,14.03,3.5,-54.56,0.06,0.23,0.93,-1.33,1.32,0.07,24.39,0.18,-41.53,0,0.41,0.91,-0.5,-0.34,-0.89
1:25:27.909 PM,13.97,3.57,-54.56,0.06,0.23,0.93,-1.56,1.37,0.12,24.32,0.25,-41.51,0,0.41,0.91,-0.55,-0.18,-0.89
1:25:27.909 PM,14.12,3.52,-54.55,0.06,0.23,0.93,-1.42,1.36,0.08,24.45,0.24,-41.48,0,0.41,0.91,-0.67,-0.01,-0.95
1:25:27.987 PM,14.03,3.53,-54.55,0.06,0.23,0.93,-1.37,1.26,0.05,24.38,0.15,-41.47,0,0.41,0.9,-0.44,-0.27,-0.98
1:25:28.095 PM,14.13,3.39,-54.55,0.06,0.23,0.93,-1.15,1.03,-0.15,24.82,0.04,-41.46,0,0.42,0.9,-0.39,-0.65,-1.19
1:25:28.168 PM,13.93,3.89,-54.58,0.07,0.23,0.93,-1.23,1.27,-0.08,23.89,0.42,-41.48,0.01,0.41,0.92,0.41,-0.56,-1.02
1:25:28.286 PM,13.93,3.21,-54.6,0.05,0.23,0.93,-0.93,1.19,0.13,24.65,-0.1,-41.48,0,0.41,0.9,-1.17,-0.11,-0.7
1:25:28.333 PM,14.22,3.67,-54.59,0.06,0.24,0.93,-1.12,0.91,-0.22,24.56,0.42,-41.43,0.01,0.42,0.91,0.3,-1.5,-1.23
1:25:28.375 PM,13.68,3.58,-54.63,0.06,0.23,0.93,-1.96,2.03,0.29,23.96,0.43,-41.46,0.01,0.41,0.91,-1.1,0.98,-0.74
1:25:28.475 PM,14.09,3.36,-54.6,0.06,0.23,0.93,-1.24,1.16,0.22,24.74,0.06,-41.41,0,0.41,0.9,-1.11,0.49,-0.42
1:25:28.526 PM,14.1,3.59,-54.57,0.06,0.23,0.93,-1.13,1.11,-0.01,24.54,0.31,-41.32,0.01,0.41,0.91,0.37,-0.98,-0.98
1:25:28.653 PM,13.97,3.55,-54.58,0.06,0.23,0.93,-1.11,1.56,0.29,24.12,0.18,-41.31,0,0.41,0.91,-0.63,0.36,-0.53
1:25:28.691 PM,13.91,3.57,-54.54,0.06,0.23,0.93,-1.35,1.09,0.11,24.64,0.25,-41.23,0,0.41,0.9,-0.51,-0.19,-0.47
1:25:28.763 PM,13.79,3.47,-54.54,0.06,0.23,0.93,-1.24,1.38,0.05,24.63,0.28,-41.14,0,0.42,0.91,-0.15,-0.21,-0.87
1:25:28.843 PM,13.92,3.64,-54.54,0.06,0.23,0.93,-1.39,1.49,0.09,24.5,0.27,-41.12,0,0.41,0.91,-0.61,0.24,-0.89
1:25:28.935 PM,14.03,3.5,-54.53,0.06,0.23,0.93,-1.34,1.27,0.05,24.63,0.13,-41.1,0,0.42,0.91,-0.43,0.03,-0.93
1:25:28.984 PM,13.9,3.51,-54.53,0.06,0.23,0.93,-1.24,1.35,0.05,24.59,0.1,-41.08,0,0.41,0.9,-0.55,-0.15,-0.95
1:25:29.078 PM,13.98,3.52,-54.53,0.06,0.23,0.93,-1.09,1.16,-0.08,24.79,0.03,-41.07,0,0.42,0.9,-0.31,-0.65,-1.02
1:25:29.145 PM,14.21,3.59,-54.55,0.06,0.24,0.93,-1.19,1.11,-0.08,24.76,0.34,-41.07,0.01,0.42,0.9,-0.42,-0.66,-1.13
1:25:29.244 PM,13.95,3.52,-54.58,0.06,0.23,0.93,-1,1.05,-0.11,24.8,0.13,-41.08,0,0.42,0.9,-0.48,-0.97,-1.1
1:25:29.300 PM,14.2,3.67,-54.6,0.06,0.24,0.93,-1.14,0.95,-0.12,24.79,0.39,-41.09,0.01,0.42,0.91,-0.03,-1.44,-1.16
1:25:29.373 PM,14.15,3.61,-54.63,0.06,0.24,0.93,-1.48,1.26,-0.07,24.64,0.48,-41.11,0.01,0.42,0.91,-0.63,-0.6,-1.2
1:25:29.450 PM,14.25,3.58,-54.65,0.06,0.24,0.93,-1.25,1.19,-0.08,24.74,0.45,-41.13,0.01,0.42,0.9,-0.67,-0.48,-1.21
1:25:29.542 PM,14.14,3.57,-54.67,0.06,0.23,0.93,-0.98,1.17,-0.08,24.6,0.38,-41.16,0.01,0.41,0.9,-0.57,-0.63,-1.17
1:25:29.593 PM,14.07,3.68,-54.69,0.06,0.23,0.93,-0.9,1.11,-0.1,24.76,0.39,-41.18,0.01,0.42,0.9,-0.31,-0.9,-1.07
1:25:29.667 PM,14.03,3.75,-54.71,0.06,0.23,0.93,-1.07,1.23,-0.11,24.7,0.62,-41.19,0.01,0.42,0.91,-0.29,-0.9,-1.12
1:25:29.746 PM,14.2,3.67,-54.74,0.06,0.24,0.93,-1.2,1.15,-0.14,24.71,0.63,-41.2,0.01,0.42,0.91,-0.23,-1.07,-1.21
1:25:29.886 PM,14.48,3.59,-54.77,0.06,0.24,0.93,-1.47,1.35,-0.1,24.89,1.01,-41.23,0.02,0.42,0.91,-0.16,-0.76,-1.18
1:25:29.941 PM,14.27,3.55,-54.79,0.06,0.24,0.93,-1.11,1.87,0.19,24.81,0.43,-41.25,0.01,0.42,0.91,-1.97,0.72,-0.82
1:25:29.982 PM,13.58,3.35,-54.77,0.06,0.23,0.93,-1.46,1.33,-0.12,25.37,-0.04,-41.22,0,0.42,0.89,-0.35,-0.21,-1.62
1:25:30.072 PM,14.18,4.01,-54.8,0.07,0.23,0.93,-1.19,1.08,-0.11,24.3,1.1,-41.31,0.02,0.41,0.92,0.79,-0.85,-1.08
1:25:30.126 PM,14.46,3.81,-54.82,0.06,0.24,0.93,-2.44,2.06,0.58,24.47,0.95,-41.31,0.02,0.42,0.92,-2.01,2.73,-0.14
1:25:30.223 PM,14.13,3.08,-54.74,0.05,0.23,0.93,-1.98,1.5,0.34,24.88,-0.4,-41.18,-0.01,0.41,0.89,-1.92,1.66,-0.56
1:25:30.308 PM,14.06,3.45,-54.7,0.06,0.23,0.93,-0.72,1.03,-0.07,24.51,-0.11,-41.1,0,0.41,0.9,-0.02,-1.63,-0.93
1:25:30.382 PM,14.2,3.75,-54.72,0.06,0.24,0.93,-0.87,0.71,0.02,24.7,0.36,-41.09,0.01,0.42,0.91,0.35,-2.24,-0.72
1:25:30.467 PM,13.97,3.82,-54.73,0.06,0.23,0.93,-1.2,1.13,0.14,24.51,0.59,-41.04,0.01,0.42,0.91,0.02,-1.01,-0.8
1:25:30.532 PM,14.29,3.61,-54.71,0.06,0.24,0.93,-0.94,1.11,0.27,24.74,0.51,-41,0.01,0.42,0.9,-0.63,-0.6,-0.35
1:25:30.609 PM,14.46,3.72,-54.68,0.06,0.24,0.93,-0.83,0.81,0.14,25,0.7,-40.9,0.01,0.42,0.91,0.11,-1.54,-0.27
1:25:30.714 PM,14.81,3.64,-54.67,0.06,0.25,0.93,-1.06,0.99,-0.05,25.1,1.11,-40.78,0.02,0.43,0.91,-0.13,-1.01,-0.69
1:25:30.753 PM,15.2,3.57,-54.68,0.06,0.25,0.93,-1.19,1.25,0.06,25.16,1.07,-40.73,0.02,0.43,0.91,-0.38,-0.21,-0.86
1:25:30.833 PM,15.08,3.67,-54.68,0.06,0.25,0.93,-1.47,1.39,0.03,25.2,1.19,-40.7,0.02,0.43,0.9,-0.47,-0.16,-0.92
1:25:30.911 PM,14.19,3.51,-54.69,0.06,0.23,0.93,-1.44,1.34,-0.08,25.04,0.65,-40.68,0.01,0.42,0.9,-0.59,-0.31,-1.16
1:25:30.977 PM,14.64,3.97,-54.71,0.07,0.24,0.93,-1.51,1.27,-0.07,25.12,1.22,-40.7,0.02,0.42,0.9,-0.56,-0.31,-1.36
1:25:31.069 PM,13.74,3.82,-54.72,0.06,0.23,0.93,-1.39,1.34,-0.13,24.71,0.49,-40.75,0.01,0.41,0.9,-0.56,-0.19,-1.32
1:25:31.132 PM,14.1,3.96,-54.75,0.07,0.23,0.93,-1.35,1.21,0.02,24.7,0.98,-40.8,0.02,0.42,0.9,-0.71,-0.14,-1.05
1:25:31.238 PM,14.24,3.52,-54.76,0.06,0.24,0.93,-1.22,1.2,-0.02,25.07,0.63,-40.8,0.01,0.42,0.9,-0.44,-0.19,-0.91
1:25:31.278 PM,14.9,3.72,-54.77,0.06,0.25,0.93,-1.55,1.4,0.09,25.35,1.03,-40.78,0.02,0.43,0.9,-0.55,-0.08,-1.03
1:25:31.365 PM,14.34,3.52,-54.76,0.06,0.24,0.93,-1.4,1.26,-0.02,24.93,0.7,-40.78,0.01,0.42,0.9,-0.49,-0.37,-0.95
1:25:31.440 PM,14.54,3.81,-54.78,0.06,0.24,0.93,-1.37,1.22,0.04,24.92,1.02,-40.77,0.02,0.42,0.91,-0.51,-0.36,-0.92
1:25:31.533 PM,13.92,3.91,-54.78,0.07,0.23,0.93,-1.34,1.31,0.08,24.75,0.86,-40.75,0.01,0.42,0.9,-0.59,-0.17,-0.81
1:25:31.625 PM,13.83,4.05,-54.78,0.07,0.23,0.93,-1.15,1.24,0.19,24.53,0.62,-40.71,0.01,0.41,0.91,-0.56,-0.16,-0.55
1:25:31.698 PM,13.75,4.03,-54.76,0.07,0.23,0.93,-1.34,1.19,0.15,24.82,0.6,-40.64,0.01,0.42,0.91,-0.47,-0.16,-0.51
1:25:31.735 PM,14.25,3.72,-54.74,0.06,0.24,0.93,-1.6,1.24,0.15,25.44,0.81,-40.56,0.01,0.43,0.9,-0.77,0.03,-0.66
1:25:31.807 PM,14.81,3.56,-54.73,0.06,0.25,0.93,-1.63,1.4,0.16,25.39,0.82,-40.5,0.01,0.43,0.91,-0.84,0.09,-0.91
1:25:31.906 PM,14.58,3.53,-54.71,0.06,0.24,0.93,-1.56,1.5,0.02,25.17,0.77,-40.48,0.01,0.43,0.9,-0.74,0.19,-1.05
1:25:32.075 PM,14.48,3.58,-54.72,0.06,0.24,0.93,-1.42,1.44,-0.03,24.91,0.69,-40.48,0.01,0.42,0.9,-0.6,0.15,-1.2
1:25:32.075 PM,14.28,3.49,-54.73,0.06,0.24,0.93,-1.4,1.44,-0.04,24.79,0.63,-40.5,0.01,0.42,0.9,-0.54,0.16,-1.15
1:25:32.150 PM,14.55,3.28,-54.74,0.05,0.24,0.93,-1.44,1.37,-0.02,25.22,0.43,-40.52,0.01,0.42,0.9,-0.59,-0.02,-1.17
1:25:32.190 PM,14.46,3.35,-54.75,0.06,0.24,0.93,-1.25,1.18,-0.07,25.28,0.45,-40.54,0.01,0.43,0.9,-0.47,-0.5,-1.15
1:25:32.305 PM,15.06,2.96,-54.77,0.05,0.25,0.93,-1.44,1.29,-0.11,25.42,0.43,-40.56,0.01,0.43,0.9,-0.68,-0.45,-1.35
1:25:32.354 PM,14.65,3.44,-54.8,0.06,0.24,0.93,-1.39,1.02,-0.02,25.51,0.56,-40.61,0.01,0.43,0.9,-0.37,-1.02,-1.02
1:25:32.445 PM,14.52,3.3,-54.81,0.06,0.24,0.93,-1.08,1.17,0,25.04,0.6,-40.61,0.01,0.42,0.91,-0.51,-0.85,-0.92
1:25:32.592 PM,14.11,3.84,-54.82,0.06,0.23,0.93,-1.19,1.21,0.05,24.71,0.66,-40.59,0.01,0.42,0.9,-0.34,-0.57,-0.93
1:25:32.592 PM,14.14,3.77,-54.82,0.06,0.24,0.93,-0.91,1.01,0.02,24.71,0.72,-40.57,0.01,0.42,0.9,-0.27,-0.91,-0.69
1:25:32.705 PM,14.25,3.77,-54.83,0.06,0.24,0.93,-1.08,1.21,0.06,24.77,0.66,-40.52,0.01,0.42,0.91,-0.44,-0.68,-0.76
1:25:32.741 PM,14.36,3.73,-54.83,0.06,0.24,0.93,-1.15,1.16,0.01,24.79,0.97,-40.48,0.02,0.42,0.91,-0.21,-0.79,-0.89
1:25:32.836 PM,14.48,3.72,-54.83,0.06,0.24,0.93,-1.21,1.27,0.1,24.85,0.93,-40.46,0.02,0.42,0.9,-0.25,-0.56,-0.94
1:25:32.876 PM,14.37,3.8,-54.83,0.06,0.24,0.93,-1.34,1.27,-0.03,25.13,1.15,-40.44,0.02,0.42,0.9,-0.27,-0.47,-1.02
1:25:32.957 PM,14.38,3.73,-54.84,0.06,0.24,0.93,-1.3,1.32,-0.02,24.85,0.76,-40.44,0.01,0.42,0.91,-0.58,-0.24,-1.15
1:25:33.075 PM,14.51,3.88,-54.85,0.06,0.24,0.93,-1.56,1.37,-0.05,25.14,1.01,-40.46,0.02,0.42,0.9,-0.65,-0.16,-1.22
1:25:33.111 PM,14.3,3.7,-54.87,0.06,0.24,0.93,-1.6,1.5,-0.06,24.89,0.87,-40.49,0.02,0.42,0.9,-0.9,0.22,-1.29
1:25:33.192 PM,14.32,3.67,-54.89,0.06,0.24,0.93,-1.74,1.44,-0.11,24.94,0.81,-40.53,0.01,0.42,0.9,-0.73,0.16,-1.47
1:25:33.285 PM,14.07,3.56,-54.91,0.06,0.23,0.93,-1.73,1.37,-0.11,24.88,0.49,-40.59,0.01,0.42,0.9,-0.69,-0.11,-1.35
1:25:33.402 PM,14.32,3.45,-54.94,0.06,0.24,0.93,-1.48,1.21,-0.09,25.09,0.48,-40.64,0.01,0.42,0.9,-0.72,-0.07,-1.27
1:25:33.439 PM,14.56,3.58,-54.96,0.06,0.24,0.93,-1.66,1.21,0.15,24.97,0.47,-40.68,0.01,0.42,0.91,-0.5,-0.31,-0.9
1:25:33.499 PM,14.5,3.34,-54.94,0.06,0.24,0.92,-1.37,1.3,0.16,25.5,0.07,-40.66,0,0.43,0.9,-0.6,-0.18,-0.76
1:25:33.590 PM,14.61,3.56,-54.93,0.06,0.24,0.93,-1.24,1.14,-0.03,25.36,0.67,-40.61,0.01,0.43,0.9,-0.32,-0.85,-0.92
1:25:33.719 PM,14.35,3.28,-54.94,0.06,0.24,0.93,-0.63,1.02,0.03,24.86,0.27,-40.6,0,0.42,0.9,-0.31,-1.02,-0.86
1:25:33.719 PM,14.58,3.77,-54.95,0.06,0.24,0.93,-0.88,1.08,0.07,25.11,1.08,-40.57,0.02,0.42,0.9,-0.18,-0.95,-0.68
1:25:33.802 PM,13.58,3.92,-54.94,0.07,0.22,0.93,-1.08,1.24,0.08,25.08,0.66,-40.52,0.01,0.42,0.9,-0.33,-0.67,-0.65
1:25:33.894 PM,14.46,3.8,-54.94,0.06,0.24,0.93,-1.04,1.26,0.08,24.66,0.98,-40.46,0.02,0.42,0.9,-0.62,-0.36,-0.77
1:25:34.019 PM,14.01,3.85,-54.94,0.06,0.23,0.93,-1.3,1.29,0.03,24.75,0.76,-40.42,0.01,0.42,0.91,-0.3,-0.43,-0.92
1:25:34.062 PM,14.35,3.88,-54.94,0.07,0.24,0.93,-1.25,1.3,0.02,24.94,0.9,-40.4,0.02,0.42,0.91,-0.57,-0.11,-1.11
1:25:34.096 PM,14.44,3.63,-54.95,0.06,0.24,0.93,-1.41,1.33,-0.09,24.83,1.05,-40.41,0.02,0.42,0.9,-0.5,-0.08,-1.21
1:25:34.250 PM,14.61,3.77,-54.97,0.06,0.24,0.93,-1.69,1.35,0.08,25.35,0.77,-40.44,0.01,0.43,0.9,-0.66,0.1,-1.06
1:25:34.284 PM,14.03,3.88,-54.97,0.06,0.23,0.93,-1.81,1.51,-0.08,25.02,0.56,-40.44,0.01,0.42,0.91,-0.91,0.15,-1.17
1:25:34.332 PM,13.79,4,-54.99,0.07,0.23,0.93,-1.85,1.61,-0.07,24.39,0.6,-40.46,0.01,0.41,0.91,-1.15,0.47,-1.3
1:25:34.423 PM,13.72,4.08,-55.01,0.07,0.23,0.93,-1.63,1.44,0.05,24.35,0.34,-40.5,0.01,0.41,0.91,-0.76,0.29,-1.01
1:25:34.543 PM,13.35,4.1,-55.01,0.07,0.22,0.93,-1.39,1.39,0.01,24.35,0.5,-40.49,0.01,0.41,0.91,-0.7,0.19,-0.82
1:25:34.593 PM,13.57,3.97,-55.01,0.07,0.23,0.93,-1.43,1.36,0.15,24.41,0.32,-40.46,0.01,0.41,0.9,-0.73,0.27,-0.76
1:25:34.650 PM,13.63,3.71,-55,0.06,0.23,0.93,-1.48,1.34,0.11,24.74,0.34,-40.42,0.01,0.42,0.9,-0.74,0.08,-0.81
1:25:34.731 PM,14.09,3.6,-54.99,0.06,0.23,0.93,-1.33,1.27,0.04,24.5,0.28,-40.38,0,0.41,0.9,-0.44,-0.23,-1.03
1:25:34.849 PM,14.22,3.59,-54.99,0.06,0.24,0.93,-1.12,1.14,0.06,24.93,0.29,-40.38,0.01,0.42,0.9,-0.51,-0.49,-0.95
1:25:34.881 PM,14.07,3.71,-54.99,0.06,0.23,0.93,-1.12,1.24,0.06,24.72,0.42,-40.37,0.01,0.42,0.91,-0.39,-0.5,-0.84
1:25:34.967 PM,14.17,3.86,-54.99,0.06,0.24,0.93,-1.26,1.18,0.05,25.05,0.42,-40.34,0.01,0.42,0.9,-0.46,-0.34,-0.89
1:25:35.012 PM,14.04,3.82,-54.99,0.06,0.23,0.93,-1.19,1.18,-0.02,24.78,0.48,-40.32,0.01,0.42,0.9,-0.61,-0.54,-0.99
1:25:35.109 PM,14.43,3.6,-55,0.06,0.24,0.93,-1.34,1.31,-0.04,24.61,0.59,-40.31,0.01,0.41,0.91,-0.63,-0.35,-1.15
1:25:35.212 PM,14.06,3.65,-55.02,0.06,0.23,0.93,-1.56,1.31,0,24.79,0.36,-40.33,0.01,0.42,0.9,-0.66,-0.08,-1.23
1:25:35.255 PM,14.35,3.38,-55.03,0.06,0.24,0.92,-1.4,1.09,0.01,25.17,0.43,-40.36,0.01,0.42,0.9,-0.62,-0.33,-0.95
1:25:35.340 PM,14.89,2.99,-55.03,0.05,0.25,0.93,-1.15,1.23,-0.04,25.34,0.34,-40.34,0.01,0.43,0.9,-0.48,-0.4,-0.98
1:25:35.434 PM,14.87,3.39,-55.05,0.06,0.25,0.93,-1.27,1.18,0,25.35,0.7,-40.34,0.01,0.43,0.9,-0.53,-0.54,-1.13
1:25:35.478 PM,14.25,3.3,-55.06,0.06,0.24,0.93,-1.21,1.18,-0.06,25.09,0.28,-40.35,0,0.42,0.9,-0.42,-0.52,-1.03
1:25:35.573 PM,14.31,3.7,-55.07,0.06,0.24,0.93,-1.25,1.29,0.05,24.81,0.46,-40.35,0.01,0.42,0.9,-0.22,-0.4,-0.99
1:25:35.667 PM,14.26,3.83,-55.08,0.06,0.24,0.93,-1.27,1.22,0.03,24.74,0.56,-40.34,0.01,0.42,0.91,-0.27,-0.53,-0.95
1:25:35.709 PM,14.13,3.64,-55.08,0.06,0.23,0.93,-1.11,1.19,0.04,24.78,0.37,-40.33,0.01,0.42,0.9,-0.43,-0.56,-0.82
1:25:35.802 PM,14.26,3.83,-55.08,0.06,0.24,0.93,-1.15,1.21,0.1,24.77,0.69,-40.3,0.01,0.42,0.91,-0.26,-0.63,-0.76
1:25:35.854 PM,14.17,3.73,-55.08,0.06,0.24,0.93,-1.16,1.11,0.09,24.89,0.48,-40.26,0.01,0.42,0.9,-0.18,-0.76,-0.8
1:25:35.966 PM,14.38,3.87,-55.07,0.06,0.24,0.93,-1.21,1.19,0.05,24.92,0.84,-40.22,0.01,0.42,0.91,-0.47,-0.58,-0.89
1:25:36.037 PM,14.39,3.67,-55.07,0.06,0.24,0.93,-1.36,1.33,0.03,24.86,0.67,-40.2,0.01,0.42,0.9,-0.59,-0.32,-0.99
1:25:36.110 PM,14.27,3.81,-55.08,0.06,0.24,0.93,-1.37,1.31,0.02,24.88,0.77,-40.19,0.01,0.42,0.9,-0.5,-0.25,-1.02
1:25:36.223 PM,14.36,3.74,-55.08,0.06,0.24,0.93,-1.37,1.38,-0.03,24.74,0.7,-40.19,0.01,0.42,0.9,-0.59,-0.15,-1.13
1:25:36.268 PM,14.14,3.75,-55.09,0.06,0.24,0.93,-1.52,1.4,-0.04,24.77,0.71,-40.2,0.01,0.42,0.91,-0.65,-0.05,-1.25
1:25:36.349 PM,14.15,3.7,-55.11,0.06,0.23,0.93,-1.43,1.27,-0.11,24.79,0.57,-40.24,0.01,0.42,0.9,-0.54,-0.33,-1.27
1:25:36.403 PM,14.14,3.73,-55.13,0.06,0.24,0.93,-1.47,1.4,-0.11,24.7,0.67,-40.27,0.01,0.42,0.91,-0.65,-0.17,-1.3
1:25:36.503 PM,14.21,3.75,-55.16,0.06,0.24,0.93,-1.37,1.34,-0.05,24.7,0.52,-40.31,0.01,0.42,0.91,-0.62,-0.08,-1.18
1:25:36.553 PM,14.16,3.7,-55.17,0.06,0.24,0.93,-1.24,1.23,-0.02,24.76,0.49,-40.33,0.01,0.42,0.9,-0.31,-0.31,-1.1
1:25:36.640 PM,14.25,3.65,-55.18,0.06,0.24,0.93,-0.95,1.09,-0.14,24.92,0.48,-40.34,0.01,0.42,0.9,-0.05,-0.8,-0.95
1:25:36.776 PM,15.2,3.44,-55.21,0.06,0.25,0.93,-0.95,0.85,-0.1,25.41,0.67,-40.33,0.01,0.43,0.9,0.37,-1.11,-1.07
1:25:36.776 PM,14.69,3.49,-55.24,0.06,0.24,0.93,-1.18,1.29,0.03,25.15,0.5,-40.33,0.01,0.42,0.9,-0.32,-0.61,-0.87
1:25:36.854 PM,14.39,3.62,-55.24,0.06,0.24,0.93,-1.26,1.36,0.16,25.04,0.67,-40.31,0.01,0.42,0.9,-0.6,0.03,-0.6
1:25:36.926 PM,14.49,3.74,-55.23,0.06,0.24,0.93,-1.31,1.34,0.17,24.96,0.77,-40.24,0.01,0.42,0.9,-0.53,-0.15,-0.69
1:25:37.048 PM,14.62,3.75,-55.21,0.06,0.24,0.93,-1.3,1.35,0.13,25.15,0.81,-40.19,0.01,0.42,0.9,-0.53,0.01,-0.79
1:25:37.105 PM,14.55,3.57,-55.2,0.06,0.24,0.93,-1.43,1.44,0,25.21,0.66,-40.15,0.01,0.42,0.9,-0.67,0.22,-1.02
1:25:37.218 PM,14.45,3.74,-55.21,0.06,0.24,0.93,-1.47,1.48,-0.05,24.87,0.59,-40.15,0.01,0.42,0.9,-0.66,0.34,-1.2
1:25:37.249 PM,14.51,3.71,-55.22,0.06,0.24,0.93,-1.6,1.59,-0.14,24.9,0.57,-40.17,0.01,0.42,0.91,-1.06,0.88,-1.4
1:25:37.348 PM,14.36,3.48,-55.25,0.06,0.24,0.93,-1.54,1.49,-0.24,24.89,0.18,-40.23,0,0.42,0.9,-0.82,0.93,-1.72
1:25:37.390 PM,14.32,3.66,-55.3,0.06,0.24,0.93,-1.47,1.51,-0.22,24.61,0.07,-40.33,0,0.41,0.9,-0.79,1.05,-1.62
1:25:37.492 PM,14.06,3.53,-55.34,0.06,0.23,0.93,-1.43,1.76,-0.13,24.7,-0.35,-40.42,-0.01,0.42,0.91,-1.66,1.61,-1.6
1:25:37.579 PM,13.99,3.38,-55.37,0.06,0.23,0.93,-1.98,1.53,-0.2,24.98,-0.63,-40.51,-0.01,0.42,0.9,-1.34,0.92,-1.9
1:25:37.657 PM,14.09,3.39,-55.41,0.06,0.23,0.93,-1.5,1.28,-0.15,24.42,-0.85,-40.64,-0.01,0.41,0.9,-0.4,-0.17,-1.55
1:25:37.698 PM,13.98,3.45,-55.44,0.06,0.23,0.93,-1.21,1.15,0.05,24.47,-0.92,-40.72,-0.02,0.41,0.9,-0.46,-0.48,-0.94
1:25:37.773 PM,14.08,3.47,-55.44,0.06,0.23,0.93,-1.03,1.08,0.15,24.46,-0.69,-40.7,-0.01,0.41,0.9,-0.41,-0.86,-0.53
1:25:38.123 PM,14.21,3.5,-55.43,0.06,0.24,0.93,-0.59,0.77,0.19,24.64,-0.61,-40.63,-0.01,0.41,0.9,0.31,-1.85,-0.15
1:25:38.123 PM,14.09,2.74,-55.41,0.05,0.23,0.93,-0.02,0.37,-0.01,25.65,-0.75,-40.49,-0.01,0.43,0.89,1.05,-3.72,-0.05
1:25:38.123 PM,14.76,4.65,-55.41,0.08,0.25,0.93,-1.24,0.08,-0.04,26.71,2.13,-40.34,0.04,0.46,0.91,0.09,-3.45,0.08
1:25:38.123 PM,14.78,3.66,-55.43,0.06,0.25,0.93,-0.91,1.15,0.65,26.95,0.8,-40.17,0.01,0.46,0.91,0.02,-1.21,0.74
1:25:38.190 PM,14.71,4.01,-55.34,0.07,0.24,0.93,-0.98,0.62,0.35,25.99,1.68,-39.9,0.03,0.44,0.9,-0.43,-0.95,0.75
1:25:38.233 PM,15.06,3.99,-55.29,0.07,0.25,0.93,-0.34,0.25,0.13,26.2,1.69,-39.62,0.03,0.43,0.88,0.21,-2.11,0.4
1:25:38.310 PM,14.56,4.48,-55.28,0.07,0.24,0.92,-0.94,0.76,0.24,25.61,2.16,-39.4,0.04,0.43,0.91,-0.02,-1.66,0.57
1:25:38.408 PM,15.13,4.42,-55.25,0.07,0.25,0.93,-1.64,1.14,0.48,26.04,2.24,-39.16,0.04,0.44,0.9,-0.74,-0.07,0.11
1:25:38.452 PM,14.79,4.31,-55.19,0.07,0.25,0.93,-1.15,0.98,0.07,26.26,2.01,-38.98,0.03,0.44,0.88,0.11,-1.35,-0.58
1:25:38.531 PM,14.87,4.49,-55.19,0.08,0.25,0.93,-0.69,0.71,-0.3,25.93,2.37,-38.91,0.04,0.43,0.89,1.12,-2.84,-1.06
1:25:38.632 PM,14.81,4.63,-55.24,0.08,0.25,0.93,-1.77,1.36,-0.02,25.91,2.89,-38.92,0.05,0.44,0.91,-0.3,-0.95,-1.21
1:25:38.696 PM,14.98,4.51,-55.25,0.08,0.25,0.93,-1.89,1.6,-0.03,26.1,2.76,-38.94,0.05,0.44,0.9,-0.95,0.57,-1.31
1:25:38.808 PM,14.87,4.4,-55.27,0.07,0.25,0.93,-1.33,1.34,-0.21,26.15,2.37,-38.98,0.04,0.44,0.89,-0.56,-0.07,-1.58
1:25:38.858 PM,14.81,4.38,-55.31,0.07,0.25,0.93,-1.34,1.36,-0.18,26,2.4,-39.07,0.04,0.44,0.9,-0.77,-0.09,-1.53
1:25:38.970 PM,14.78,4.37,-55.34,0.07,0.25,0.93,-1.65,1.45,-0.21,25.92,2.39,-39.14,0.04,0.44,0.9,-0.64,0.01,-1.53
1:25:39.008 PM,15.01,4.34,-55.38,0.07,0.25,0.93,-1.3,1.38,-0.25,26.01,2.32,-39.22,0.04,0.44,0.89,-0.79,0.07,-1.53
1:25:39.061 PM,14.64,4.35,-55.43,0.07,0.24,0.93,-1.45,1.36,-0.11,25.93,2.19,-39.29,0.04,0.44,0.89,-0.78,-0.07,-1.44
1:25:39.185 PM,14.73,4.3,-55.46,0.07,0.24,0.93,-1.29,1.31,-0.1,25.87,2.23,-39.36,0.04,0.43,0.9,-0.6,-0.07,-1.31
1:25:39.236 PM,14.87,4.24,-55.48,0.07,0.25,0.93,-1.11,1.19,0,25.88,2.22,-39.4,0.04,0.43,0.89,-0.79,-0.22,-1.01
1:25:39.348 PM,14.92,4.25,-55.49,0.07,0.25,0.93,-1.04,1.16,0.03,25.99,2.19,-39.4,0.04,0.44,0.89,-0.34,-0.57,-0.89
1:25:39.384 PM,14.94,4.31,-55.49,0.07,0.25,0.93,-1.15,1.27,0.1,25.95,2.27,-39.37,0.04,0.44,0.9,-0.18,-0.39,-0.86
1:25:39.479 PM,15.05,4.4,-55.49,0.07,0.25,0.93,-1.31,1.31,0.13,26.03,2.21,-39.35,0.04,0.44,0.9,-0.39,-0.1,-0.82
1:25:39.523 PM,14.78,4.43,-55.47,0.07,0.25,0.93,-1.34,1.4,0.18,25.96,2.27,-39.31,0.04,0.44,0.9,-0.68,0.19,-0.72
1:25:39.617 PM,14.73,4.49,-55.46,0.08,0.24,0.93,-1.43,1.47,0.07,26.04,2.17,-39.26,0.04,0.44,0.89,-0.76,0.33,-0.89
1:25:39.734 PM,14.66,4.28,-55.45,0.07,0.24,0.93,-1.56,1.51,0.01,25.95,2.03,-39.24,0.04,0.44,0.9,-0.79,0.54,-1.14
1:25:39.776 PM,15.12,4.45,-55.46,0.07,0.25,0.92,-1.84,1.44,0.01,26.05,2.02,-39.25,0.04,0.44,0.9,-0.85,0.37,-1.1
1:25:39.890 PM,14.66,4.24,-55.47,0.07,0.24,0.92,-1.73,1.39,0.01,26.18,1.71,-39.26,0.03,0.44,0.89,-0.89,0.47,-1.2
1:25:39.926 PM,15.04,4.25,-55.48,0.07,0.25,0.92,-1.35,1.34,-0.06,25.76,1.79,-39.29,0.03,0.43,0.9,-0.76,0.14,-1.24
1:25:40.026 PM,14.41,4.02,-55.49,0.07,0.24,0.92,-1.52,1.25,-0.01,25.62,1.44,-39.32,0.02,0.43,0.89,-0.53,-0.18,-1.08
1:25:40.061 PM,15.04,4.42,-55.5,0.07,0.25,0.93,-1.18,1.13,-0.1,25.64,2.3,-39.33,0.04,0.43,0.9,-0.56,-0.88,-1.08
1:25:40.228 PM,13.77,4.44,-55.53,0.07,0.23,0.92,-0.81,1.14,-0.18,25.29,1,-39.33,0.02,0.42,0.9,-0.29,-0.82,-1.23
1:25:40.228 PM,15.62,4.74,-55.56,0.08,0.26,0.93,-1.31,1.03,0.12,26.16,2.43,-39.36,0.04,0.44,0.9,-0.58,-0.44,-0.85
1:25:40.295 PM,13.36,4.3,-55.55,0.07,0.22,0.92,-1.4,1.03,0.18,25.83,1.25,-39.34,0.02,0.43,0.89,-0.34,-0.78,-0.31
1:25:40.432 PM,15.28,4.37,-55.54,0.07,0.25,0.93,-0.8,1.19,0.02,25.91,1.83,-39.22,0.03,0.44,0.9,-0.53,-0.57,-0.97
1:25:40.463 PM,15.13,4.26,-55.54,0.07,0.25,0.93,-1.22,0.84,-0.01,26.21,2.1,-39.21,0.04,0.44,0.89,-0.19,-1.04,-0.94
1:25:40.519 PM,14.96,4.53,-55.55,0.08,0.25,0.92,-1.21,1.38,0.1,25.99,2.13,-39.2,0.04,0.44,0.9,-0.62,-0.47,-0.83
1:25:40.607 PM,14.83,4.19,-55.54,0.07,0.25,0.92,-1.39,1.24,-0.05,25.89,2.06,-39.17,0.04,0.44,0.9,-0.57,-0.35,-0.98
1:25:40.685 PM,14.8,4.64,-55.56,0.08,0.25,0.93,-1.18,1.32,-0.13,25.95,2.33,-39.16,0.04,0.44,0.9,-0.48,-0.49,-1.13
1:25:40.745 PM,14.52,4.65,-55.59,0.08,0.24,0.92,-1.34,1.34,0.07,25.57,1.87,-39.17,0.03,0.43,0.89,-0.57,-0.11,-0.95
1:25:40.828 PM,14.52,4.35,-55.59,0.07,0.24,0.93,-1.22,1.23,-0.08,25.87,1.73,-39.16,0.03,0.43,0.89,-0.4,-0.27,-1.18
1:25:40.918 PM,15.36,4.56,-55.61,0.08,0.26,0.93,-1.42,1.21,0.01,25.93,2.32,-39.18,0.04,0.44,0.9,-0.71,-0.27,-1.13
1:25:40.970 PM,14.51,4.55,-55.61,0.08,0.24,0.92,-1.61,1.4,0.02,25.77,2,-39.2,0.03,0.43,0.9,-0.82,-0.15,-1.02
1:25:41.063 PM,15.04,4.39,-55.62,0.07,0.25,0.93,-1.27,1.28,-0.04,26.05,2.02,-39.19,0.04,0.44,0.89,-0.7,-0.13,-1.21
1:25:41.193 PM,14.7,4.54,-55.63,0.08,0.24,0.93,-1.35,1.23,-0.03,25.9,2.1,-39.22,0.04,0.44,0.9,-0.37,-0.52,-1.08
1:25:41.263 PM,14.38,4.43,-55.65,0.07,0.24,0.92,-1.12,1.3,-0.03,25.74,1.77,-39.23,0.03,0.43,0.89,-0.52,-0.34,-0.95
1:25:41.297 PM,15.08,4.55,-55.66,0.08,0.25,0.93,-1.21,1.11,0.01,25.8,2.33,-39.21,0.04,0.43,0.9,-0.55,-0.43,-0.96
1:25:41.384 PM,14.58,4.61,-55.67,0.08,0.24,0.92,-1.31,1.28,0.12,25.82,1.91,-39.2,0.03,0.43,0.9,-0.37,-0.46,-0.9
1:25:41.432 PM,14.65,4.51,-55.66,0.08,0.24,0.93,-1.13,1.24,0.03,25.75,2.01,-39.18,0.03,0.43,0.9,-0.41,-0.43,-0.9
1:25:41.563 PM,14.77,4.63,-55.66,0.08,0.24,0.92,-1.23,1.13,0.15,25.78,2.13,-39.16,0.04,0.43,0.9,-0.45,-0.38,-0.7
1:25:41.602 PM,14.96,4.28,-55.65,0.07,0.25,0.92,-1.25,1.16,0.09,26.19,2.2,-39.11,0.04,0.44,0.89,-0.47,-0.42,-0.76
1:25:41.870 PM,15.04,4.51,-55.64,0.08,0.25,0.93,-1.08,1.2,-0.02,25.96,2.26,-39.07,0.04,0.44,0.9,-0.42,-0.68,-0.9
1:25:41.870 PM,15.15,4.38,-55.65,0.07,0.25,0.93,-1.35,1.19,0,25.99,2.21,-39.05,0.04,0.44,0.9,-0.24,-0.56,-1.04
1:25:41.870 PM,14.98,4.45,-55.66,0.07,0.25,0.92,-1.46,1.53,-0.02,25.94,2.34,-39.05,0.04,0.44,0.9,-0.54,0.1,-1.17
1:25:41.918 PM,15.01,4.59,-55.67,0.08,0.25,0.93,-1.49,1.35,0.01,26.02,2.27,-39.07,0.04,0.44,0.9,-0.76,0,-1
1:25:42.027 PM,14.92,4.35,-55.68,0.07,0.25,0.92,-1.4,1.34,-0.11,26.09,1.98,-39.06,0.03,0.44,0.89,-0.63,-0.27,-1.14
1:25:42.054 PM,14.58,4.79,-55.7,0.08,0.24,0.93,-1.47,1.51,-0.1,25.88,2.27,-39.08,0.04,0.44,0.9,-0.79,0.08,-1.29
1:25:42.126 PM,14.88,4.15,-55.73,0.07,0.25,0.92,-1.51,1.29,-0.11,25.72,2.1,-39.11,0.04,0.43,0.89,-0.66,-0.08,-1.22
1:25:42.224 PM,15.24,4.32,-55.75,0.07,0.25,0.93,-1.29,1.55,-0.09,25.6,2.01,-39.14,0.03,0.43,0.9,-0.48,0.11,-1.41
1:25:42.342 PM,14.88,4.49,-55.78,0.08,0.25,0.93,-1.44,1.28,0.04,26.02,1.94,-39.2,0.03,0.44,0.89,-0.66,0.05,-1.05
1:25:42.383 PM,14.77,4.3,-55.78,0.07,0.24,0.93,-1.44,1.37,-0.01,25.91,2.04,-39.2,0.04,0.44,0.9,-0.55,-0.21,-0.98
1:25:42.453 PM,14.71,4.3,-55.79,0.07,0.24,0.92,-1.3,1.37,0.02,25.47,1.87,-39.19,0.03,0.43,0.9,-0.57,-0.02,-0.91
1:25:42.530 PM,14.86,4.49,-55.79,0.08,0.25,0.92,-1.05,1.4,0.01,25.47,1.6,-39.17,0.03,0.43,0.9,-0.39,0,-1.05
1:25:42.596 PM,14.89,4.09,-55.8,0.07,0.25,0.92,-1.55,1.26,0.07,26.05,1.99,-39.17,0.03,0.44,0.89,-0.15,-0.25,-0.85
1:25:42.700 PM,14.76,4.26,-55.8,0.07,0.25,0.93,-0.98,1.56,-0.02,25.57,1.61,-39.15,0.03,0.43,0.9,-0.5,0.02,-1.14
1:25:42.752 PM,14.79,4.44,-55.81,0.07,0.25,0.93,-1.45,1.11,0.02,26.14,1.99,-39.16,0.03,0.44,0.9,-0.41,-0.31,-0.91
1:25:42.865 PM,14.92,4.14,-55.81,0.07,0.25,0.93,-1.16,1.41,-0.02,26.02,1.67,-39.14,0.03,0.44,0.9,-0.52,-0.27,-1.11
1:25:42.899 PM,14.79,4.39,-55.83,0.07,0.25,0.93,-1.34,1.28,-0.08,25.78,1.98,-39.15,0.03,0.43,0.9,-0.42,-0.22,-1.04
1:25:42.966 PM,15,4.12,-55.85,0.07,0.25,0.93,-1.37,1.34,0,26.03,1.57,-39.15,0.03,0.44,0.89,-0.53,-0.15,-1.19
1:25:43.055 PM,14.74,4.29,-55.85,0.07,0.24,0.92,-1.15,1.09,-0.08,25.91,1.74,-39.18,0.03,0.43,0.89,-0.39,-0.82,-1.13
1:25:44.089 PM,14.94,4.18,-55.88,0.07,0.25,0.93,-1.13,1.18,-0.08,26.06,1.87,-39.19,0.03,0.44,0.89,-0.54,-0.76,-1.18
1:25:44.104 PM,14.91,4.54,-55.9,0.08,0.25,0.93,-1.26,1.15,-0.07,25.9,1.99,-39.21,0.03,0.44,0.9,-0.45,-0.75,-1.14
1:25:44.104 PM,14.59,4.45,-55.91,0.07,0.24,0.92,-1.18,1.21,0.03,25.92,1.82,-39.23,0.03,0.44,0.9,-0.6,-0.43,-0.89
1:25:44.104 PM,14.75,4.54,-55.92,0.08,0.24,0.92,-1.23,1.15,0.08,26.02,1.85,-39.21,0.03,0.44,0.9,-0.55,-0.37,-0.79
1:25:44.104 PM,14.95,4.46,-55.91,0.07,0.25,0.93,-1.1,1.09,0.05,25.95,1.86,-39.17,0.03,0.44,0.9,-0.51,-0.5,-0.85
1:25:44.104 PM,14.36,4.56,-55.91,0.08,0.24,0.93,-1.11,1.31,-0.01,25.68,1.84,-39.14,0.03,0.43,0.9,-0.52,-0.53,-0.98
1:25:44.104 PM,14.83,4.4,-55.92,0.07,0.25,0.93,-1.26,1.1,0.02,25.85,1.94,-39.13,0.03,0.43,0.9,-0.41,-0.57,-1.05
1:25:44.104 PM,14.91,4.5,-55.93,0.08,0.25,0.92,-1.43,1.28,0.05,25.94,2.27,-39.13,0.04,0.44,0.9,-0.46,-0.4,-0.95
1:25:44.104 PM,15.06,4.32,-55.93,0.07,0.25,0.93,-1.42,1.29,0.05,26.18,2.13,-39.12,0.04,0.44,0.9,-0.69,-0.12,-0.92
1:25:44.104 PM,15.2,4.29,-55.93,0.07,0.25,0.93,-1.28,1.22,0,26.23,2.1,-39.1,0.04,0.44,0.89,-0.49,-0.4,-1
1:25:44.104 PM,15.02,4.44,-55.94,0.07,0.25,0.93,-1.16,1.24,-0.02,26.03,2.2,-39.1,0.04,0.44,0.9,-0.47,-0.56,-1.03
1:25:44.104 PM,14.7,4.49,-55.95,0.08,0.24,0.93,-1.32,1.31,0.03,26.06,2.09,-39.1,0.04,0.44,0.89,-0.73,-0.18,-0.89
1:25:44.104 PM,15.08,4.39,-55.95,0.07,0.25,0.93,-1.56,1.4,0.01,26.06,2.07,-39.07,0.04,0.44,0.9,-0.61,-0.05,-1.19
1:25:44.104 PM,14.86,4.47,-55.96,0.07,0.25,0.93,-1.33,1.34,-0.02,25.92,2.11,-39.1,0.04,0.44,0.9,-0.69,-0.19,-1.01
1:25:44.199 PM,14.77,4.53,-55.97,0.08,0.25,0.93,-1.32,1.32,-0.02,25.92,1.92,-39.09,0.03,0.44,0.9,-0.61,-0.19,-1.08
1:25:44.290 PM,14.74,4.61,-55.98,0.08,0.24,0.93,-1.55,1.43,0.01,25.73,1.98,-39.1,0.03,0.43,0.9,-0.6,-0.06,-1.11
1:25:44.338 PM,14.46,4.62,-55.99,0.08,0.24,0.92,-1.43,1.31,-0.02,25.85,1.92,-39.11,0.03,0.43,0.9,-0.66,-0.16,-1.02
1:25:44.431 PM,14.62,4.55,-56,0.08,0.24,0.93,-1.39,1.34,0.02,25.73,1.95,-39.11,0.03,0.43,0.9,-0.77,-0.09,-1.02
1:25:44.526 PM,14.85,4.41,-56.01,0.07,0.25,0.92,-1.11,1.24,-0.01,25.56,1.91,-39.11,0.03,0.43,0.9,-0.75,-0.21,-1.01
1:25:44.572 PM,14.65,4.42,-56.02,0.07,0.24,0.93,-1.16,1.27,-0.02,25.63,1.99,-39.1,0.03,0.43,0.9,-0.38,-0.44,-0.98
1:25:44.669 PM,14.77,4.61,-56.03,0.08,0.25,0.93,-1.21,1.25,0.04,25.82,1.89,-39.09,0.03,0.43,0.9,-0.28,-0.31,-0.95
1:25:44.720 PM,14.62,4.54,-56.03,0.08,0.24,0.92,-1.27,1.27,0.02,25.74,1.88,-39.08,0.03,0.43,0.9,-0.49,-0.3,-0.93
1:25:44.830 PM,14.51,4.68,-56.04,0.08,0.24,0.93,-1.24,1.31,0.02,25.61,2.02,-39.06,0.04,0.43,0.9,-0.57,-0.18,-0.96
1:25:44.897 PM,14.99,4.33,-56.04,0.07,0.25,0.93,-1.28,1.24,0,25.76,2.11,-39.05,0.04,0.43,0.9,-0.55,-0.28,-1
1:25:45.015 PM,15.06,4.34,-56.05,0.07,0.25,0.93,-1.2,1.27,-0.02,25.78,2.08,-39.05,0.04,0.43,0.9,-0.46,-0.32,-1.02
1:25:45.048 PM,14.91,4.46,-56.06,0.07,0.25,0.93,-1.18,1.31,0,25.75,2.03,-39.04,0.04,0.43,0.9,-0.5,-0.25,-1.1
1:25:45.154 PM,14.75,4.52,-56.07,0.08,0.24,0.93,-1.36,1.26,0.03,25.86,2.1,-39.05,0.04,0.44,0.9,-0.59,-0.23,-0.96
1:25:45.215 PM,14.69,4.42,-56.08,0.07,0.24,0.93,-1.4,1.4,0.05,25.94,1.88,-39.04,0.03,0.44,0.9,-0.51,-0.14,-1.05
1:25:45.249 PM,14.88,4.56,-56.08,0.08,0.25,0.93,-1.3,1.13,0.03,26.01,2.05,-39.04,0.04,0.44,0.9,-0.39,-0.41,-0.94
1:25:49.082 PM,14.9,4.32,-56.08,0.07,0.25,0.93,-1.46,1.35,0.06,26.06,1.97,-39.03,0.03,0.44,0.9,-0.71,-0.17,-0.86
1:25:49.082 PM,14.95,4.41,-56.08,0.07,0.25,0.93,-1.39,1.37,0.08,26.04,2.02,-39,0.04,0.44,0.89,-0.76,-0.03,-0.89
1:25:49.082 PM,14.63,4.44,-56.08,0.07,0.24,0.92,-1.35,1.27,0.01,26.03,2.05,-38.98,0.04,0.44,0.9,-0.42,-0.28,-0.91
1:25:49.082 PM,15.09,4.53,-56.08,0.08,0.25,0.92,-1.37,1.34,0.11,25.98,2.36,-38.96,0.04,0.44,0.89,-0.58,-0.14,-0.87
1:25:49.082 PM,14.82,4.48,-56.08,0.08,0.25,0.93,-1.13,1.21,0.05,26.03,1.93,-38.94,0.03,0.44,0.9,-0.49,-0.37,-0.79
1:25:49.082 PM,15.06,4.38,-56.08,0.07,0.25,0.92,-1.16,1.23,0.08,26.07,2.17,-38.9,0.04,0.44,0.9,-0.35,-0.42,-0.75
1:25:49.082 PM,14.98,4.33,-56.07,0.07,0.25,0.92,-1.21,1.39,0.05,26.1,1.99,-38.85,0.03,0.44,0.9,-0.39,-0.26,-0.99
1:25:49.082 PM,15.23,4.45,-56.07,0.07,0.25,0.93,-1.31,1.26,0.03,26.17,2.23,-38.85,0.04,0.44,0.89,-0.43,-0.29,-0.98
1:25:49.082 PM,14.72,4.44,-56.08,0.07,0.24,0.92,-1.28,1.37,0.05,25.85,2.01,-38.84,0.03,0.43,0.9,-0.64,-0.16,-0.9
1:25:49.082 PM,14.91,4.37,-56.08,0.07,0.25,0.93,-1.27,1.23,0,26.16,1.99,-38.82,0.03,0.44,0.89,-0.57,-0.28,-1.05
1:25:49.082 PM,14.7,4.55,-56.09,0.08,0.24,0.93,-1.27,1.18,-0.03,25.93,1.96,-38.82,0.03,0.44,0.9,-0.64,-0.35,-0.98
1:25:49.082 PM,14.99,4.58,-56.1,0.08,0.25,0.93,-1.19,1.21,-0.01,26.07,2.01,-38.81,0.04,0.44,0.9,-0.44,-0.53,-1.08
1:25:49.082 PM,14.66,4.31,-56.11,0.07,0.24,0.93,-1.29,1.16,-0.08,25.94,1.9,-38.82,0.03,0.44,0.89,-0.42,-0.53,-1.11
1:25:49.082 PM,15.17,4.58,-56.13,0.08,0.25,0.92,-1.28,1.18,-0.02,25.98,2.4,-38.83,0.04,0.44,0.9,-0.44,-0.44,-1.08
1:25:49.082 PM,15.08,4.3,-56.14,0.07,0.25,0.92,-1.31,1.29,-0.02,25.9,2.03,-38.84,0.04,0.44,0.9,-0.27,-0.5,-1.15
1:25:49.082 PM,15.36,4.66,-56.15,0.08,0.25,0.92,-1.23,1.22,0,26.13,2.43,-38.85,0.04,0.44,0.9,-0.44,-0.45,-1.03
1:25:49.082 PM,14.8,4.18,-56.16,0.07,0.25,0.93,-1.25,1.26,-0.08,26.19,1.89,-38.85,0.03,0.44,0.89,-0.42,-0.44,-1.02
1:25:49.082 PM,15.18,4.43,-56.18,0.07,0.25,0.92,-1.04,1.25,-0.01,26.09,2.27,-38.85,0.04,0.44,0.89,-0.47,-0.51,-1.04
1:25:49.082 PM,15.05,4.43,-56.19,0.07,0.25,0.93,-1.15,1.14,0,26.08,2.24,-38.85,0.04,0.44,0.9,-0.18,-0.74,-0.98
1:25:49.082 PM,15.14,4.53,-56.2,0.08,0.25,0.92,-1.06,1.28,-0.02,26.07,2.17,-38.84,0.04,0.44,0.89,-0.35,-0.5,-0.99
1:25:49.082 PM,15.05,4.5,-56.21,0.08,0.25,0.93,-1.17,1.15,0.05,26.22,2.24,-38.83,0.04,0.44,0.89,-0.26,-0.53,-0.91
1:25:49.082 PM,15.15,4.58,-56.21,0.08,0.25,0.93,-1.21,1.24,0.02,26.06,2.26,-38.81,0.04,0.44,0.89,-0.31,-0.5,-0.97
1:25:49.082 PM,15.13,4.59,-56.22,0.08,0.25,0.92,-1.14,1.27,-0.03,25.92,2.4,-38.8,0.04,0.44,0.9,-0.46,-0.44,-1.02
1:25:49.082 PM,15.01,4.49,-56.23,0.08,0.25,0.92,-1.09,1.24,-0.04,25.97,2.15,-38.8,0.04,0.44,0.89,-0.27,-0.4,-1.1
1:25:49.082 PM,15.15,4.71,-56.25,0.08,0.25,0.92,-1.3,1.3,0,26.02,2.34,-38.81,0.04,0.44,0.9,-0.5,-0.3,-0.98
1:25:49.082 PM,15.03,4.56,-56.25,0.08,0.25,0.92,-1.32,1.31,-0.02,25.98,2.2,-38.8,0.04,0.44,0.9,-0.42,-0.23,-1.09
1:25:49.082 PM,15.16,4.57,-56.26,0.08,0.25,0.93,-1.21,1.31,-0.01,25.88,2.3,-38.81,0.04,0.44,0.9,-0.58,-0.2,-1.08
1:25:49.082 PM,14.88,4.51,-56.27,0.08,0.25,0.92,-1.21,1.23,-0.07,26.13,2.26,-38.82,0.04,0.44,0.89,-0.42,-0.47,-0.98
1:25:49.082 PM,15.01,4.66,-56.29,0.08,0.25,0.93,-1.49,1.36,0.05,26.13,2.28,-38.81,0.04,0.44,0.9,-0.52,-0.24,-0.96
1:25:49.082 PM,15.18,4.45,-56.29,0.07,0.25,0.93,-1.36,1.25,0.02,26.21,2.18,-38.8,0.04,0.44,0.89,-0.47,-0.34,-1.01
1:25:49.082 PM,15.33,4.46,-56.3,0.07,0.25,0.92,-1.24,1.27,0.02,26.21,2.29,-38.8,0.04,0.44,0.89,-0.56,-0.34,-1.02
1:25:49.082 PM,14.93,4.46,-56.3,0.07,0.25,0.93,-1.19,1.25,0.04,26.11,2.16,-38.79,0.04,0.44,0.89,-0.57,-0.3,-0.89
1:25:49.082 PM,15.17,4.51,-56.31,0.08,0.25,0.93,-1.23,1.22,0.02,26.18,2.23,-38.77,0.04,0.44,0.9,-0.38,-0.4,-0.9
1:25:49.082 PM,15.31,4.55,-56.31,0.08,0.25,0.93,-1.26,1.22,-0.01,26.37,2.45,-38.75,0.04,0.44,0.9,-0.39,-0.46,-0.91
1:25:49.082 PM,15.23,4.5,-56.32,0.08,0.25,0.92,-1.33,1.34,0.11,26.18,2.27,-38.73,0.04,0.44,0.9,-0.67,-0.13,-0.87
1:25:49.082 PM,15.05,4.61,-56.31,0.08,0.25,0.92,-1.37,1.4,0.05,25.98,2.13,-38.7,0.04,0.44,0.9,-0.57,0.08,-0.96
1:25:49.082 PM,15.04,4.52,-56.31,0.08,0.25,0.92,-1.29,1.3,0.05,26.16,2.22,-38.69,0.04,0.44,0.89,-0.47,-0.14,-0.9
1:25:49.082 PM,15.05,4.51,-56.32,0.08,0.25,0.92,-1.26,1.37,0.05,26.09,2.26,-38.67,0.04,0.44,0.89,-0.43,-0.08,-0.92
1:25:49.082 PM,15.23,4.54,-56.32,0.08,0.25,0.93,-1.35,1.34,0.03,26.2,2.27,-38.65,0.04,0.44,0.89,-0.42,-0.06,-0.9
1:25:49.082 PM,15.25,4.5,-56.32,0.08,0.25,0.93,-1.4,1.45,0.08,26.24,2.13,-38.63,0.04,0.44,0.89,-0.31,0.09,-1.02
1:25:49.082 PM,15.15,4.48,-56.32,0.07,0.25,0.92,-1.41,1.39,-0.02,26.09,2.23,-38.63,0.04,0.44,0.9,-0.5,-0.05,-0.99
1:25:49.082 PM,15.19,4.36,-56.33,0.07,0.25,0.93,-1.34,1.4,-0.02,26.16,2.13,-38.62,0.04,0.44,0.9,-0.68,-0.02,-1.07
1:25:49.082 PM,15.16,4.5,-56.34,0.08,0.25,0.92,-1.49,1.37,0.04,26.31,2.2,-38.63,0.04,0.44,0.89,-0.55,-0.24,-1.02
1:25:49.082 PM,14.93,4.5,-56.34,0.08,0.25,0.92,-1.35,1.31,0.01,26.11,1.88,-38.63,0.03,0.44,0.9,-0.55,-0.2,-1.02
1:25:49.082 PM,15.03,4.54,-56.35,0.08,0.25,0.93,-1.29,1.26,-0.03,26.09,2.06,-38.62,0.04,0.44,0.9,-0.5,-0.44,-1.1
1:25:49.082 PM,15.12,4.4,-56.36,0.07,0.25,0.92,-1.09,1.06,-0.05,26.33,2.04,-38.63,0.04,0.44,0.89,-0.43,-0.72,-1.03
1:25:49.082 PM,15.18,4.56,-56.38,0.08,0.25,0.92,-0.98,1.14,-0.05,26.13,2.28,-38.63,0.04,0.44,0.9,-0.4,-0.78,-0.99
1:25:49.082 PM,15.05,4.62,-56.4,0.08,0.25,0.92,-1.08,1.13,0.03,26.04,2.25,-38.63,0.04,0.44,0.89,-0.44,-0.64,-0.94
1:25:49.082 PM,15.3,4.53,-56.4,0.08,0.25,0.92,-1.06,1.15,0.02,26.28,2.26,-38.61,0.04,0.44,0.89,-0.31,-0.61,-0.97
1:25:49.082 PM,15.21,4.62,-56.41,0.08,0.25,0.93,-1.18,1.19,0.03,26.2,2.3,-38.6,0.04,0.44,0.89,-0.35,-0.52,-0.89
1:25:49.189 PM,15.3,4.53,-56.41,0.08,0.25,0.92,-1.1,1.21,-0.03,26.09,2.33,-38.58,0.04,0.44,0.89,-0.41,-0.57,-1
1:25:49.225 PM,15.33,4.7,-56.42,0.08,0.25,0.93,-1.13,1.22,-0.03,26.3,2.51,-38.57,0.04,0.44,0.89,-0.47,-0.51,-1.03
1:25:49.400 PM,15.37,4.6,-56.44,0.08,0.26,0.92,-1.21,1.19,0.02,26.32,2.36,-38.57,0.04,0.44,0.89,-0.51,-0.46,-1.05
1:25:49.400 PM,15.26,4.68,-56.44,0.08,0.25,0.92,-1.11,1.27,-0.02,26.1,2.41,-38.58,0.04,0.44,0.89,-0.47,-0.43,-1.04
1:25:49.479 PM,15.28,4.69,-56.46,0.08,0.25,0.93,-1.43,1.34,0.03,26.23,2.42,-38.58,0.04,0.44,0.89,-0.38,-0.35,-1.18
1:25:49.586 PM,14.98,5.02,-56.46,0.08,0.25,0.92,-1.33,1.2,-0.03,26.11,2.49,-38.6,0.04,0.44,0.89,-0.56,-0.31,-0.99
1:25:49.649 PM,14.75,4.59,-56.47,0.08,0.24,0.92,-1.32,1.37,-0.03,25.83,2.1,-38.59,0.04,0.43,0.89,-0.73,-0.11,-1.12
1:25:49.718 PM,15.06,4.73,-56.49,0.08,0.25,0.93,-1.19,1.18,-0.03,25.86,2.48,-38.6,0.04,0.43,0.9,-0.5,-0.15,-1.09
1:25:49.758 PM,15.53,4.59,-56.5,0.08,0.26,0.92,-1.2,1.22,0,26.01,2.51,-38.61,0.04,0.44,0.9,-0.15,-0.51,-1.08
1:25:49.855 PM,15.65,4.44,-56.51,0.07,0.26,0.92,-1.1,1.3,0.05,26.23,2.4,-38.62,0.04,0.44,0.89,-0.45,-0.37,-0.98
1:25:49.944 PM,15.62,4.54,-56.51,0.08,0.26,0.92,-1.14,1.17,-0.05,26.15,2.69,-38.61,0.05,0.44,0.9,-0.2,-0.65,-1.07
1:25:49.990 PM,15.25,4.77,-56.52,0.08,0.25,0.92,-0.92,1.32,-0.05,25.63,2.65,-38.62,0.05,0.43,0.89,-0.27,-0.44,-0.97
1:25:50.081 PM,15.4,4.44,-56.54,0.07,0.26,0.93,-1.16,1.28,-0.02,26.01,2.55,-38.61,0.04,0.43,0.89,-0.2,-0.27,-1.16
1:25:50.221 PM,15.24,5.14,-56.55,0.09,0.25,0.93,-1.39,1.17,0.05,26.07,2.87,-38.63,0.05,0.44,0.9,-0.37,-0.45,-0.86
1:25:50.221 PM,16.04,4.07,-56.55,0.07,0.27,0.93,-1.25,1.5,-0.04,26.29,2.34,-38.6,0.04,0.44,0.89,-0.63,-0.34,-1.11
1:25:50.305 PM,15.55,4.52,-56.56,0.08,0.26,0.92,-1.17,1.34,-0.15,26.03,2.65,-38.61,0.05,0.44,0.89,-0.23,-0.48,-1.17
1:25:50.394 PM,15.64,4.5,-56.6,0.08,0.26,0.92,-1.13,1.32,0.01,26.06,2.33,-38.63,0.04,0.44,0.89,-0.32,-0.32,-1.15
1:25:50.530 PM,15.11,4.63,-56.6,0.08,0.25,0.92,-1.21,1.3,-0.08,26.14,2.24,-38.65,0.04,0.44,0.89,-0.28,-0.42,-1.11
1:25:50.530 PM,15.39,4.79,-56.62,0.08,0.26,0.93,-1.58,1.28,0.08,26.42,2.65,-38.66,0.05,0.44,0.89,-0.5,-0.18,-0.91
1:25:50.626 PM,15.2,4.96,-56.62,0.08,0.25,0.93,-1.39,1.25,0.1,26.4,2.45,-38.64,0.04,0.44,0.89,-0.44,-0.35,-0.88
1:25:50.698 PM,15.1,4.85,-56.61,0.08,0.25,0.92,-1.5,1.42,0.09,26.44,2.36,-38.62,0.04,0.44,0.89,-0.79,0.08,-0.86
1:25:50.805 PM,15.54,4.6,-56.61,0.08,0.26,0.92,-1.26,1.23,0.12,26.17,2.37,-38.59,0.04,0.44,0.89,-0.78,-0.05,-0.77
1:25:50.842 PM,15.22,4.87,-56.6,0.08,0.25,0.92,-1.13,1.33,0.07,26.2,2.27,-38.55,0.04,0.44,0.89,-0.45,-0.28,-0.82
1:25:50.932 PM,15.18,4.67,-56.6,0.08,0.25,0.92,-1.32,1.31,0.05,26.29,2.22,-38.52,0.04,0.44,0.89,-0.49,-0.08,-0.87
1:25:51.041 PM,15.29,4.92,-56.6,0.08,0.25,0.92,-1.28,1.33,0.09,26.06,2.55,-38.49,0.04,0.44,0.89,-0.53,-0.01,-0.88
1:25:51.104 PM,14.84,4.82,-56.59,0.08,0.25,0.92,-1.37,1.46,0.09,26.02,2.24,-38.47,0.04,0.44,0.89,-0.53,0.11,-0.92
1:25:51.202 PM,14.85,4.89,-56.59,0.08,0.25,0.92,-1.47,1.44,0.07,26.03,2.27,-38.45,0.04,0.44,0.89,-0.73,0.35,-0.95
1:25:51.240 PM,15.05,4.72,-56.58,0.08,0.25,0.92,-1.44,1.33,0.03,26.04,2.27,-38.43,0.04,0.44,0.89,-0.65,0.21,-0.95
1:25:51.295 PM,15.11,4.64,-56.59,0.08,0.25,0.92,-1.5,1.48,0.07,26.24,2.18,-38.42,0.04,0.44,0.89,-0.81,0.33,-1.07
1:25:51.436 PM,15.28,4.58,-56.59,0.08,0.25,0.93,-1.53,1.31,0.01,26.42,2.31,-38.42,0.04,0.44,0.89,-0.5,-0.1,-1.09
1:25:51.474 PM,15.16,4.47,-56.59,0.07,0.25,0.92,-1.35,1.36,-0.02,26.13,2.04,-38.43,0.04,0.44,0.89,-0.75,-0.08,-1.06
1:25:51.523 PM,15.36,4.53,-56.6,0.08,0.25,0.92,-1.19,1.24,-0.09,26.18,2.15,-38.44,0.04,0.44,0.89,-0.6,-0.31,-1.18
1:25:51.640 PM,15.18,4.61,-56.63,0.08,0.25,0.92,-1.16,1.17,-0.07,26.21,2.09,-38.46,0.04,0.44,0.89,-0.45,-0.66,-1.1
1:25:51.679 PM,15.35,4.55,-56.65,0.08,0.25,0.92,-1.11,1.17,-0.06,26.24,2.11,-38.47,0.04,0.44,0.9,-0.48,-0.67,-1.12
1:25:51.754 PM,15.17,4.64,-56.66,0.08,0.25,0.92,-1.04,1.08,-0.01,26.04,2.16,-38.48,0.04,0.44,0.89,-0.22,-0.79,-1.06
1:25:51.841 PM,15.38,4.56,-56.67,0.08,0.25,0.92,-0.95,1.12,0.02,26.36,2.23,-38.49,0.04,0.44,0.89,-0.38,-0.76,-0.92
1:25:51.951 PM,15.54,4.66,-56.68,0.08,0.26,0.92,-1.06,1.1,-0.02,26.49,2.58,-38.47,0.04,0.45,0.89,-0.37,-0.76,-0.89
1:25:51.987 PM,15.49,4.56,-56.69,0.08,0.26,0.92,-1.02,1.13,0.05,26.55,2.47,-38.44,0.04,0.45,0.89,-0.42,-0.6,-0.87
1:25:52.070 PM,15.54,4.84,-56.69,0.08,0.26,0.92,-1.31,1.14,0.02,26.61,2.86,-38.42,0.05,0.45,0.89,-0.35,-0.71,-0.81
1:25:52.204 PM,15.43,4.57,-56.7,0.08,0.26,0.92,-1.27,1.36,0.03,26.45,2.47,-38.38,0.04,0.44,0.89,-0.63,-0.37,-1.01
1:25:52.204 PM,15.71,4.72,-56.7,0.08,0.26,0.92,-1.31,1.23,0.03,26.41,2.63,-38.38,0.05,0.44,0.89,-0.5,-0.31,-0.98
1:25:52.290 PM,15.56,4.61,-56.71,0.08,0.26,0.92,-1.23,1.34,-0.01,26.36,2.57,-38.37,0.04,0.44,0.89,-0.58,-0.2,-1
1:25:52.366 PM,15.64,4.56,-56.72,0.08,0.26,0.92,-1.31,1.32,-0.02,26.57,2.46,-38.37,0.04,0.45,0.89,-0.48,-0.34,-1.14
1:25:52.446 PM,15.59,4.58,-56.73,0.08,0.26,0.92,-1.42,1.34,-0.02,26.44,2.58,-38.38,0.04,0.44,0.89,-0.54,-0.31,-1.16
1:25:52.549 PM,15.82,4.62,-56.74,0.08,0.26,0.92,-1.41,1.3,-0.01,26.73,2.49,-38.4,0.04,0.45,0.89,-0.6,-0.24,-1.1
1:25:52.585 PM,15.49,4.52,-56.75,0.08,0.26,0.92,-1.47,1.34,-0.03,26.51,2.47,-38.41,0.04,0.44,0.89,-0.59,-0.37,-1.03
1:25:52.678 PM,15.42,4.64,-56.76,0.08,0.26,0.92,-1.24,1.35,0.02,26.45,2.36,-38.41,0.04,0.44,0.89,-0.56,-0.26,-1.08
1:25:52.773 PM,15.32,4.67,-56.77,0.08,0.25,0.92,-1.28,1.22,-0.04,26.46,2.5,-38.42,0.04,0.44,0.89,-0.43,-0.5,-1.02
1:25:52.823 PM,15.62,4.38,-56.78,0.07,0.26,0.92,-1.18,1.15,-0.02,26.61,2.61,-38.42,0.05,0.45,0.89,-0.37,-0.66,-1.04
1:25:52.917 PM,15.85,4.86,-56.79,0.08,0.26,0.92,-1.26,1.2,-0.04,26.61,2.82,-38.42,0.05,0.45,0.89,0.06,-1.11,-1.05
1:25:53.055 PM,15.34,4.73,-56.81,0.08,0.25,0.92,-1.45,1.44,0.1,26.4,2.56,-38.42,0.04,0.44,0.89,-0.48,-0.47,-0.85
1:25:53.055 PM,15.69,4.63,-56.8,0.08,0.26,0.92,-1.4,1.28,0.08,26.6,2.79,-38.39,0.05,0.45,0.89,-0.41,-0.31,-0.82
1:25:53.202 PM,15.48,4.65,-56.8,0.08,0.26,0.92,-1.19,1.27,0.02,26.55,2.69,-38.36,0.05,0.45,0.89,-0.31,-0.46,-0.94
1:25:53.236 PM,15.53,4.7,-56.8,0.08,0.26,0.92,-1.18,1.24,-0.06,26.66,2.66,-38.34,0.05,0.45,0.89,-0.09,-0.7,-1.08
1:25:53.339 PM,15.44,4.71,-56.82,0.08,0.26,0.92,-1.38,1.42,-0.05,26.43,2.76,-38.35,0.05,0.44,0.89,-0.69,-0.04,-1.05
1:25:53.360 PM,15.48,4.86,-56.83,0.08,0.26,0.92,-1.4,1.37,0.03,26.49,2.75,-38.35,0.05,0.44,0.89,-0.75,0.17,-1.01
1:25:53.463 PM,15.06,4.45,-56.84,0.07,0.25,0.92,-1.5,1.5,0.01,26.37,2.42,-38.35,0.04,0.44,0.89,-0.56,0.21,-1.06
1:25:53.514 PM,15.37,4.81,-56.85,0.08,0.25,0.92,-1.37,1.36,0.04,26.42,2.63,-38.35,0.05,0.44,0.89,-0.73,0.27,-0.98
1:25:53.600 PM,15.14,4.64,-56.85,0.08,0.25,0.92,-1.74,1.42,0.11,26.28,2.38,-38.35,0.04,0.44,0.89,-0.65,0.24,-0.91
1:25:53.705 PM,15.43,4.47,-56.84,0.07,0.26,0.92,-1.66,1.56,0.1,26.5,2.31,-38.33,0.04,0.45,0.89,-0.84,0.37,-0.98
1:25:53.740 PM,15.18,4.68,-56.83,0.08,0.25,0.92,-1.55,1.45,0.05,26.53,2.27,-38.32,0.04,0.45,0.89,-0.79,0.4,-0.96
1:25:53.834 PM,14.74,4.54,-56.83,0.08,0.24,0.92,-1.74,1.63,0.15,26.2,2.06,-38.3,0.04,0.44,0.89,-0.93,0.8,-0.96
1:25:53.930 PM,15.23,4.67,-56.82,0.08,0.25,0.92,-1.45,1.42,0.05,26.15,2.17,-38.29,0.04,0.44,0.89,-0.53,0.35,-0.96
1:25:53.976 PM,15.02,4.45,-56.82,0.07,0.25,0.92,-1.44,1.38,0.08,26.36,1.95,-38.28,0.03,0.44,0.89,-0.62,0.21,-0.86
1:25:54.070 PM,15.19,4.31,-56.82,0.07,0.25,0.92,-1.46,1.51,0.05,26.23,1.87,-38.25,0.03,0.44,0.89,-0.7,0.33,-1.02
1:25:54.116 PM,15.2,4.56,-56.82,0.08,0.25,0.92,-1.55,1.54,0.08,26.24,1.88,-38.25,0.03,0.44,0.89,-0.6,0.47,-0.98
1:25:54.210 PM,14.77,4.41,-56.81,0.07,0.24,0.92,-1.51,1.49,0.12,26.3,1.53,-38.24,0.03,0.44,0.89,-0.82,0.58,-0.95
1:25:54.300 PM,15.16,4.25,-56.8,0.07,0.25,0.92,-1.4,1.38,-0.02,26.26,1.61,-38.23,0.03,0.44,0.89,-0.41,0.12,-1.07
1:25:54.364 PM,15.03,4.38,-56.82,0.07,0.25,0.92,-1.27,1.46,0.02,26.04,1.52,-38.23,0.03,0.44,0.9,-0.52,0.3,-1.14
1:25:54.442 PM,15.14,4.18,-56.82,0.07,0.25,0.93,-1.37,1.25,0.05,26.33,1.36,-38.25,0.02,0.44,0.89,-0.64,0.09,-0.98
1:25:54.563 PM,15.03,4.28,-56.82,0.07,0.25,0.93,-1.24,1.39,0.01,26.16,1.51,-38.24,0.03,0.44,0.89,-0.62,0.05,-1.03
1:25:54.590 PM,14.8,4.5,-56.83,0.08,0.25,0.93,-1.36,1.33,0.06,26.14,1.31,-38.24,0.02,0.44,0.89,-0.53,-0.04,-1.02
1:25:54.689 PM,14.94,4.23,-56.83,0.07,0.25,0.92,-1.25,1.14,-0.07,26.26,1.36,-38.24,0.02,0.44,0.89,-0.44,-0.46,-1.03
1:25:54.768 PM,14.95,4.4,-56.85,0.07,0.25,0.93,-1.16,1.22,-0.01,25.94,1.37,-38.24,0.02,0.44,0.9,-0.46,-0.57,-1.04
1:25:54.812 PM,15.11,4.13,-56.86,0.07,0.25,0.93,-1.02,1.08,-0.03,26.15,1.43,-38.24,0.02,0.44,0.89,-0.4,-0.64,-1.01
1:25:54.928 PM,15.11,4.41,-56.87,0.07,0.25,0.92,-0.93,1.02,0.04,26.29,1.49,-38.23,0.03,0.44,0.89,-0.47,-0.93,-0.78
1:25:54.958 PM,15.2,4.32,-56.87,0.07,0.25,0.92,-1.02,1.11,0.04,26.21,1.57,-38.19,0.03,0.44,0.89,-0.32,-0.92,-0.83
1:25:55.048 PM,15.34,4.36,-56.88,0.07,0.25,0.92,-0.82,0.98,-0.02,26.33,1.74,-38.16,0.03,0.44,0.89,-0.11,-0.95,-0.82
1:25:55.141 PM,15.2,4.49,-56.89,0.08,0.25,0.92,-1.03,1.17,0,26.04,1.91,-38.13,0.03,0.44,0.9,-0.11,-0.88,-0.82
1:25:55.229 PM,15.04,4.45,-56.9,0.07,0.25,0.92,-0.95,1.06,0.02,26.36,1.79,-38.1,0.03,0.44,0.89,-0.59,-0.76,-0.79
1:25:55.283 PM,15.49,4.44,-56.9,0.07,0.26,0.92,-1.08,1.02,-0.14,26.52,2.14,-38.06,0.04,0.45,0.89,-0.01,-1.29,-1.12
1:25:55.380 PM,15.62,4.44,-56.93,0.07,0.26,0.92,-1.19,1.22,-0.01,26.28,2.17,-38.07,0.04,0.44,0.89,-0.56,-0.54,-1.01
1:25:55.425 PM,15.49,4.42,-56.94,0.07,0.26,0.92,-1.05,1.04,-0.13,26.56,2,-38.07,0.03,0.45,0.89,-0.39,-0.91,-1.06
1:25:55.517 PM,15.52,4.59,-56.97,0.08,0.26,0.92,-1.48,1.35,-0.01,26.45,2.21,-38.07,0.04,0.45,0.9,-0.47,-0.51,-1.21
1:25:55.564 PM,15.42,4.5,-56.98,0.08,0.25,0.92,-1.44,1.42,-0.02,26.45,2.05,-38.1,0.04,0.44,0.89,-0.67,0.02,-1.14
1:25:55.666 PM,15.31,4.53,-56.99,0.08,0.25,0.92,-1.47,1.26,-0.02,26.37,2.08,-38.12,0.04,0.44,0.89,-0.64,-0.13,-1.1
1:25:55.778 PM,15.11,4.68,-57,0.08,0.25,0.92,-1.31,1.33,-0.02,26.21,1.91,-38.13,0.03,0.44,0.89,-0.63,-0.27,-1.06
1:25:55.807 PM,15.11,4.52,-57.01,0.08,0.25,0.92,-0.99,1.24,-0.11,26.17,1.84,-38.13,0.03,0.44,0.89,-0.19,-0.71,-1.15
1:25:55.892 PM,15.39,4.62,-57.04,0.08,0.26,0.93,-1.11,1.18,-0.04,26.31,2.19,-38.15,0.04,0.44,0.89,-0.4,-0.54,-1.09
1:25:55.986 PM,15.47,4.5,-57.05,0.08,0.26,0.92,-1.25,1.27,-0.05,26.21,2.06,-38.16,0.04,0.44,0.89,-0.44,-0.39,-1.08
1:25:56.031 PM,15.36,4.62,-57.07,0.08,0.25,0.92,-1.31,1.31,0.03,26.37,2.03,-38.16,0.04,0.44,0.89,-0.51,-0.19,-1
1:25:56.148 PM,15.47,4.57,-57.07,0.08,0.26,0.92,-1.29,1.16,0.03,26.54,2.09,-38.16,0.04,0.45,0.89,-0.49,-0.41,-0.9
1:25:56.188 PM,15.55,4.56,-57.08,0.08,0.26,0.92,-1.3,1.34,0.05,26.47,2.11,-38.14,0.04,0.45,0.89,-0.53,-0.33,-0.82
1:25:56.266 PM,15.5,4.42,-57.08,0.07,0.26,0.92,-1.33,1.28,0.02,26.57,1.98,-38.1,0.03,0.45,0.89,-0.56,-0.25,-0.96
1:25:56.359 PM,15.22,4.75,-57.08,0.08,0.25,0.93,-1.35,1.3,0.05,26.32,2.12,-38.09,0.04,0.44,0.89,-0.62,-0.25,-0.96
1:25:56.406 PM,15.26,4.58,-57.08,0.08,0.25,0.92,-1.28,1.29,0.07,26.34,1.95,-38.08,0.03,0.44,0.89,-0.56,-0.33,-0.89
1:25:56.480 PM,15.53,4.72,-57.08,0.08,0.26,0.93,-1.5,1.25,0.09,26.4,2.15,-38.06,0.04,0.45,0.9,-0.37,-0.43,-0.96
1:25:56.595 PM,15.53,4.4,-57.08,0.07,0.26,0.92,-1.63,1.4,0.1,26.75,2.1,-38.05,0.04,0.45,0.89,-0.88,0.01,-0.95
1:25:56.640 PM,15.45,4.48,-57.07,0.08,0.26,0.93,-1.34,1.37,-0.01,26.45,2.14,-38.03,0.04,0.45,0.89,-0.66,-0.13,-1.05
1:25:56.734 PM,15.31,4.4,-57.08,0.07,0.25,0.92,-1.27,1.31,-0.03,26.15,2.04,-38.04,0.04,0.44,0.89,-0.44,-0.33,-1.03
1:25:56.788 PM,15.62,4.56,-57.09,0.08,0.26,0.92,-1.2,1.21,-0.01,26.26,2.2,-38.04,0.04,0.44,0.89,-0.5,-0.34,-0.98
1:25:56.893 PM,15.52,4.44,-57.1,0.07,0.26,0.92,-1.15,1.27,-0.01,26.3,2.03,-38.03,0.04,0.44,0.89,-0.49,-0.37,-1
1:25:56.991 PM,15.52,4.58,-57.11,0.08,0.26,0.92,-1.2,1.31,0.03,26.15,2.08,-38.02,0.04,0.44,0.89,-0.4,-0.37,-1.02
1:25:57.027 PM,15.33,4.56,-57.12,0.08,0.25,0.92,-1.31,1.24,-0.02,26.35,2.03,-38.02,0.04,0.44,0.89,-0.28,-0.41,-0.99
1:25:57.106 PM,15.52,4.59,-57.13,0.08,0.26,0.92,-1.27,1.29,0.02,26.35,2.1,-38.02,0.04,0.44,0.89,-0.5,-0.2,-0.99
1:25:57.198 PM,15.5,4.5,-57.13,0.08,0.26,0.92,-1.31,1.24,0.04,26.43,2.02,-38.01,0.04,0.44,0.89,-0.37,-0.44,-0.91
1:25:57.249 PM,15.5,4.45,-57.14,0.07,0.26,0.92,-1.27,1.37,0.02,26.34,2.03,-37.99,0.04,0.44,0.9,-0.56,-0.27,-1.02
1:25:57.350 PM,15.36,4.65,-57.14,0.08,0.26,0.93,-1.4,1.39,0.01,26.23,2.07,-37.99,0.04,0.44,0.9,-0.51,-0.21,-1.08
1:25:57.445 PM,15.27,4.47,-57.15,0.07,0.25,0.92,-1.37,1.27,0.05,26.23,1.76,-37.99,0.03,0.44,0.89,-0.44,-0.34,-1.03
1:25:57.479 PM,15.59,4.62,-57.15,0.08,0.26,0.93,-1.37,1.37,0.03,26.25,2.12,-37.99,0.04,0.44,0.9,-0.56,-0.27,-1.08
1:25:57.573 PM,15.38,4.36,-57.15,0.07,0.25,0.92,-1.42,1.32,-0.01,26.25,2.08,-38,0.04,0.44,0.89,-0.57,-0.37,-0.99
1:25:57.673 PM,15.51,4.48,-57.16,0.07,0.26,0.92,-1.16,1.24,0.08,26.2,1.89,-37.99,0.03,0.44,0.89,-0.38,-0.37,-1
1:25:57.714 PM,15.43,4.68,-57.16,0.08,0.26,0.92,-1.14,1.15,0.09,26.33,2.25,-37.99,0.04,0.44,0.9,-0.18,-0.72,-0.68
1:25:57.807 PM,15.43,4.45,-57.16,0.07,0.26,0.92,-1.1,1.24,0.02,26.25,1.99,-37.93,0.03,0.44,0.89,-0.69,-0.31,-0.86
1:25:57.864 PM,15.39,4.57,-57.16,0.08,0.26,0.92,-1.06,1.15,-0.11,26.21,2.12,-37.9,0.04,0.44,0.89,-0.42,-0.71,-1.17
1:25:57.982 PM,15.41,4.59,-57.19,0.08,0.25,0.92,-1.26,1.2,-0.14,26.21,2.22,-37.93,0.04,0.44,0.9,-0.24,-0.78,-1.36
1:25:58.047 PM,15.38,4.66,-57.22,0.08,0.26,0.92,-1.42,1.29,-0.05,26.2,2.35,-37.97,0.04,0.44,0.9,-0.64,-0.25,-1.22
1:25:58.085 PM,15.28,4.66,-57.23,0.08,0.25,0.92,-1.4,1.3,0.01,26.18,1.97,-38,0.03,0.44,0.89,-0.6,-0.13,-1.09
1:25:58.178 PM,15.62,4.48,-57.24,0.07,0.26,0.92,-1.34,1.31,-0.01,26.46,2.08,-38.01,0.04,0.44,0.89,-0.53,-0.24,-1.11
1:25:58.271 PM,15.49,4.46,-57.25,0.07,0.26,0.92,-1.27,1.24,-0.03,26.31,2.12,-38.02,0.04,0.44,0.89,-0.53,-0.34,-1.03
1:25:58.318 PM,15.5,4.53,-57.26,0.08,0.26,0.92,-1.34,1.27,-0.01,26.31,2.13,-38.02,0.04,0.44,0.89,-0.5,-0.4,-1.15
1:25:58.440 PM,15.49,4.5,-57.27,0.08,0.26,0.92,-1.23,1.24,-0.02,26.14,2.2,-38.04,0.04,0.44,0.89,-0.48,-0.45,-1.01
1:25:58.472 PM,15.39,4.68,-57.28,0.08,0.26,0.93,-1.08,1.18,0.02,26.34,2.19,-38.04,0.04,0.44,0.89,-0.43,-0.4,-0.88
1:25:58.582 PM,15.4,4.45,-57.29,0.07,0.25,0.92,-1.29,1.33,0.05,26.27,2.19,-38.01,0.04,0.44,0.89,-0.4,-0.44,-0.92
1:25:58.630 PM,15.63,4.57,-57.29,0.08,0.26,0.92,-1.14,1.24,0.02,26.31,2.31,-37.99,0.04,0.44,0.89,-0.24,-0.45,-0.94
1:25:58.722 PM,15.62,4.4,-57.29,0.07,0.26,0.92,-1.35,1.31,0.04,26.41,2.1,-37.98,0.04,0.44,0.89,-0.31,-0.27,-0.9
1:25:58.792 PM,15.78,4.45,-57.29,0.07,0.26,0.92,-1.09,1.31,0.05,26.38,2.23,-37.96,0.04,0.44,0.89,-0.59,-0.18,-0.89
1:25:58.876 PM,15.38,4.53,-57.3,0.08,0.26,0.92,-1.21,1.35,0.03,26.57,2.14,-37.94,0.04,0.45,0.89,-0.35,-0.25,-0.93
1:25:58.959 PM,15.53,4.42,-57.3,0.07,0.26,0.92,-1.34,1.46,0.02,26.23,2.2,-37.92,0.04,0.44,0.89,-0.56,-0.02,-0.95
1:25:59.008 PM,15.66,4.41,-57.31,0.07,0.26,0.92,-1.49,1.41,0.02,26.46,2.12,-37.91,0.04,0.44,0.89,-0.45,0.08,-1.1
1:25:59.083 PM,15.44,4.49,-57.31,0.08,0.26,0.93,-1.6,1.49,0.04,26.45,2.2,-37.92,0.04,0.44,0.89,-0.53,0.16,-1.08
1:25:59.213 PM,15.38,4.42,-57.31,0.07,0.25,0.92,-1.37,1.41,-0.05,26.27,2.01,-37.92,0.03,0.44,0.89,-0.61,-0.06,-1.05
1:25:59.248 PM,15.49,4.54,-57.33,0.08,0.26,0.92,-1.25,1.28,0.02,26.19,2,-37.93,0.03,0.44,0.89,-0.59,-0.11,-0.98
1:25:59.328 PM,15.28,4.39,-57.33,0.07,0.25,0.92,-1.32,1.4,-0.06,26.32,1.77,-37.92,0.03,0.44,0.89,-0.51,-0.23,-1.06
1:25:59.448 PM,15.56,4.48,-57.35,0.08,0.26,0.92,-1.22,1.14,-0.02,26.38,2.02,-37.92,0.04,0.44,0.89,-0.52,-0.47,-0.99
1:25:59.480 PM,15.38,4.35,-57.36,0.07,0.25,0.92,-1.07,1.15,-0.06,26.38,1.87,-37.92,0.03,0.44,0.89,-0.49,-0.66,-0.97
1:25:59.563 PM,15.15,4.76,-57.38,0.08,0.25,0.93,-1.15,1.16,-0.02,26.24,2.04,-37.91,0.04,0.44,0.9,-0.31,-0.93,-1.02
1:25:59.706 PM,15.18,4.56,-57.39,0.08,0.25,0.92,-1.16,1.05,-0.02,26.3,2.06,-37.9,0.04,0.44,0.89,-0.36,-0.85,-0.98
1:25:59.706 PM,15.33,4.76,-57.4,0.08,0.25,0.92,-1.25,1.15,0,26.29,2.09,-37.9,0.04,0.44,0.89,-0.44,-0.66,-1.02
1:25:59.808 PM,15.18,4.69,-57.41,0.08,0.25,0.92,-1.11,1.15,0.07,26.21,1.97,-37.89,0.03,0.44,0.89,-0.52,-0.53,-0.79
1:25:59.845 PM,15.7,4.58,-57.41,0.08,0.26,0.92,-1.24,1.19,0.05,26.37,2.2,-37.85,0.04,0.44,0.89,-0.44,-0.61,-0.85
1:25:59.937 PM,15.76,4.36,-57.41,0.07,0.26,0.92,-1.2,1.17,0.02,26.62,2.1,-37.83,0.04,0.45,0.89,-0.37,-0.55,-0.99
1:26:00.030 PM,15.84,4.49,-57.42,0.08,0.26,0.92,-1.43,1.21,0.02,26.7,2.4,-37.82,0.04,0.45,0.89,-0.39,-0.63,-0.98
1:26:00.075 PM,15.74,4.46,-57.42,0.07,0.26,0.92,-1.32,1.24,0.01,26.67,2.46,-37.81,0.04,0.45,0.89,-0.53,-0.45,-0.95
1:26:00.195 PM,15.59,4.62,-57.43,0.08,0.26,0.92,-1.21,1.23,0,26.5,2.3,-37.8,0.04,0.44,0.89,-0.59,-0.31,-0.99
1:26:00.263 PM,15.86,4.46,-57.44,0.07,0.26,0.92,-1.25,1.28,-0.02,26.44,2.31,-37.79,0.04,0.44,0.89,-0.64,-0.31,-1.04
1:26:00.309 PM,15.66,4.62,-57.45,0.08,0.26,0.92,-1.39,1.38,0.02,26.4,2.17,-37.79,0.04,0.45,0.9,-0.54,-0.21,-1.11
1:26:00.406 PM,15.52,4.65,-57.46,0.08,0.26,0.92,-1.31,1.22,-0.04,26.47,2.38,-37.8,0.04,0.45,0.89,-0.38,-0.5,-1.08
1:26:00.516 PM,15.56,4.48,-57.47,0.08,0.26,0.92,-1.42,1.37,0.01,26.35,2.21,-37.81,0.04,0.44,0.89,-0.48,-0.27,-1.11
1:26:00.549 PM,15.7,4.63,-57.48,0.08,0.26,0.92,-1.43,1.31,0.02,26.47,2.54,-37.82,0.04,0.44,0.89,-0.58,-0.35,-1.02
1:26:00.635 PM,15.39,4.49,-57.48,0.08,0.25,0.92,-1.32,1.34,-0.03,26.32,2.14,-37.82,0.04,0.44,0.89,-0.59,-0.27,-1.03
1:26:00.690 PM,15.65,4.69,-57.5,0.08,0.26,0.92,-1.33,1.31,0.05,26.43,2.34,-37.82,0.04,0.44,0.89,-0.54,-0.24,-1.02
1:26:00.778 PM,15.34,4.58,-57.5,0.08,0.25,0.93,-1.22,1.16,0.01,26.31,2.3,-37.82,0.04,0.44,0.89,-0.5,-0.55,-0.89
1:26:00.868 PM,15.53,4.72,-57.51,0.08,0.26,0.92,-1.21,1.27,0.04,26.45,2.29,-37.79,0.04,0.45,0.89,-0.64,-0.34,-0.93
1:26:00.926 PM,15.48,4.7,-57.51,0.08,0.26,0.92,-1.27,1.22,0.01,26.37,2.44,-37.78,0.04,0.44,0.89,-0.47,-0.44,-0.98
1:26:01.008 PM,15.59,4.7,-57.52,0.08,0.26,0.92,-1.28,1.27,0.09,26.47,2.22,-37.77,0.04,0.44,0.89,-0.53,-0.24,-0.92
1:26:01.102 PM,15.38,4.72,-57.51,0.08,0.25,0.92,-1.23,1.27,-0.01,26.36,2.34,-37.75,0.04,0.44,0.89,-0.53,-0.31,-0.98
1:26:01.150 PM,15.48,4.65,-57.52,0.08,0.26,0.92,-1.28,1.3,0,26.42,2.24,-37.74,0.04,0.44,0.89,-0.57,-0.24,-0.98
1:26:01.243 PM,15.52,4.84,-57.53,0.08,0.26,0.92,-1.25,1.27,-0.01,26.34,2.34,-37.73,0.04,0.44,0.89,-0.53,-0.27,-0.97
1:26:01.321 PM,15.51,4.62,-57.54,0.08,0.26,0.92,-1.37,1.35,0.01,26.41,2.38,-37.72,0.04,0.44,0.89,-0.58,-0.2,-1.05
1:26:01.373 PM,15.43,4.76,-57.55,0.08,0.26,0.92,-1.33,1.3,0,26.22,2.3,-37.72,0.04,0.44,0.89,-0.54,-0.3,-1.02
1:26:01.498 PM,15.63,4.58,-57.55,0.08,0.26,0.92,-1.27,1.32,0.01,26.43,2.24,-37.72,0.04,0.44,0.89,-0.5,-0.24,-1.01
1:26:01.568 PM,15.41,4.81,-57.56,0.08,0.26,0.92,-1.45,1.46,0.04,26.2,2.45,-37.72,0.04,0.44,0.9,-0.59,-0.16,-0.95
1:26:01.628 PM,15.2,4.97,-57.56,0.08,0.25,0.92,-1.23,1.38,0.04,26.16,2.17,-37.7,0.04,0.44,0.89,-0.53,-0.06,-0.96
1:26:01.745 PM,15.22,4.85,-57.57,0.08,0.25,0.92,-1.4,1.44,0,26.06,2.09,-37.69,0.04,0.44,0.89,-0.53,-0.03,-1.06
1:26:01.772 PM,15.22,4.77,-57.58,0.08,0.25,0.92,-1.23,1.3,0.03,26.18,2.06,-37.69,0.04,0.44,0.89,-0.63,-0.02,-0.9
1:26:01.855 PM,15.41,4.76,-57.58,0.08,0.26,0.92,-1.18,1.32,-0.01,26.14,2.26,-37.67,0.04,0.44,0.89,-0.42,-0.21,-1.03
1:26:01.913 PM,15.11,4.7,-57.59,0.08,0.25,0.92,-1.31,1.34,0.05,26.25,2.05,-37.67,0.04,0.44,0.89,-0.5,-0.15,-0.96
1:26:01.999 PM,15.48,4.74,-57.59,0.08,0.26,0.92,-1.4,1.4,0.05,26.31,2.16,-37.66,0.04,0.44,0.89,-0.58,-0.03,-0.97
1:26:02.087 PM,15.44,4.59,-57.59,0.08,0.26,0.92,-1.43,1.39,0.05,26.4,2.02,-37.65,0.04,0.44,0.89,-0.59,0.02,-1.02
1:26:02.183 PM,15.44,4.57,-57.59,0.08,0.26,0.93,-1.33,1.27,0,26.23,2.12,-37.65,0.04,0.44,0.89,-0.56,-0.21,-1.03
1:26:02.226 PM,15.46,4.55,-57.6,0.08,0.26,0.92,-1.26,1.28,-0.04,26.33,2.17,-37.65,0.04,0.44,0.89,-0.5,-0.29,-1.06
1:26:02.321 PM,15.58,4.59,-57.61,0.08,0.26,0.92,-1.24,1.18,-0.02,26.36,2.15,-37.65,0.04,0.44,0.89,-0.56,-0.41,-1.02
1:26:02.366 PM,15.35,4.56,-57.63,0.08,0.25,0.92,-1.21,1.16,-0.04,26.4,2.05,-37.65,0.04,0.44,0.89,-0.47,-0.6,-1.04
1:26:02.472 PM,15.62,4.66,-57.64,0.08,0.26,0.92,-1.37,1.25,0.03,26.3,2.18,-37.65,0.04,0.44,0.89,-0.44,-0.56,-1.14
1:26:02.549 PM,15.46,4.7,-57.64,0.08,0.26,0.92,-1.28,1.16,-0.03,26.15,2.3,-37.67,0.04,0.44,0.9,-0.55,-0.66,-0.97
1:26:02.616 PM,15.49,4.65,-57.66,0.08,0.26,0.92,-1.18,1.18,0.04,26.38,2.17,-37.66,0.04,0.44,0.89,-0.6,-0.49,-0.95
1:26:02.718 PM,15.6,4.6,-57.66,0.08,0.26,0.92,-1.15,1.18,0.03,26.52,2.33,-37.64,0.04,0.45,0.89,-0.43,-0.58,-0.85
1:26:02.773 PM,15.42,4.76,-57.66,0.08,0.25,0.92,-1.14,1.21,0.05,26.38,2.22,-37.61,0.04,0.44,0.89,-0.3,-0.64,-0.81
1:26:02.889 PM,15.36,4.64,-57.66,0.08,0.25,0.92,-1.13,1.17,0.01,26.41,2.2,-37.58,0.04,0.44,0.89,-0.27,-0.56,-0.93
1:26:02.926 PM,15.66,4.63,-57.67,0.08,0.26,0.93,-1.21,1.15,0.05,26.55,2.51,-37.56,0.04,0.45,0.89,-0.29,-0.71,-0.81
1:26:02.976 PM,15.56,4.64,-57.67,0.08,0.26,0.92,-1.25,1.35,0.02,26.34,2.4,-37.53,0.04,0.44,0.89,-0.47,-0.38,-0.91
1:26:03.095 PM,15.5,4.7,-57.68,0.08,0.26,0.92,-1.25,1.25,-0.01,26.45,2.5,-37.51,0.04,0.44,0.89,-0.56,-0.26,-0.96
1:26:03.159 PM,15.6,4.7,-57.69,0.08,0.26,0.92,-1.21,1.24,-0.04,26.4,2.44,-37.5,0.04,0.44,0.89,-0.44,-0.37,-1
1:26:03.206 PM,15.53,4.64,-57.7,0.08,0.26,0.92,-1.32,1.35,-0.04,26.41,2.43,-37.49,0.04,0.44,0.89,-0.56,-0.16,-1.13
1:26:03.341 PM,15.68,4.75,-57.72,0.08,0.26,0.92,-1.27,1.26,-0.05,26.32,2.45,-37.51,0.04,0.44,0.89,-0.55,-0.35,-1.07
1:26:03.447 PM,15.65,4.62,-57.73,0.08,0.26,0.92,-1.21,1.31,-0.05,26.42,2.41,-37.51,0.04,0.44,0.89,-0.57,-0.32,-1.08
1:26:03.491 PM,15.61,4.81,-57.75,0.08,0.26,0.92,-1.48,1.37,0.02,26.38,2.48,-37.52,0.04,0.44,0.89,-0.58,-0.31,-1.05
1:26:03.530 PM,15.6,4.65,-57.75,0.08,0.26,0.92,-1.23,1.27,-0.05,26.41,2.34,-37.52,0.04,0.44,0.89,-0.49,-0.33,-1.05
1:26:03.631 PM,15.59,4.72,-57.77,0.08,0.26,0.92,-1.27,1.31,0.03,26.4,2.37,-37.52,0.04,0.44,0.89,-0.53,-0.33,-0.99
1:26:03.671 PM,15.58,4.66,-57.78,0.08,0.26,0.92,-1.22,1.24,0.01,26.47,2.4,-37.51,0.04,0.45,0.89,-0.57,-0.41,-0.92
1:26:03.765 PM,15.58,4.81,-57.78,0.08,0.26,0.92,-1.31,1.28,0.02,26.35,2.47,-37.5,0.04,0.44,0.89,-0.47,-0.3,-0.9
1:26:03.896 PM,15.92,4.79,-57.79,0.08,0.26,0.92,-1.48,1.08,-0.04,26.56,2.61,-37.48,0.05,0.45,0.89,-0.34,-0.3,-0.91
1:26:03.896 PM,15.23,4.83,-57.8,0.08,0.25,0.92,-3.01,2.03,0.34,26.12,2.55,-37.46,0.04,0.44,0.91,-2.27,3.02,-0.69
1:26:03.975 PM,14.8,4.57,-57.76,0.08,0.25,0.92,-3.09,2.29,0.59,25.73,1.41,-37.4,0.02,0.43,0.89,-3.63,4.68,-0.71
1:26:04.043 PM,14.75,4.3,-57.68,0.07,0.24,0.92,-0.58,0.76,-0.21,26.13,0.8,-37.35,0.01,0.43,0.88,0.02,-0.74,-1.11
1:26:04.165 PM,15.67,4.96,-57.72,0.08,0.26,0.92,0.18,-0.21,-0.45,25.92,2.11,-37.37,0.04,0.44,0.9,1.93,-3.98,-0.6
1:26:04.233 PM,15.56,4.4,-57.8,0.07,0.26,0.92,-2.51,3.56,0.33,25.85,1.93,-37.3,0.03,0.45,0.93,0.57,3.04,-0.82
1:26:04.278 PM,13.97,3.88,-57.75,0.06,0.23,0.92,-1.57,1.47,0.71,26.4,-0.12,-37.26,0,0.42,0.85,-3.03,3.02,0.25
1:26:04.396 PM,15.31,4.63,-57.65,0.08,0.25,0.92,0.61,-0.95,-0.34,26.86,1.23,-37.07,0.02,0.45,0.88,1.88,-5.65,0.44
1:26:04.462 PM,15.45,5.12,-57.72,0.09,0.26,0.93,-1.89,1.98,-0.21,26.42,2.55,-36.84,0.05,0.46,0.92,1.04,-1.18,-2.11
1:26:04.510 PM,15.08,4.62,-57.76,0.08,0.25,0.93,-2.51,1.95,0.42,26.13,1.68,-37.01,0.03,0.43,0.88,-1.55,2.38,-1.3
1:26:04.602 PM,15.86,4.74,-57.7,0.08,0.26,0.92,-0.79,0,-0.34,26.87,1.77,-37.05,0.03,0.45,0.88,0.15,-2.2,-0.92
1:26:04.658 PM,15.65,4.86,-57.76,0.08,0.26,0.92,-2.61,3.52,-0.11,26.41,2.27,-37.03,0.04,0.46,0.93,-0.82,2.73,-2.5
1:26:04.758 PM,14.34,4.03,-57.78,0.07,0.24,0.92,-2.73,2.21,0.24,26.13,0.11,-37.25,0,0.43,0.87,-3.83,4.53,-1.89
1:26:04.828 PM,14.78,4.2,-57.76,0.07,0.25,0.93,0.76,-0.52,-0.31,26.12,0.29,-37.38,0,0.43,0.88,0.73,-3.98,-0.15
1:26:04.927 PM,15.71,5.11,-57.81,0.09,0.26,0.92,0.79,-0.24,-0.5,26.28,2.5,-37.25,0.04,0.45,0.91,2.53,-5.47,0.08
1:26:04.968 PM,15.36,4.78,-57.9,0.08,0.25,0.92,-1.08,1.95,0.4,26.01,1.86,-37.08,0.03,0.44,0.9,-1.15,1.16,-0.31
1:26:05.095 PM,15.02,4.81,-57.84,0.08,0.25,0.92,-0.53,0.05,0.13,26.91,1.49,-36.96,0.03,0.45,0.88,-0.5,-1.47,0.64
1:26:05.127 PM,15.87,4.79,-57.83,0.08,0.26,0.92,-1.02,1.25,0.02,26.83,2.11,-36.71,0.04,0.46,0.9,0.77,-1.66,-0.89
1:26:05.209 PM,15.71,4.85,-57.84,0.08,0.26,0.92,-1.52,1.4,0.15,26.48,2.06,-36.69,0.04,0.44,0.88,-1.4,0.52,-1.13
1:26:05.305 PM,15.48,4.66,-57.82,0.08,0.26,0.92,-0.63,0.73,-0.16,26.56,1.82,-36.7,0.03,0.45,0.89,-0.27,-1.69,-0.97
1:26:05.355 PM,15.71,5.16,-57.86,0.09,0.26,0.92,-1.66,1.67,-0.04,26.53,2.74,-36.69,0.05,0.45,0.9,-0.44,-0.21,-1.31
1:26:05.442 PM,15.38,4.75,-57.87,0.08,0.25,0.92,-1.89,1.87,0.05,26.51,2.05,-36.73,0.04,0.44,0.89,-1.11,1.18,-1.34
1:26:05.494 PM,15.5,4.75,-57.87,0.08,0.26,0.92,-1.12,1.08,0.02,26.81,1.85,-36.78,0.03,0.45,0.88,-0.28,-0.77,-0.98
1:26:05.595 PM,15.57,4.92,-57.88,0.08,0.26,0.92,-1.58,1.55,0.05,26.75,2.22,-36.77,0.04,0.45,0.89,-0.51,-0.73,-1.36
1:26:05.675 PM,15.59,4.95,-57.88,0.08,0.26,0.92,-2.02,1.66,-0.26,26.6,2.5,-36.82,0.04,0.45,0.9,-0.98,0.56,-1.71
1:26:05.729 PM,15.64,4.71,-57.93,0.08,0.26,0.92,-2.48,2.5,0.05,26.5,1.68,-36.92,0.03,0.45,0.89,-1.63,2.39,-2.34
1:26:05.823 PM,14.83,4.64,-57.93,0.08,0.25,0.92,-1.13,1.08,0.16,25.89,0.96,-37.12,0.02,0.43,0.88,-1.68,0.6,-0.76
1:26:05.879 PM,15.23,4.68,-57.91,0.08,0.25,0.92,-0.74,0.87,-0.02,26.48,1.57,-37.08,0.03,0.45,0.9,-0.6,-1.12,-0.4
1:26:05.959 PM,15.37,4.64,-57.92,0.08,0.25,0.92,-1.2,1.11,0,26.53,1.66,-36.98,0.03,0.45,0.9,-0.13,-0.71,-0.95
1:26:06.042 PM,15.59,4.68,-57.93,0.08,0.26,0.92,-1.01,1.02,0.02,26.4,1.81,-36.97,0.03,0.44,0.89,-0.37,-0.42,-0.92
1:26:06.112 PM,15.52,4.6,-57.94,0.08,0.26,0.92,-1.18,1.44,-0.08,26.41,1.55,-36.95,0.03,0.45,0.9,-0.49,-0.24,-1.18
1:26:06.190 PM,15.55,4.69,-57.96,0.08,0.26,0.92,-1.38,1.46,0,26.23,1.5,-36.97,0.03,0.44,0.9,-0.71,0.34,-1.21
1:26:06.284 PM,15.38,4.65,-57.97,0.08,0.25,0.92,-1.51,1.6,0.08,26.29,1.41,-37,0.02,0.44,0.89,-0.9,0.68,-1.07
1:26:06.400 PM,15.5,4.4,-57.96,0.07,0.26,0.92,-1.29,1.5,0.03,26.18,1.12,-37,0.02,0.44,0.89,-0.73,0.38,-1.04
1:26:06.435 PM,15.4,4.61,-57.97,0.08,0.26,0.92,-1.33,1.43,-0.08,26.11,1.26,-37,0.02,0.44,0.9,-0.54,0.11,-1.06
1:26:06.494 PM,15.29,4.49,-57.99,0.08,0.25,0.92,-1.95,1.92,-0.01,26.28,1.14,-37,0.02,0.44,0.9,-0.42,1.19,-1.37
1:26:06.594 PM,15.2,4.2,-58,0.07,0.25,0.92,-1.63,1.73,0.05,26.25,0.65,-37.05,0.01,0.44,0.89,-0.93,1.26,-1.44
1:26:06.686 PM,15.09,4.6,-58,0.08,0.25,0.92,-0.91,0.7,-0.11,25.92,0.64,-37.12,0.01,0.43,0.89,-0.19,-1.62,-1.06
1:26:06.722 PM,15.28,4.58,-58.02,0.08,0.25,0.92,-1.05,1.04,0.03,26.02,1.09,-37.12,0.02,0.44,0.9,-0.29,-1.47,-0.96
1:26:06.804 PM,15.3,4.47,-58.03,0.07,0.25,0.92,-1.11,0.98,-0.3,26.24,0.78,-37.11,0.01,0.44,0.9,-0.63,-0.95,-1.53
1:26:06.893 PM,15.5,4.96,-58.08,0.08,0.26,0.92,-1.79,1.92,0.24,25.58,1.44,-37.18,0.03,0.44,0.91,0.06,1.24,-0.84
1:26:06.953 PM,15.05,3.99,-58.06,0.07,0.25,0.92,-0.85,0.92,0.34,26.57,0.44,-37.15,0.01,0.44,0.87,-1.63,0.26,0.06
1:26:07.083 PM,15.88,4.78,-58.01,0.08,0.26,0.92,-0.56,0.41,-0.42,26.35,1.41,-36.99,0.02,0.45,0.9,0.91,-2.82,-1.41
1:26:07.125 PM,15.38,4.79,-58.09,0.08,0.26,0.92,-1.9,2.32,0.27,25.55,1.49,-37.04,0.03,0.43,0.9,-0.69,0.82,-0.97
1:26:07.182 PM,15.19,4.32,-58.05,0.07,0.25,0.92,-0.57,0.4,0.05,26.62,0.71,-37.03,0.01,0.44,0.87,-0.71,-0.82,-0.26
1:26:07.293 PM,15.66,4.7,-58.05,0.08,0.26,0.92,-0.85,0.88,-0.15,26.34,1.54,-36.91,0.03,0.45,0.9,0.73,-2.64,-1.11
1:26:07.391 PM,15.85,4.72,-58.09,0.08,0.26,0.92,-1.52,1.87,0.19,25.98,1.78,-36.92,0.03,0.44,0.9,-1.18,0.6,-0.98
1:26:07.433 PM,15.8,4.63,-58.07,0.08,0.26,0.92,-1.28,0.98,0.02,26.53,1.65,-36.92,0.03,0.44,0.89,-0.54,-0.2,-0.68
1:26:07.524 PM,15.71,4.59,-58.07,0.08,0.26,0.92,-1.08,1.31,0.07,26.45,1.54,-36.86,0.03,0.44,0.89,-0.4,-0.44,-0.82
1:26:07.558 PM,15.65,4.74,-58.07,0.08,0.26,0.92,-2.01,1.87,0.1,26.21,1.64,-36.83,0.03,0.45,0.9,-0.66,0.52,-1.12
1:26:07.638 PM,15.31,4.47,-58.06,0.07,0.25,0.92,-1.99,1.71,0.17,26.43,1.13,-36.84,0.02,0.44,0.88,-1.06,1.27,-1.11
1:26:07.731 PM,15.47,4.57,-58.05,0.08,0.26,0.92,-0.89,0.73,-0.15,26.51,1.17,-36.85,0.02,0.44,0.89,-0.39,-1.26,-1.08
1:26:07.834 PM,15.59,4.67,-58.08,0.08,0.26,0.92,-0.95,1.09,-0.24,26.16,1.42,-36.86,0.02,0.44,0.9,-0.01,-1.51,-1.51
1:26:07.872 PM,15.59,4.9,-58.12,0.08,0.26,0.92,-1.35,1.34,-0.08,25.82,1.55,-36.93,0.03,0.44,0.9,-0.6,0.01,-1.31
1:26:07.964 PM,15.38,4.67,-58.14,0.08,0.25,0.92,-1.55,1.63,0.13,26.2,1.3,-36.97,0.02,0.44,0.89,-0.79,0.7,-0.84
1:26:08.014 PM,15.24,4.52,-58.13,0.08,0.25,0.92,-1.15,1.15,0.06,26.31,1.12,-36.94,0.02,0.44,0.89,-0.4,-0.39,-0.87
1:26:08.106 PM,15.73,4.7,-58.13,0.08,0.26,0.92,-1.1,0.94,-0.02,26.39,1.48,-36.92,0.03,0.44,0.9,-0.34,-1.02,-0.98
1:26:08.165 PM,15.4,4.79,-58.14,0.08,0.25,0.92,-1.56,1.63,0.03,26.04,1.41,-36.91,0.02,0.44,0.9,-0.66,0.08,-1.16
1:26:08.285 PM,15.3,4.6,-58.14,0.08,0.25,0.92,-1.23,1.19,0.14,26.27,1.06,-36.93,0.02,0.44,0.89,-0.79,-0.05,-0.76
1:26:08.413 PM,15.49,4.73,-58.13,0.08,0.26,0.92,-1.25,1.13,-0.04,26.22,1.62,-36.89,0.03,0.44,0.9,-0.25,-0.61,-0.84
1:26:08.437 PM,15.35,4.69,-58.15,0.08,0.25,0.92,-1.56,1.56,0.15,26.18,1.22,-36.86,0.02,0.44,0.89,-0.67,0.38,-0.96
1:26:08.480 PM,15.44,4.63,-58.13,0.08,0.26,0.92,-1.27,1.15,0.04,26.2,1.22,-36.84,0.02,0.44,0.89,-0.94,-0.08,-0.77
1:26:08.599 PM,15.36,4.73,-58.13,0.08,0.25,0.92,-1.69,1.5,0.11,26.2,1.28,-36.8,0.02,0.44,0.9,-0.71,0.02,-1.02
1:26:08.634 PM,15.43,4.38,-58.13,0.07,0.25,0.92,-1.52,1.33,-0.01,26.34,1.04,-36.8,0.02,0.44,0.89,-0.72,0.02,-1.11
1:26:08.735 PM,15.37,4.7,-58.14,0.08,0.25,0.92,-1.4,1.33,-0.06,26.02,1.12,-36.81,0.02,0.44,0.9,-0.65,-0.08,-1.22
1:26:08.819 PM,15.28,4.63,-58.15,0.08,0.25,0.92,-1.53,1.54,0.01,26.02,1.19,-36.84,0.02,0.44,0.9,-0.66,0.26,-1.17
1:26:08.869 PM,15.31,4.52,-58.16,0.08,0.25,0.92,-1.56,1.49,0.1,26.07,0.95,-36.86,0.02,0.44,0.89,-0.66,0.38,-0.95
1:26:08.961 PM,15.19,4.48,-58.15,0.07,0.25,0.92,-1.31,1.36,0.05,26.05,0.82,-36.85,0.01,0.44,0.89,-0.4,-0.05,-0.85
1:26:09.009 PM,15.37,4.54,-58.16,0.08,0.25,0.92,-1.2,1.32,0.06,26.06,0.86,-36.82,0.01,0.44,0.89,-0.4,-0.21,-0.85
1:26:09.161 PM,15.36,4.51,-58.16,0.08,0.25,0.92,-1.18,1.17,0.05,26.07,0.93,-36.79,0.02,0.44,0.89,-0.4,-0.46,-0.81
1:26:09.161 PM,15.23,4.58,-58.16,0.08,0.25,0.93,-1.17,1.23,0.05,26.05,1.03,-36.76,0.02,0.44,0.89,-0.63,-0.37,-0.92
1:26:09.238 PM,15.4,4.5,-58.16,0.08,0.26,0.92,-1.06,1.1,-0.05,26,0.98,-36.74,0.02,0.44,0.89,-0.36,-0.88,-1.03
1:26:09.321 PM,15.36,4.75,-58.17,0.08,0.25,0.92,-1.24,1.15,0,25.85,1.01,-36.74,0.02,0.44,0.9,-0.33,-0.82,-1.12
1:26:09.390 PM,15.4,4.71,-58.18,0.08,0.25,0.92,-1.27,1.2,-0.01,25.95,1.15,-36.75,0.02,0.44,0.9,-0.46,-0.48,-1
1:26:09.474 PM,15.37,4.66,-58.19,0.08,0.25,0.92,-1.49,1.33,0.08,25.83,1.2,-36.75,0.02,0.44,0.9,-0.45,-0.29,-0.92
1:26:09.569 PM,15.41,4.66,-58.19,0.08,0.26,0.92,-1.34,1.33,0.08,26.05,1.05,-36.73,0.02,0.44,0.9,-0.74,-0.05,-0.92
1:26:09.641 PM,15.16,4.42,-58.18,0.07,0.25,0.92,-1.37,1.36,-0.07,26.26,0.74,-36.71,0.01,0.44,0.89,-0.71,-0.18,-1.28
1:26:09.734 PM,15.18,4.84,-58.2,0.08,0.25,0.92,-1.19,1.19,-0.07,25.85,1.18,-36.75,0.02,0.43,0.9,-0.56,-0.47,-1.15
1:26:09.804 PM,15.24,4.56,-58.22,0.08,0.25,0.92,-1.24,1.25,0.04,26.07,1.01,-36.77,0.02,0.44,0.9,-0.59,-0.33,-0.89
1:26:09.869 PM,15.3,4.48,-58.22,0.07,0.25,0.92,-1.14,1.15,0.08,26.01,1.04,-36.74,0.02,0.44,0.9,-0.38,-0.66,-0.79
1:26:09.938 PM,15.46,4.54,-58.22,0.08,0.26,0.92,-1.09,1.12,0.06,25.99,1.19,-36.71,0.02,0.44,0.89,-0.09,-0.93,-0.87
1:26:10.034 PM,15.88,4.77,-58.22,0.08,0.26,0.92,-0.97,1.13,0.05,26,1.64,-36.68,0.03,0.44,0.9,-0.36,-0.5,-0.66
1:26:10.079 PM,15.27,4.46,-58.22,0.07,0.25,0.92,-1.34,1.47,0.05,26.14,0.86,-36.62,0.01,0.44,0.89,-0.93,0.37,-0.98
1:26:10.172 PM,15.58,4.74,-58.22,0.08,0.26,0.92,-1.31,1.06,-0.18,26.33,1.25,-36.62,0.02,0.44,0.89,-0.29,-0.65,-1.37
1:26:10.265 PM,15.21,4.88,-58.26,0.08,0.25,0.92,-1.32,1.44,-0.02,25.61,1.19,-36.67,0.02,0.43,0.9,-0.72,-0.01,-1.18
1:26:10.314 PM,15.39,4.54,-58.27,0.08,0.26,0.92,-1.2,1.35,0.07,26.14,1.11,-36.69,0.02,0.44,0.89,-0.85,0.27,-0.76
1:26:10.406 PM,15.18,4.65,-58.27,0.08,0.25,0.92,-1.34,1.34,0.05,26.2,1.13,-36.65,0.02,0.44,0.9,-0.19,-0.45,-0.82
1:26:10.464 PM,15.57,4.45,-58.27,0.07,0.26,0.92,-1.73,1.71,0.06,26.37,1.17,-36.61,0.02,0.44,0.9,-0.74,0.21,-1.27
1:26:10.575 PM,15.33,4.46,-58.27,0.07,0.25,0.92,-1.64,1.31,-0.07,26.29,0.89,-36.65,0.02,0.44,0.89,-0.4,-0.5,-1.5
1:26:10.616 PM,15.37,4.77,-58.29,0.08,0.25,0.92,-1.12,1.33,-0.07,25.51,1.08,-36.72,0.02,0.43,0.9,-0.33,-0.79,-1.24
1:26:10.749 PM,15.2,4.65,-58.31,0.08,0.25,0.92,-1.24,1.27,0.04,25.91,1.17,-36.75,0.02,0.43,0.89,-0.46,-0.45,-0.98
1:26:10.783 PM,15.4,4.69,-58.31,0.08,0.26,0.92,-1.23,1.18,0.05,26.2,1.17,-36.74,0.02,0.44,0.89,-0.63,-0.34,-0.88
1:26:10.842 PM,15.35,4.56,-58.31,0.08,0.25,0.92,-1.15,1.27,0.05,26.2,1.14,-36.72,0.02,0.44,0.89,-0.77,-0.24,-0.87
1:26:10.924 PM,15.38,4.58,-58.31,0.08,0.25,0.92,-1.15,1.28,-0.05,26.18,1.08,-36.69,0.02,0.44,0.89,-0.63,-0.29,-1.04
1:26:11.031 PM,15.45,4.6,-58.33,0.08,0.26,0.92,-1.33,1.21,-0.03,26.2,1.19,-36.69,0.02,0.44,0.9,-0.53,-0.31,-1.12
1:26:11.070 PM,15.65,4.57,-58.34,0.08,0.26,0.92,-1.69,1.18,0.01,26.16,1.19,-36.71,0.02,0.44,0.9,-0.44,-0.14,-1.15
1:26:11.155 PM,15.35,4.54,-58.35,0.08,0.25,0.92,-2.56,2.21,0.28,25.71,1.02,-36.72,0.02,0.43,0.9,-2.66,3.12,-1.28
1:26:11.248 PM,14.75,4.27,-58.31,0.07,0.24,0.93,-1.49,1.19,-0.19,25.67,-0.09,-36.76,0,0.42,0.88,-1.11,0.62,-1.59
1:26:11.354 PM,14.91,4.4,-58.35,0.07,0.25,0.93,-0.89,0.88,-0.47,25.81,0.46,-36.85,0.01,0.43,0.9,0.27,-2.17,-1.31
1:26:11.391 PM,15.06,4.46,-58.43,0.07,0.25,0.93,-1.17,1.4,-0.11,25.7,0.81,-36.89,0.01,0.43,0.9,-0.24,-0.97,-1.31
1:26:11.480 PM,15.11,4.53,-58.46,0.08,0.25,0.92,-1.1,1.18,0,25.65,0.77,-36.93,0.01,0.43,0.9,-0.34,-0.59,-1.02
1:26:11.527 PM,15.24,4.52,-58.47,0.08,0.25,0.92,-1.4,1.47,0.11,25.96,0.87,-36.93,0.02,0.44,0.9,-0.7,-0.08,-1.01
1:26:11.616 PM,15.32,4.48,-58.46,0.07,0.25,0.92,-1.21,1.23,0,25.85,0.8,-36.92,0.01,0.43,0.9,-0.58,-0.36,-0.97
1:26:11.719 PM,15.32,4.51,-58.47,0.08,0.25,0.92,-1.27,1.24,-0.06,26.02,0.87,-36.91,0.02,0.44,0.9,-0.49,-0.47,-0.96
1:26:11.762 PM,15.36,4.44,-58.48,0.07,0.25,0.92,-1.44,1.29,-0.11,26.07,0.95,-36.9,0.02,0.44,0.9,-0.34,-0.52,-0.89
1:26:11.866 PM,15.41,4.62,-58.51,0.08,0.26,0.92,-1.45,1.34,-0.02,26.03,1.05,-36.88,0.02,0.44,0.9,-0.34,-0.01,-0.71
1:26:11.948 PM,15.26,4.47,-58.52,0.07,0.25,0.92,-1.5,1.56,0.04,25.86,0.77,-36.83,0.01,0.44,0.9,-0.73,0.44,-0.82
1:26:11.991 PM,15.27,4.43,-58.52,0.07,0.25,0.92,-1.5,1.37,0.02,26.04,0.69,-36.79,0.01,0.44,0.89,-0.52,0.02,-0.91
1:26:12.074 PM,15.14,4.41,-58.53,0.07,0.25,0.92,-1.34,1.38,0.08,26.05,0.63,-36.77,0.01,0.44,0.89,-0.36,-0.18,-0.84
1:26:12.164 PM,15.18,4.42,-58.52,0.07,0.25,0.93,-1.44,1.47,0.19,25.85,0.8,-36.74,0.01,0.43,0.9,-0.28,0.02,-0.69
1:26:12.216 PM,15.1,4.4,-58.5,0.07,0.25,0.92,-1.4,1.47,0.21,25.93,0.52,-36.69,0.01,0.44,0.9,-0.48,0.11,-0.59
1:26:12.319 PM,15.06,4.41,-58.48,0.07,0.25,0.93,-1.64,1.56,0.15,26.06,0.63,-36.62,0.01,0.44,0.9,-0.69,0.37,-0.83
1:26:12.414 PM,15.16,4.42,-58.46,0.07,0.25,0.92,-1.08,1.14,-0.01,26.02,0.65,-36.59,0.01,0.43,0.89,-0.58,-0.37,-0.79
1:26:12.451 PM,15.16,4.16,-58.47,0.07,0.25,0.92,-0.63,0.82,-0.19,26.23,0.41,-36.55,0.01,0.44,0.89,-0.13,-1.38,-1.06
1:26:12.537 PM,15.18,4.5,-58.51,0.08,0.25,0.92,-1.18,1.27,-0.11,26.01,0.87,-36.56,0.02,0.44,0.9,-0.45,-0.9,-1.4
1:26:12.630 PM,15.01,4.51,-58.54,0.08,0.25,0.92,-0.99,1,-0.15,25.83,0.65,-36.61,0.01,0.43,0.9,-0.22,-1.04,-1.12
1:26:12.684 PM,15.23,4.48,-58.57,0.07,0.25,0.92,-1.12,1.08,-0.06,26.21,1.01,-36.63,0.02,0.44,0.89,-0.15,-1.04,-1.01
1:26:12.772 PM,15.21,4.62,-58.59,0.08,0.25,0.92,-1.03,1.16,-0.02,26.02,1.05,-36.62,0.02,0.44,0.9,-0.48,-0.66,-0.95
1:26:12.863 PM,15.25,4.4,-58.6,0.07,0.25,0.92,-0.92,1.1,0,26.1,1.01,-36.61,0.02,0.44,0.89,-0.47,-0.73,-0.82
1:26:12.911 PM,15.7,4.38,-58.61,0.07,0.26,0.92,-1.32,1.21,0.05,26.49,1.26,-36.58,0.02,0.45,0.9,-0.47,-0.85,-0.85
1:26:13.005 PM,15.52,4.63,-58.61,0.08,0.26,0.92,-1.39,1.45,0.05,26.4,1.38,-36.55,0.02,0.45,0.9,-0.47,-0.3,-0.99
1:26:13.062 PM,15.43,4.5,-58.61,0.08,0.26,0.92,-1.31,1.45,-0.02,26.32,1.11,-36.54,0.02,0.44,0.89,-0.6,-0.34,-1.21
1:26:13.144 PM,15.43,4.5,-58.62,0.08,0.26,0.92,-1.27,1.53,-0.1,26.17,1.27,-36.57,0.02,0.44,0.9,-0.48,-0.67,-1.5
1:26:13.237 PM,15.19,4.45,-58.64,0.07,0.25,0.92,-1.34,1.7,-0.08,26.07,1.15,-36.64,0.02,0.44,0.89,-0.29,-0.95,-1.65
1:26:13.285 PM,15.19,4.6,-58.66,0.08,0.25,0.92,-0.66,1.37,-0.18,26.03,1.2,-36.73,0.02,0.44,0.9,0.1,-2.02,-1.43
1:26:13.452 PM,15.38,4.36,-58.7,0.07,0.25,0.92,-1.25,1.87,0.21,26.38,1.6,-36.79,0.03,0.45,0.9,-0.3,-1.4,-0.82
1:26:13.452 PM,15.6,4.53,-58.68,0.08,0.26,0.92,-1.67,2,0.39,26.31,1.69,-36.76,0.03,0.44,0.9,-0.88,0.33,-0.66
1:26:13.519 PM,15.29,4.22,-58.63,0.07,0.25,0.92,-1.6,1.63,0.6,25.89,1.44,-36.7,0.03,0.44,0.9,-1.19,1.5,0.37
1:26:13.628 PM,15.52,3.75,-58.54,0.06,0.26,0.92,-0.88,1.75,0.63,26.64,0.85,-36.49,0.01,0.44,0.88,-1.37,0.76,0.02
1:26:13.705 PM,15.68,4.06,-58.45,0.07,0.26,0.92,-0.72,0.73,0.11,26.58,1.49,-36.33,0.03,0.44,0.89,-0.16,-1.28,-0.34
1:26:13.754 PM,15.76,4.51,-58.45,0.08,0.26,0.92,-1.49,1.58,-0.02,25.64,1.95,-36.22,0.03,0.43,0.9,-0.5,-0.06,-1.29
1:26:13.847 PM,15.6,4.28,-58.46,0.07,0.26,0.92,-1.56,1.02,-0.08,25.61,1.29,-36.26,0.02,0.43,0.89,-0.79,0.5,-0.83
1:26:13.895 PM,15.34,4.37,-58.48,0.07,0.25,0.92,-1.11,0.43,0.31,25.65,1.05,-36.23,0.02,0.43,0.89,-0.87,0.14,0.59
1:26:14.010 PM,15.85,4.48,-58.44,0.07,0.26,0.92,-0.67,-0.14,0.49,26.04,1.53,-35.98,0.03,0.44,0.89,0.99,-2,2.35
1:26:14.082 PM,15.48,4.66,-58.38,0.08,0.26,0.92,-0.79,0.65,0.5,26.69,1.83,-35.46,0.03,0.45,0.9,0.84,-1.53,2.4
1:26:14.129 PM,16.01,4.6,-58.31,0.08,0.27,0.92,-2.02,1.61,0.52,26.92,2.5,-34.94,0.04,0.46,0.9,0.69,0.1,0.62
1:26:14.221 PM,15.04,4.76,-58.24,0.08,0.25,0.93,-2.33,2.08,0.51,26.63,2.21,-34.69,0.04,0.45,0.89,-1.36,1.67,0.05
1:26:14.315 PM,15.57,4.69,-58.17,0.08,0.26,0.92,-1.39,0.52,-0.18,27.11,2.2,-34.52,0.04,0.45,0.88,0.43,-1.67,-0.85
1:26:14.365 PM,15.46,5.15,-58.2,0.09,0.26,0.92,-1.23,0.77,-0.31,26.53,2.52,-34.49,0.04,0.45,0.9,0.77,-2.05,-1.53
1:26:14.458 PM,15.61,4.9,-58.26,0.08,0.26,0.92,-1.85,1.52,-0.15,26.19,2.65,-34.57,0.05,0.44,0.9,-1.18,0.87,-1.76
1:26:14.505 PM,15.4,4.54,-58.29,0.08,0.26,0.92,-2.41,2.03,-0.34,27.04,2.1,-34.68,0.04,0.46,0.9,-2.16,2.38,-2.11
1:26:14.604 PM,15.31,4.27,-58.35,0.07,0.25,0.92,-2.12,2.05,-0.6,27.09,1.43,-34.84,0.02,0.45,0.88,-2.06,2.53,-3.41
1:26:14.669 PM,15.35,4.15,-58.45,0.07,0.25,0.93,-0.71,2.02,-0.88,26.5,0.87,-35.21,0.02,0.45,0.89,-1.05,2.12,-5.48
1:26:14.772 PM,15.24,4.33,-58.6,0.07,0.25,0.92,-1.85,2.36,-0.79,25.7,0.55,-35.88,0.01,0.43,0.9,-1.86,3.88,-5.08
1:26:14.810 PM,15.35,4.13,-58.73,0.07,0.25,0.92,-2.04,2.02,-0.84,26.12,-0.73,-36.5,-0.01,0.44,0.89,-0.88,3.36,-4.47
1:26:14.957 PM,14.7,4.08,-58.86,0.07,0.24,0.93,-1.08,1.5,-0.64,25.33,-1.57,-37.03,-0.03,0.42,0.89,-0.88,2.11,-3.14
1:26:14.991 PM,15.32,3.6,-58.97,0.06,0.25,0.92,0.05,0.22,-0.34,26.18,-1.99,-37.35,-0.03,0.43,0.88,-0.05,-1.15,-1.38
1:26:15.082 PM,15.08,4.29,-59.03,0.07,0.25,0.92,-0.83,1,-0.24,25.86,-1.14,-37.4,-0.02,0.44,0.91,0.28,-0.77,-1.52
1:26:15.156 PM,14.98,4.19,-59.07,0.07,0.25,0.92,-1.4,1.66,0.13,26.19,-1.37,-37.47,-0.02,0.44,0.89,-0.75,0.61,-1
1:26:15.199 PM,15.35,4.05,-59.06,0.07,0.25,0.92,-1.18,1.13,-0.1,26.31,-1.41,-37.47,-0.02,0.44,0.89,-0.18,-0.38,-1.25
1:26:15.295 PM,15.21,4.18,-59.09,0.07,0.25,0.92,-1.74,1.89,-0.07,26.01,-1.4,-37.5,-0.02,0.44,0.9,-0.32,-0.3,-1.86
1:26:15.349 PM,15.18,4.01,-59.11,0.07,0.25,0.93,-1.25,1.14,0.08,25.86,-1.75,-37.63,-0.03,0.43,0.89,-0.76,-0.8,-1.18
1:26:15.435 PM,15.22,3.95,-59.1,0.07,0.25,0.92,-0.48,0.76,0.05,25.71,-1.44,-37.65,-0.02,0.43,0.89,-0.08,-2.16,-0.6
1:26:15.526 PM,15.27,4.37,-59.1,0.07,0.25,0.92,-0.43,0.96,0.2,25.59,-0.88,-37.58,-0.02,0.43,0.9,-0.09,-1.46,-0.26
1:26:15.578 PM,15.51,4.14,-59.08,0.07,0.26,0.92,-0.95,0.97,0.19,26.39,-0.68,-37.46,-0.01,0.44,0.89,-0.54,-1.08,-0.05
1:26:15.717 PM,15.53,4.3,-59.06,0.07,0.26,0.92,-1.26,1.21,0.05,26.5,-0.56,-37.31,-0.01,0.45,0.9,-0.33,-0.76,-0.63
1:26:15.757 PM,15.41,4.16,-59.06,0.07,0.25,0.92,-1.79,1.52,0.08,26.28,-0.62,-37.25,-0.01,0.44,0.9,-0.95,0.15,-0.98
1:26:15.812 PM,15.54,4.31,-59.06,0.07,0.26,0.92,-1.47,1.33,-0.03,26.34,-0.75,-37.24,-0.01,0.44,0.89,-0.54,-0.13,-1.25
1:26:15.899 PM,15.13,4.17,-59.07,0.07,0.25,0.92,-0.75,0.9,0.02,25.94,-0.86,-37.27,-0.01,0.43,0.89,0.11,-1.38,-0.77
1:26:15.990 PM,15.64,4.43,-59.08,0.07,0.26,0.92,-0.66,0.99,0.18,26.1,-0.23,-37.23,0,0.44,0.9,0.27,-1.35,-0.29
1:26:16.037 PM,15.78,4.13,-59.06,0.07,0.26,0.92,-0.69,0.72,0.18,26.9,-0.62,-37.12,-0.01,0.45,0.88,0.1,-1.78,-0.27
1:26:16.147 PM,15.84,4.75,-59.04,0.08,0.26,0.92,-0.56,0.37,0,26.26,0.29,-37,0.01,0.44,0.9,0.57,-2.11,0.15
1:26:16.226 PM,15.91,4.4,-59.05,0.07,0.26,0.92,-0.98,0.93,0.03,27.15,0.22,-36.82,0,0.46,0.89,-0.18,-1.05,0.15
1:26:16.294 PM,15.96,4.45,-59.05,0.07,0.26,0.92,-1.11,1.03,0.12,27.23,0.07,-36.64,0,0.45,0.88,0.05,-1.18,-0.9
1:26:16.346 PM,15.85,4.75,-59.04,0.08,0.26,0.92,-1.42,1.39,0.08,26.82,0.8,-36.62,0.01,0.45,0.9,-0.64,-0.71,-0.74
1:26:16.486 PM,15.95,4.52,-59.04,0.08,0.26,0.92,-1.25,0.96,-0.01,27.12,0.49,-36.57,0.01,0.45,0.88,-0.56,-1.04,-0.74
1:26:16.529 PM,15.73,4.81,-59.05,0.08,0.26,0.92,-1.46,1.45,0.24,26.9,0.78,-36.53,0.01,0.45,0.89,-0.08,-1.2,-0.41
1:26:16.642 PM,15.76,4.7,-59.02,0.08,0.26,0.92,-1.38,1.59,0.22,27.35,1.09,-36.43,0.02,0.46,0.89,-0.91,-0.03,-0.37
1:26:16.642 PM,15.7,4.55,-58.99,0.08,0.26,0.92,-1.14,1.12,0.11,27.43,0.77,-36.33,0.01,0.46,0.88,-0.34,-1.16,-0.87
1:26:16.761 PM,16.14,4.58,-58.98,0.08,0.27,0.92,-1.17,0.91,-0.2,27.22,1.23,-36.31,0.02,0.45,0.88,0.46,-2.87,-1.64
1:26:16.830 PM,16.17,4.27,-59.02,0.07,0.27,0.92,-1.54,0.02,-0.05,26.91,1.52,-36.4,0.03,0.45,0.88,0.25,-2.23,-1.2
1:26:16.876 PM,15.85,4.99,-59.04,0.08,0.26,0.92,-1.03,1.08,0.11,26.99,2.17,-36.42,0.04,0.45,0.89,-0.79,-1.17,-0.08
1:26:16.970 PM,15.97,4.85,-59.03,0.08,0.26,0.92,-0.33,0.77,0.15,27.75,1.55,-36.28,0.03,0.46,0.88,-0.12,-2.13,-0.05
1:26:17.072 PM,15.76,4.39,-59.02,0.07,0.26,0.93,0.69,1.37,0.33,27.34,1.6,-36.13,0.03,0.45,0.88,1.44,-7.21,-0.09
1:26:17.107 PM,15.69,5.59,-58.97,0.09,0.26,0.92,2.08,4.59,3.21,28.11,3.15,-35.98,0.06,0.48,0.89,3.7,-9.31,1.52
1:26:17.202 PM,17.6,4.37,-58.49,0.07,0.29,0.9,-1.44,2.85,2.75,29.07,5.49,-35.59,0.09,0.48,0.86,-2.39,-8.1,2.42
1:26:17.278 PM,17.96,4.85,-58.08,0.08,0.3,0.91,0.14,-0.56,-0.32,27.93,6.69,-35.07,0.12,0.46,0.87,-0.89,-5.01,1
1:26:17.367 PM,17.42,4.59,-58.14,0.08,0.29,0.91,-0.83,0.23,-0.44,27.75,6.88,-34.75,0.12,0.47,0.89,-0.75,-0.76,-0.72
1:26:17.417 PM,16.42,5.28,-58.22,0.09,0.27,0.91,-2.15,0.57,-0.08,26.57,6.08,-34.71,0.11,0.45,0.89,-2.24,2.44,-1.37
1:26:17.496 PM,16.94,5.17,-58.24,0.09,0.28,0.91,-1.79,1.23,-0.04,27.3,5.93,-34.76,0.1,0.46,0.88,-1.64,1.9,-1.89
1:26:17.577 PM,16.75,4.82,-58.25,0.08,0.28,0.91,-1.62,1.5,-0.3,27.17,5.47,-34.89,0.09,0.45,0.88,-0.9,0.85,-2.31
1:26:17.670 PM,16.06,5.07,-58.31,0.09,0.27,0.93,-1.49,-0.02,-0.53,26.99,5.36,-35.08,0.09,0.45,0.88,-0.87,0.54,-2.05
1:26:17.717 PM,17.08,5.32,-58.39,0.09,0.28,0.91,-2.17,0.53,-0.3,27.22,5.43,-35.24,0.09,0.46,0.89,-0.78,0.6,-1.98
1:26:17.810 PM,16.83,5.19,-58.45,0.09,0.28,0.92,-1.55,0.75,-0.33,26.87,4.86,-35.38,0.08,0.45,0.88,0.02,0.13,-1.64
1:26:17.901 PM,17.06,5.2,-58.51,0.09,0.28,0.91,-1.33,-0.06,-0.75,27.13,4.95,-35.47,0.09,0.45,0.88,1.08,-1.08,-1.45
1:26:17.952 PM,15.99,5.79,-58.63,0.1,0.26,0.91,-6.55,4,0.24,26.53,4.62,-35.54,0.08,0.45,0.9,-1.47,2.66,0.35
1:26:18.041 PM,15.28,4.73,-58.6,0.08,0.25,0.93,-4.74,3.95,0.22,28.03,5.03,-35.33,0.09,0.47,0.87,-1.15,1.98,-0.93
1:26:18.099 PM,15.26,4.54,-58.58,0.08,0.25,0.93,-2.12,1.25,-0.16,27.7,4.4,-35.31,0.08,0.46,0.88,0.48,-1.65,-1.23
1:26:18.197 PM,15.61,4.96,-58.61,0.08,0.26,0.92,0.43,0.77,-0.31,27.41,4.94,-35.34,0.09,0.46,0.88,0.85,-2.63,-1.37
1:26:18.251 PM,15.51,5.06,-58.66,0.08,0.26,0.92,0.47,0.47,-0.43,27.3,5.14,-35.39,0.09,0.46,0.89,0.8,-2.4,-1.37
1:26:18.368 PM,16.15,5.05,-58.74,0.08,0.27,0.92,0.88,1,-0.21,27.48,5.37,-35.44,0.09,0.46,0.88,1.04,-3.08,-1.02
1:26:18.415 PM,17.07,4.72,-58.78,0.08,0.28,0.92,1.08,1.5,-0.25,28.31,5.76,-35.44,0.1,0.47,0.87,0.12,-3.04,-0.82
1:26:18.509 PM,16.26,4.86,-58.82,0.08,0.27,0.92,-1.61,1.5,0.13,28.38,6.01,-35.4,0.11,0.48,0.88,-0.81,-0.46,-0.65
1:26:18.558 PM,16.52,4.78,-58.81,0.08,0.27,0.92,-1.83,1.45,-0.08,28.3,5.94,-35.34,0.1,0.47,0.87,-0.92,0.51,-1.29
1:26:18.647 PM,16.06,4.84,-58.83,0.08,0.27,0.92,-1.85,1.52,-0.06,27.78,5.62,-35.38,0.1,0.47,0.88,-1.49,0.47,-1.53
1:26:18.739 PM,16.26,4.79,-58.85,0.08,0.27,0.92,-1.41,1.79,0.03,27.83,5.73,-35.46,0.1,0.47,0.88,-0.81,-0.11,-1.32
1:26:18.787 PM,16.38,4.75,-58.85,0.08,0.27,0.92,-1.51,1.37,0.08,27.94,5.58,-35.5,0.1,0.47,0.88,-0.85,0.04,-1.04
1:26:18.881 PM,16.5,4.71,-58.85,0.08,0.27,0.92,-1.88,1.59,0.18,27.67,5.58,-35.5,0.1,0.47,0.88,-1.24,0.75,-0.93
1:26:18.934 PM,16.16,4.68,-58.83,0.08,0.27,0.92,-2.35,1.79,0.31,27.71,5.22,-35.49,0.09,0.47,0.88,-1.87,1.82,-0.99
1:26:19.026 PM,15.97,4.6,-58.79,0.08,0.26,0.92,-1.95,1.36,0.06,27.75,4.95,-35.48,0.09,0.46,0.88,-0.73,0.56,-1.19
1:26:19.115 PM,16.21,4.47,-58.79,0.07,0.27,0.92,-0.79,1.02,-0.17,27.72,4.84,-35.5,0.08,0.46,0.88,0.12,-1.33,-1.53
1:26:19.166 PM,16.2,4.73,-58.83,0.08,0.27,0.92,-0.21,0.84,-0.08,27.12,5.2,-35.58,0.09,0.46,0.89,-0.02,-1.78,-1.21
1:26:19.261 PM,15.82,4.74,-58.85,0.08,0.26,0.92,0.58,0.87,0.35,27.23,5.39,-35.61,0.09,0.46,0.89,-0.96,-0.41,-0.47
1:26:19.359 PM,17.97,5.04,-58.8,0.08,0.3,0.91,0.5,0,0.87,27.64,4.88,-35.52,0.09,0.47,0.89,-1.77,0.28,-0.52
1:26:19.392 PM,17.04,4.85,-58.68,0.08,0.28,0.92,-1.34,4.37,0.18,26.86,4.77,-35.44,0.08,0.45,0.89,-0.82,-1.62,-0.63
1:26:19.488 PM,17.31,3.14,-58.66,0.06,0.3,0.97,-2.55,10.91,1.68,26.7,3.95,-35.38,0.07,0.47,0.93,-1.9,-6.2,1.7
1:26:19.558 PM,16.38,1.66,-58.41,0.03,0.31,1.06,-6.65,9.62,17.76,28.17,5.6,-34.96,0.11,0.51,0.95,-0.54,-13.87,7.15
1:26:19.654 PM,10.71,1.24,-55.7,0.02,0.21,1.11,12.88,-41.15,29.76,25.69,7.88,-33.7,0.14,0.45,0.91,-7.56,-18.15,7.27
1:26:19.699 PM,19.64,14,-51.13,0.24,0.33,0.89,14.24,-78.25,39.73,25.27,13.48,-32.43,0.24,0.44,0.91,-10.01,-19.33,9.27
1:26:19.811 PM,15.57,36.68,-44.98,0.51,0.23,0.65,12.58,-74.87,22.05,19.41,21.04,-30.83,0.35,0.32,0.84,-6.18,-20.79,5.29
1:26:19.858 PM,16.42,44.36,-41.58,0.58,0.24,0.55,5.22,-58.54,4.82,17.35,23.99,-29.86,0.38,0.28,0.8,-1.71,-17.5,-0.92
1:26:19.951 PM,16.2,57.59,-40.85,0.75,0.25,0.41,-9.64,-25.72,-14.7,20.33,21.17,-29.84,0.35,0.33,0.83,-2.27,-12.15,-3.92
1:26:20.015 PM,24.58,50.6,-43.14,0.71,0.38,0.44,-20.44,-12.49,-31.68,24.7,21.39,-30.29,0.35,0.4,0.8,1.18,-4.57,-10.05
1:26:20.095 PM,23.15,43.99,-48.06,0.66,0.37,0.57,-19.08,17.62,-54.92,15.82,23.43,-31.69,0.37,0.26,0.82,7.9,1.53,-8.64
1:26:20.186 PM,25.03,36.05,-56.54,0.6,0.43,0.7,-2.02,24.63,-38.94,18.91,22.58,-32.87,0.39,0.33,0.87,10.02,0.84,-4.12
1:26:20.315 PM,31.6,28.85,-62.55,0.51,0.56,0.74,5.34,8.59,-14.21,26.6,21.5,-33.34,0.38,0.47,0.85,6.92,-1.02,-1.02
1:26:20.315 PM,27.94,31.9,-64.75,0.54,0.47,0.72,1.54,1.02,1.06,26.9,18.38,-33.34,0.33,0.47,0.87,1.85,-0.66,2.58
1:26:20.432 PM,25.56,32.39,-64.59,0.53,0.42,0.71,3.27,-3.51,2.82,25.49,17.5,-32.79,0.3,0.43,0.86,-0.64,-2.23,0.14
1:26:20.467 PM,31.19,28.72,-64.17,0.46,0.5,0.68,1.95,-8.95,10.85,28.54,21.28,-32.61,0.36,0.47,0.79,-2.05,-0.44,-2.23
1:26:20.559 PM,30.21,39.58,-62.51,0.61,0.48,0.56,5.88,-8.83,16.1,27.56,22.96,-32.8,0.39,0.47,0.8,-2.02,3.54,-2.3
1:26:20.652 PM,27.77,42.08,-60.04,0.68,0.47,0.59,5.7,-0.81,8.94,25.34,22.47,-32.99,0.39,0.44,0.84,0.72,2.53,-2.84
1:26:20.699 PM,30.89,38.88,-58.69,0.6,0.49,0.56,3.71,0.1,1.26,28.4,21.44,-33.27,0.37,0.48,0.81,0.64,-1.05,-1.38
1:26:20.815 PM,29.31,40.2,-58.5,0.65,0.49,0.59,1.09,0.89,1.21,26.12,20.6,-33.32,0.36,0.45,0.84,0.04,0.6,-1.32
1:26:20.854 PM,29.67,39.48,-58.33,0.63,0.49,0.59,-0.66,2.11,0.94,26.5,20.86,-33.36,0.36,0.45,0.83,-0.2,-0.04,-0.86
1:26:20.933 PM,28.96,40.12,-58.19,0.64,0.48,0.59,-1.4,3,1.4,27.32,20.22,-33.34,0.35,0.46,0.83,-1.47,1.25,-0.88
1:26:21.027 PM,29.75,40.25,-57.99,0.65,0.5,0.58,-3.22,3.12,-0.53,26.47,20.73,-33.31,0.36,0.46,0.84,-0.89,0.21,-0.93
1:26:21.128 PM,29.56,38.43,-58.08,0.6,0.48,0.59,-1.92,1.25,0.05,27.45,20.79,-33.3,0.35,0.46,0.81,-2.09,-0.31,-0.51
1:26:21.166 PM,28.28,40.21,-58.08,0.63,0.47,0.59,-2.57,1.77,-0.15,26.92,20.54,-33.22,0.35,0.45,0.82,-1.08,0.62,-1.74
1:26:21.259 PM,28.89,39.34,-58.11,0.63,0.48,0.6,-2.41,1.85,-0.62,26.93,20.16,-33.32,0.35,0.46,0.83,-0.63,-0.37,-2.02
1:26:21.377 PM,29.03,39.24,-58.21,0.62,0.47,0.59,-1.91,0.43,-0.29,26.42,20.39,-33.48,0.35,0.44,0.82,-0.68,0.47,-2.3
1:26:21.408 PM,28.95,39.76,-58.26,0.64,0.48,0.59,-0.76,0.11,-0.12,26.93,20.11,-33.67,0.35,0.46,0.83,-0.45,1.39,-2.47
1:26:21.492 PM,28.49,39.33,-58.29,0.63,0.47,0.6,-0.6,0.33,-1.95,26.96,19.57,-33.89,0.34,0.46,0.83,1.39,-1.25,-1.66
1:26:21.539 PM,28.62,39.96,-58.6,0.64,0.48,0.6,-0.89,1.4,-0.4,27.12,19.59,-33.99,0.34,0.46,0.84,-0.18,-0.72,-1.11
1:26:21.631 PM,29.44,39.2,-58.67,0.63,0.49,0.59,-1.63,1.44,0.5,27.46,19.56,-34,0.34,0.47,0.83,-0.31,-0.61,-1.11
1:26:21.725 PM,29.58,39.43,-58.6,0.62,0.48,0.58,-3.47,0.87,-0.76,27.81,20.35,-34.01,0.35,0.47,0.81,-1.3,-0.18,-0.97
1:26:21.772 PM,31.46,36.55,-58.73,0.58,0.51,0.59,-9.05,-1.86,-0.18,28.54,20.35,-34,0.35,0.48,0.8,-3.99,1.86,-0.59
1:26:21.875 PM,27.26,41.38,-58.76,0.65,0.45,0.58,-1.62,0.72,3.12,26.44,20.19,-33.94,0.34,0.44,0.82,-4.14,5.49,-0.7
1:26:21.933 PM,27.56,41.07,-58.29,0.67,0.47,0.6,2.79,3.24,0.91,24.66,18.4,-33.89,0.32,0.43,0.87,1.73,-0.65,-1.46
1:26:22.018 PM,27.16,39.89,-58.16,0.65,0.46,0.63,3.86,2.71,-0.27,26,18.13,-33.95,0.32,0.45,0.87,2.28,-2.5,-1.27
1:26:22.098 PM,27.74,40.19,-58.21,0.62,0.45,0.58,2.68,4.89,0.53,26.23,18.26,-33.99,0.31,0.44,0.84,2.11,-2.09,-0.58
1:26:22.226 PM,28.87,39.67,-58.14,0.64,0.48,0.6,-0.03,1.93,2.25,27.42,19.74,-33.92,0.34,0.47,0.83,-0.45,-1.12,-1.5
1:26:22.226 PM,28.52,39.62,-57.8,0.63,0.47,0.59,0.05,2.15,0.21,27.33,19.74,-33.99,0.34,0.46,0.83,0.45,-2.58,-0.87
1:26:22.343 PM,28.24,40.16,-57.78,0.63,0.46,0.59,0.4,2.03,-0.3,27.18,19.84,-33.96,0.34,0.46,0.82,0,-2.35,-1.32
1:26:22.427 PM,29.11,39.61,-57.83,0.63,0.48,0.59,1.24,2.21,-0.56,27.83,20.01,-34.01,0.34,0.47,0.82,1.53,-1.98,-2.05
1:26:22.541 PM,30.23,39.08,-57.92,0.62,0.5,0.58,0.92,1.55,-0.75,28.18,20.3,-34.16,0.35,0.48,0.82,1.44,-2.54,-2.35
1:26:22.541 PM,29.66,39.67,-58.05,0.63,0.49,0.58,1.59,2.56,-1.89,28.25,20.67,-34.36,0.36,0.48,0.82,1.6,-0.59,-1.99
1:26:22.626 PM,29.75,39.69,-58.34,0.64,0.5,0.59,-2.24,4.51,2.18,28.35,20.48,-34.51,0.36,0.49,0.83,-1.9,-0.52,-0.95
1:26:22.708 PM,29.26,42.08,-58.02,0.66,0.48,0.55,-4.66,8.19,-2.94,28.99,20.79,-34.5,0.37,0.5,0.83,-3.11,-1.02,0.05
1:26:22.801 PM,30.54,38,-58.48,0.61,0.5,0.6,-4.66,7.72,-4.2,28.91,21.16,-34.33,0.37,0.49,0.81,-2.58,-0.99,0.6
1:26:22.848 PM,29.72,35.41,-59.13,0.56,0.48,0.62,-3.09,4.17,0.56,28.3,19.63,-34.08,0.33,0.47,0.81,-0.27,-0.84,0.35
1:26:22.940 PM,30.04,35.88,-59.06,0.57,0.49,0.62,-1.56,2.82,-0.09,28.09,20.04,-33.87,0.34,0.47,0.81,-0.94,-0.27,-0.86
1:26:23.033 PM,30.62,36.64,-59.08,0.58,0.5,0.61,-0.18,0.95,-0.65,27.83,21.4,-33.84,0.36,0.47,0.8,-0.24,-0.25,-1.57
1:26:23.080 PM,30.33,36.6,-59.19,0.59,0.5,0.62,-0.62,0.98,-0.48,27.66,20.82,-33.93,0.36,0.47,0.82,-0.22,-0.29,-1.29
1:26:23.171 PM,30.66,35.8,-59.27,0.58,0.51,0.63,-1.09,1.46,-0.31,27.66,20.72,-33.97,0.36,0.48,0.83,-0.24,-0.82,-1.04
1:26:23.266 PM,30.49,35.63,-59.32,0.58,0.51,0.63,-2.44,2.23,-0.18,27.47,20.8,-33.97,0.36,0.47,0.83,-0.75,-0.46,-0.86
1:26:23.313 PM,30.46,35.62,-59.36,0.57,0.5,0.62,-3.42,3.2,-1.84,28.04,21.13,-33.94,0.36,0.47,0.81,-1.5,-0.57,-0.53
1:26:23.405 PM,29.72,34.58,-59.65,0.55,0.48,0.64,-1.39,2.87,-1.36,27.3,20.69,-33.86,0.35,0.45,0.81,-0.63,-0.43,-0.23
1:26:23.477 PM,30.69,32.5,-59.87,0.52,0.49,0.65,3.43,-1.54,1.95,27.52,20.87,-33.74,0.34,0.45,0.78,-0.16,1.42,-2.12
1:26:23.560 PM,31.32,36.75,-59.58,0.6,0.52,0.61,1.82,-6.88,3.73,27.33,20.51,-33.91,0.36,0.47,0.83,-0.47,0.94,-2.56
1:26:23.642 PM,30.25,40.38,-59.02,0.66,0.51,0.58,0.39,-3.26,2.73,27.7,20.65,-34.14,0.37,0.49,0.85,-0.01,-0.11,-1.98
1:26:23.685 PM,30.82,37.87,-58.6,0.61,0.51,0.6,0.25,-5.06,3.85,29.05,20.35,-34.29,0.35,0.49,0.81,-0.3,0.08,-2.03
1:26:23.779 PM,28.06,40.26,-58.02,0.65,0.47,0.61,2.29,-4.87,2.87,26.88,19.98,-34.44,0.35,0.46,0.83,-0.13,-1.57,-1.82
1:26:23.874 PM,30.7,40.7,-57.59,0.64,0.5,0.55,1.16,-1.56,1.1,27.95,21.19,-34.56,0.37,0.48,0.82,0.59,-3.5,-1.45
1:26:23.921 PM,31.07,41.12,-57.43,0.65,0.51,0.54,-1.18,-2.42,1.11,28.84,20.16,-34.63,0.35,0.49,0.82,-1.51,-1.21,-1.43
1:26:24.015 PM,30.06,41.26,-57.27,0.64,0.49,0.55,-1.37,-0.55,0.17,28.28,20.65,-34.69,0.35,0.47,0.8,-0.68,-0.38,-1.45
1:26:24.108 PM,29.63,41.59,-57.25,0.66,0.49,0.56,-1.73,-0.53,0.1,28.07,20.97,-34.75,0.36,0.48,0.82,-0.93,-0.25,-1.75
1:26:24.153 PM,28.61,42.58,-57.24,0.68,0.48,0.56,-0.6,1.02,-0.64,27.77,20.29,-34.86,0.35,0.47,0.82,-0.14,-1.16,-2.59
1:26:24.247 PM,29.91,41.57,-57.35,0.66,0.49,0.55,-0.41,1.43,-0.37,27.95,20.34,-35.1,0.35,0.47,0.81,-0.11,-1.27,-3.11
1:26:24.342 PM,30.85,41.33,-57.42,0.66,0.51,0.55,-0.41,1.87,-1.28,28.77,20.67,-35.42,0.36,0.49,0.81,0.1,-1.69,-2.52
1:26:24.388 PM,30.73,41.28,-57.62,0.66,0.51,0.55,-0.66,1.98,-0.63,29.15,20.94,-35.65,0.36,0.49,0.81,-0.18,-1.43,-2.25
1:26:24.481 PM,31.39,40.82,-57.73,0.65,0.52,0.55,-0.76,1.86,-0.11,29.12,20.91,-35.84,0.36,0.49,0.8,-0.13,-1.09,-1.88
1:26:24.541 PM,30.42,40.71,-57.75,0.64,0.5,0.56,-0.92,1.98,-0.81,28.7,20.58,-35.97,0.35,0.48,0.81,-0.25,-2.35,-1.98
1:26:24.640 PM,30.66,41,-57.89,0.65,0.51,0.55,-1.27,2.03,-0.32,28.69,21.41,-36.11,0.37,0.48,0.81,-0.75,-1.59,-1.98
1:26:24.716 PM,30.58,41.09,-57.94,0.65,0.5,0.55,-0.39,2.15,-1.05,29.32,21.44,-36.26,0.37,0.49,0.8,-0.33,-2,-1.92
1:26:24.764 PM,33.02,39.91,-58.11,0.64,0.54,0.53,-0.89,0.44,-1.38,30.16,21.77,-36.4,0.37,0.51,0.79,0.02,-2.15,-1.84
1:26:24.856 PM,31.51,40.4,-58.33,0.65,0.53,0.56,-0.72,-0.06,-1.53,29.38,22.03,-36.52,0.38,0.5,0.8,0.24,-1.85,-1.06
1:26:24.950 PM,31.54,41.16,-58.58,0.66,0.53,0.55,-0.47,-0.53,-2.24,29.38,22.66,-36.53,0.4,0.51,0.8,0.19,-3.25,-0.15
1:26:24.997 PM,32.1,40.43,-58.93,0.63,0.52,0.53,-1.69,0.34,0.15,30.2,22.5,-36.39,0.39,0.51,0.79,-1.81,-1.77,1.42
1:26:25.109 PM,31.24,40,-58.92,0.62,0.5,0.55,-1.39,-0.24,0.66,29.39,21.73,-36.02,0.36,0.48,0.78,-1.63,-1.4,0.37
1:26:25.144 PM,31.1,41.54,-58.83,0.66,0.51,0.54,-1.07,0.79,-0.19,28.9,23.1,-35.8,0.4,0.49,0.79,-1.2,-1.58,-0.01
1:26:25.231 PM,32.52,40.45,-58.86,0.65,0.54,0.54,-0.95,-0.64,-0.02,29.35,23.34,-35.64,0.4,0.5,0.79,-1.37,-2.24,0.4
1:26:25.324 PM,31.76,41.37,-58.87,0.65,0.52,0.53,-0.76,-0.4,0.04,28.78,23.92,-35.42,0.41,0.48,0.78,-1.26,-2.01,0.62
1:26:25.432 PM,31.45,41.2,-58.88,0.65,0.51,0.53,-1.01,0.21,-0.25,28.47,24.14,-35.17,0.41,0.48,0.79,-2.12,-1.74,0.38
1:26:25.463 PM,32.03,41,-58.92,0.65,0.52,0.53,-0.68,0.27,0.3,28.35,24.3,-34.95,0.41,0.48,0.78,-1.21,-1.55,0.03
1:26:25.568 PM,31.87,41.3,-58.89,0.66,0.52,0.53,-0.75,0.27,0.4,28.74,24.34,-34.79,0.42,0.49,0.78,-1.13,-2.17,-0.36
1:26:25.648 PM,31.49,41.52,-58.83,0.66,0.52,0.53,-0.73,0.4,0.6,28.21,24.4,-34.68,0.42,0.48,0.79,-1.11,-1.73,-0.27
1:26:25.696 PM,32.26,41.83,-58.75,0.66,0.53,0.52,-0.66,0.48,0.33,27.98,24.89,-34.57,0.42,0.47,0.78,-1.2,-1.72,-0.21
1:26:25.812 PM,33,41.58,-58.71,0.65,0.53,0.5,-0.92,0.31,0.37,28.09,25,-34.44,0.42,0.47,0.78,-0.84,-1.31,-0.26
1:26:25.844 PM,31.14,42.4,-58.66,0.67,0.51,0.52,-0.91,0.69,0.11,27.57,24.84,-34.32,0.42,0.46,0.78,-0.69,-0.23,-0.37
1:26:25.928 PM,31.92,41.72,-58.65,0.66,0.53,0.52,-0.62,0.08,0.13,27.65,24.85,-34.22,0.42,0.47,0.79,-0.8,-0.95,-0.76
1:26:26.022 PM,31.42,42.53,-58.64,0.67,0.51,0.51,-1.56,0.94,0.21,27.95,25.01,-34.18,0.42,0.47,0.78,-0.94,0.04,-1.06
1:26:26.071 PM,32.52,41.95,-58.62,0.66,0.53,0.51,-1.03,0.56,0.02,27.95,25.43,-34.18,0.44,0.47,0.78,-1.08,-0.63,-0.9
1:26:26.163 PM,31.58,42.89,-58.62,0.68,0.53,0.51,-1.52,1.39,0.32,27.14,25.56,-34.16,0.44,0.47,0.8,-1.66,-0.8,-0.99
1:26:26.227 PM,31.83,42.7,-58.58,0.68,0.53,0.51,-2.91,1.62,0.49,27.07,25.8,-34.16,0.45,0.47,0.79,-1.71,-0.68,-0.12
1:26:26.326 PM,31.63,42.38,-58.51,0.66,0.51,0.51,-2.85,1.08,0.74,27.14,25.48,-34.02,0.43,0.46,0.78,-1.93,-0.01,0.17
1:26:26.394 PM,32.03,40.98,-58.41,0.65,0.52,0.53,-3.73,0.42,3.47,27.95,25.08,-33.83,0.43,0.47,0.78,-2.89,0.9,0.66
1:26:26.465 PM,30.46,43.61,-57.89,0.65,0.48,0.49,-1.05,1.37,-0.22,26.28,25.98,-33.57,0.43,0.43,0.77,-0.34,-0.63,0.11
1:26:26.534 PM,31.89,42.62,-57.93,0.65,0.51,0.49,-0.47,2.55,0.66,26.39,25.9,-33.4,0.43,0.44,0.77,-0.91,2.17,-1.14
1:26:26.627 PM,28.45,44,-57.84,0.7,0.48,0.54,-1.02,2.08,2.18,25.45,25.04,-33.41,0.43,0.43,0.81,-1.42,2.87,-1.17
1:26:26.746 PM,31,43.56,-57.51,0.69,0.51,0.51,0.93,0.72,0.03,26.48,25.41,-33.43,0.44,0.46,0.81,-1.44,0.12,-1.71
1:26:26.773 PM,29.86,43.92,-57.52,0.68,0.49,0.51,-0.73,2.44,2.39,26.33,24.47,-33.54,0.42,0.45,0.8,-1.08,0.82,-1.2
1:26:26.860 PM,30.38,43.59,-57.16,0.68,0.5,0.51,-1.26,1.25,0.87,26.72,24.81,-33.56,0.43,0.46,0.8,-0.4,0.48,-1.29
1:26:26.918 PM,30.34,43.74,-57.03,0.69,0.51,0.52,-1.86,0.53,-0.55,26.29,25.18,-33.6,0.43,0.45,0.8,-0.15,-0.04,-0.58
1:26:27.005 PM,30.75,42.59,-57.13,0.67,0.5,0.52,-5.03,-1.1,-0.76,26.63,24.55,-33.53,0.42,0.45,0.8,0.34,-0.09,-0.68
1:26:27.093 PM,29.56,44.05,-57.25,0.69,0.49,0.52,-3.26,-4.08,-0.56,27.08,23.86,-33.48,0.41,0.46,0.8,-0.94,0.83,-0.88
1:26:27.167 PM,29.7,44.69,-57.35,0.69,0.48,0.5,-1.36,-6,1.15,26.86,24.14,-33.45,0.41,0.45,0.79,-0.1,1.18,-1.51
1:26:27.249 PM,29.25,46.24,-57.18,0.74,0.5,0.5,-0.11,0.99,0.41,25.92,24.46,-33.53,0.43,0.45,0.82,0.84,-0.17,-1.72
1:26:27.327 PM,30.36,45.12,-57.13,0.71,0.51,0.5,-1.19,2.26,-0.22,27.13,24.43,-33.63,0.42,0.47,0.81,-0.15,-0.28,-1.84
1:26:27.395 PM,29.81,44.61,-57.17,0.7,0.49,0.51,-2.1,2.1,0.3,27.05,24.06,-33.76,0.41,0.46,0.8,-1.25,0.6,-1.48
1:26:27.468 PM,29.58,44.57,-57.13,0.69,0.49,0.5,-4.37,2.18,0.99,28.11,24.93,-33.83,0.43,0.48,0.78,-1.38,0.3,-1.31
1:26:27.563 PM,29.52,44.8,-56.99,0.7,0.49,0.51,-2.62,1.15,-0.82,27.2,23.95,-33.87,0.41,0.46,0.8,-0.19,0.3,-1.43
1:26:27.613 PM,28.71,44.89,-57.12,0.69,0.47,0.51,0.37,-0.26,-0.76,27.43,23.37,-33.93,0.39,0.46,0.79,0.33,0.1,-1.78
1:26:27.698 PM,29.12,45.49,-57.25,0.7,0.48,0.5,4.01,-2.5,1.35,28.03,23.85,-34.04,0.4,0.47,0.78,0.41,0.39,-3.11
1:26:27.813 PM,28.49,47.25,-57.05,0.75,0.48,0.49,7.06,-3.31,-4.16,28.18,23.41,-34.36,0.41,0.49,0.81,2.98,-0.1,-2.33
1:26:27.848 PM,32.42,44.76,-57.7,0.72,0.55,0.47,4.46,2.21,-3.97,28.59,23.06,-34.56,0.41,0.5,0.81,3.95,-1.66,-1.69
1:26:27.969 PM,31.53,44.61,-58.31,0.72,0.53,0.49,-0.41,2.73,-1.87,28.36,23.04,-34.66,0.4,0.49,0.81,1.48,-1.76,-1.2
1:26:27.997 PM,33.01,44.3,-58.61,0.69,0.54,0.46,-1.51,2.82,-1.27,28.8,23.66,-34.69,0.4,0.49,0.78,-0.24,-2.26,-1.46
1:26:28.072 PM,33.05,43.91,-58.81,0.69,0.54,0.47,-0.56,2.6,-3.17,29.81,24.03,-34.75,0.41,0.5,0.77,0.47,-1.89,-1.86
1:26:28.169 PM,32.45,44.63,-59.31,0.69,0.53,0.46,0.17,1.64,-2.27,29.74,24.19,-34.88,0.41,0.5,0.77,0.03,-1.89,-1.5
1:26:28.216 PM,33.96,43.1,-59.66,0.67,0.55,0.46,3.4,2.02,-5.9,30.39,24.06,-34.95,0.41,0.51,0.76,3.81,-2.56,-1.87
1:26:28.307 PM,34.57,42.58,-60.57,0.67,0.56,0.47,1.5,2,-3.11,30.58,24.32,-35.08,0.42,0.52,0.77,1.61,-2.1,-1.24
1:26:28.434 PM,35.33,42.22,-61.06,0.67,0.58,0.46,3.08,2.03,-3.69,30.69,24.4,-35.11,0.42,0.52,0.77,2.52,-2.82,-1.29
1:26:28.469 PM,37.92,41.01,-61.63,0.66,0.62,0.44,-1.73,0.95,-0.33,31.94,25.25,-35.15,0.44,0.54,0.75,0.22,-1.46,-0.84
1:26:28.518 PM,35.38,41.74,-61.69,0.66,0.58,0.47,-0.86,1.15,-0.41,30.49,24.76,-35.12,0.42,0.51,0.76,-0.41,-0.58,-0.28
1:26:28.668 PM,36.92,41.12,-61.76,0.64,0.58,0.44,-0.77,1.05,-0.5,31.66,24.52,-35,0.41,0.52,0.74,-0.47,-0.8,-0.4
1:26:28.668 PM,37.52,40.69,-61.85,0.64,0.6,0.44,-0.73,1.66,-1.37,31.36,24.89,-34.91,0.42,0.52,0.74,-0.1,0.18,-1.13
1:26:28.813 PM,35.6,41.91,-62.07,0.67,0.58,0.46,-1.3,2.24,-1.18,30.73,24.71,-34.92,0.42,0.52,0.76,-1.04,-0.08,-0.87
1:26:28.849 PM,37.62,40.63,-62.26,0.64,0.6,0.44,-3.78,1.19,1.4,31.55,25.48,-34.9,0.43,0.53,0.74,-1.66,-0.01,-0.85
1:26:28.955 PM,37.59,40.23,-62.05,0.63,0.6,0.45,-2.87,1.65,2.24,31.71,24.64,-34.87,0.42,0.52,0.74,-0.52,2.18,-0.79
1:26:28.989 PM,33.72,42.79,-61.72,0.68,0.55,0.48,-0.41,2.35,0.73,29.71,23.94,-34.83,0.41,0.5,0.77,-0.32,1.09,-0.99
1:26:29.068 PM,36.55,41.58,-61.62,0.67,0.6,0.46,-0.72,1.47,-0.12,30.97,25.04,-34.83,0.43,0.52,0.76,0.11,0.61,-2.08
1:26:29.148 PM,36.06,41.97,-61.64,0.67,0.59,0.45,-1.24,1.36,0.3,31.31,24.81,-34.99,0.43,0.53,0.76,0.34,0.69,-1
1:26:29.243 PM,35.58,41.41,-61.61,0.66,0.58,0.47,-0.73,1.64,0.67,30.68,24.34,-34.98,0.41,0.51,0.76,0.06,0.78,-0.69
1:26:29.291 PM,36.45,41.63,-61.51,0.65,0.58,0.45,-1.27,2.18,1.19,31.35,24.52,-34.93,0.42,0.52,0.75,-0.38,1.31,-0.61
1:26:29.387 PM,35.15,43.05,-61.34,0.7,0.59,0.46,-1.08,4.08,1.39,30.96,23.88,-34.87,0.42,0.53,0.78,-0.46,1.08,0.14
1:26:29.458 PM,34.33,42.17,-61.13,0.67,0.56,0.48,-1.89,3.59,1.04,30.63,23.4,-34.69,0.4,0.52,0.78,-0.99,-0.2,-0.21
1:26:29.627 PM,35.32,41.2,-60.98,0.64,0.56,0.47,-2.31,1.84,0.58,31.89,23.62,-34.56,0.4,0.52,0.74,-1.53,0.17,-1.04
1:26:29.627 PM,35.38,41.5,-60.9,0.65,0.57,0.47,-2.89,1.31,0.18,31.05,24.51,-34.56,0.42,0.52,0.75,-1.79,0.31,-1.15
1:26:29.678 PM,35.08,41.83,-60.88,0.67,0.57,0.47,-3.61,1.14,0.24,30.7,23.93,-34.58,0.41,0.52,0.77,-1.76,0.79,-1.17
1:26:29.756 PM,34.38,41.74,-60.86,0.67,0.57,0.49,-3.97,1.16,-0.51,30.58,23.42,-34.6,0.4,0.52,0.78,-1.18,0.74,-0.65
1:26:29.852 PM,34.85,41.66,-60.94,0.66,0.57,0.48,-3.45,1.8,0.05,30.95,23.62,-34.54,0.41,0.52,0.77,-1.3,0.49,-0.53
1:26:29.896 PM,34.95,41.26,-60.94,0.65,0.56,0.48,-2.4,2.76,0.56,30.73,23.18,-34.46,0.4,0.52,0.77,-0.73,0.69,-0.86
1:26:29.989 PM,34.01,41.73,-60.87,0.67,0.56,0.49,-1.38,2.44,0.03,30.25,23.23,-34.44,0.4,0.51,0.77,-0.29,1.39,-0.85
1:26:30.084 PM,34.68,40.82,-60.87,0.65,0.57,0.5,-0.77,2.1,0.5,30.44,23.34,-34.41,0.4,0.51,0.77,0.53,0.57,-0.41
1:26:30.133 PM,33.82,41.88,-60.8,0.66,0.55,0.49,-0.87,2.24,0.56,30.44,23.14,-34.31,0.4,0.51,0.78,-0.3,0.59,0.06
1:26:30.240 PM,34.04,41.62,-60.72,0.66,0.56,0.49,-1.16,2.24,1.08,30.23,22.92,-34.14,0.39,0.51,0.78,-0.66,0.71,-0.28
1:26:30.319 PM,34.07,40.9,-60.57,0.66,0.56,0.51,-1,1.63,1.11,30.56,23.08,-34.03,0.39,0.51,0.77,-0.39,0.85,-0.2
1:26:30.367 PM,34.18,41.26,-60.4,0.65,0.56,0.5,-1.02,2.65,1,30.55,23.07,-33.9,0.39,0.51,0.77,-0.28,1.05,-0.19
1:26:30.478 PM,34.22,41.88,-60.26,0.67,0.56,0.49,-0.95,2.28,0.79,30.43,22.4,-33.77,0.39,0.51,0.79,-0.27,0.36,-0.03
1:26:30.511 PM,34.12,41.1,-60.15,0.66,0.56,0.5,-0.96,2.2,1.11,30.38,22.96,-33.62,0.39,0.51,0.78,-0.59,0.92,0.07
1:26:30.601 PM,33.9,41.34,-59.99,0.66,0.55,0.5,-1.11,1.93,1.08,30.58,22.92,-33.45,0.39,0.51,0.78,-0.18,0.61,0.33
1:26:30.693 PM,33.28,42.05,-59.83,0.66,0.54,0.49,-0.75,1.74,-0.01,30,22.85,-33.24,0.39,0.5,0.78,-0.29,0.48,0.27
1:26:30.757 PM,33.94,41.43,-59.84,0.66,0.55,0.5,-0.41,1.69,0.75,30.21,22.71,-33.04,0.39,0.51,0.78,-0.46,0.64,0.56
1:26:30.813 PM,33.89,41.25,-59.73,0.66,0.55,0.5,-0.66,1.31,1.09,29.97,22.79,-32.8,0.39,0.5,0.78,-0.33,0.36,0.71
1:26:30.902 PM,32.97,41.27,-59.57,0.65,0.54,0.51,-0.37,1.04,0.5,29.63,22.77,-32.53,0.39,0.5,0.78,-0.23,0.24,0.63
1:26:30.972 PM,33.03,42.29,-59.51,0.67,0.54,0.5,-1.19,0.9,1.98,29.9,23.13,-32.28,0.4,0.5,0.78,-1.37,0.54,1.52
