,Time,Roll1,Pitch1,Yaw1,AccX1,AccY1,AccZ1,RotX1,RotY1,RotZ1,Roll2,Pitch2,Yaw2,AccX2,AccY2,AccZ2,RotX2,RotY2,RotZ2
0,1900-01-01 12:03:53.785,29.09,1.63,0.14,0.03,0.48,0.87,1.6,-1.49,-0.34,35.01,15.72,-0.14,0.26,0.55,0.74,2.41,0.02,-0.2
1,1900-01-01 12:03:53.785,30.3,2.97,0.25,0.05,0.51,0.86,-0.27,0.08,-0.72,37.82,15.86,-0.18,0.27,0.6,0.72,-0.12,1.56,-0.04
2,1900-01-01 12:03:53.832,29.73,2.33,0.3,0.04,0.49,0.86,-1.6,0.07,-0.79,36.53,15.84,-0.2,0.26,0.58,0.73,-0.99,1.63,0.36
3,1900-01-01 12:03:53.879,29.94,2.51,0.34,0.04,0.5,0.86,-0.72,-0.31,-0.69,36.81,15.71,-0.15,0.26,0.58,0.73,-0.94,1.37,0.08
4,1900-01-01 12:03:53.974,29.73,2.44,0.39,0.04,0.49,0.87,-0.53,-0.5,-0.72,37.06,15.79,-0.15,0.26,0.58,0.73,-1.21,1.26,-0.02
5,1900-01-01 12:03:54.069,29.85,2.28,0.44,0.04,0.5,0.86,-0.37,-0.47,-0.96,37.03,15.74,-0.16,0.26,0.58,0.73,-0.9,1.18,-0.15
6,1900-01-01 12:03:54.116,29.7,2.44,0.45,0.04,0.49,0.87,-0.4,-0.46,-0.91,37.03,15.89,-0.19,0.27,0.58,0.73,-1.21,1.31,-0.09
7,1900-01-01 12:03:54.211,29.53,2.33,0.47,0.04,0.49,0.87,-0.31,-0.4,-0.91,36.84,15.82,-0.21,0.26,0.58,0.73,-1.17,1.24,-0.04
8,1900-01-01 12:03:54.258,30.17,2.63,0.49,0.05,0.5,0.86,-0.94,-0.3,-0.79,37.24,15.55,-0.23,0.26,0.59,0.73,-1.21,1.15,-0.02
9,1900-01-01 12:03:54.351,29.59,2.43,0.53,0.04,0.49,0.87,-1.56,-0.42,-0.86,36.76,15.81,-0.24,0.26,0.58,0.73,-1.12,1.4,0.24
10,1900-01-01 12:03:54.470,29.64,2.55,0.56,0.04,0.49,0.87,-1.33,-0.33,-0.89,37.16,15.9,-0.21,0.27,0.59,0.73,-0.94,1.16,0.47
11,1900-01-01 12:03:54.494,29.63,2.58,0.58,0.04,0.49,0.87,-1.95,-0.24,-1.1,36.58,15.68,-0.15,0.26,0.58,0.73,0.38,0.63,0.66
12,1900-01-01 12:03:54.588,29.01,2.16,0.57,0.04,0.48,0.87,-2.34,-0.79,-1.31,37.13,15.48,-0.06,0.26,0.59,0.73,4.55,-1.94,0.87
13,1900-01-01 12:03:54.635,29.88,1.82,0.53,0.03,0.5,0.86,-2.12,-0.37,-1.17,40.41,16.0,0.07,0.27,0.64,0.7,3.8,-6.68,8.63
14,1900-01-01 12:03:54.739,27.89,3.32,0.51,0.06,0.47,0.89,-1.69,-0.27,-0.51,36.16,20.5,1.37,0.33,0.56,0.69,-1.27,5.14,-4.79
15,1900-01-01 12:03:54.883,30.07,1.71,0.59,0.03,0.5,0.86,3.25,-0.9,-0.89,40.51,17.13,0.63,0.28,0.63,0.68,-1.87,-2.05,0.11
16,1900-01-01 12:03:54.883,30.67,1.05,0.62,0.02,0.51,0.86,-0.62,-1.08,1.18,38.38,15.89,0.64,0.27,0.6,0.71,-4.02,-7.73,2.57
17,1900-01-01 12:03:54.982,29.19,1.99,0.95,0.04,0.5,0.89,-4.56,-0.9,1.53,38.48,18.35,1.02,0.31,0.61,0.7,-3.68,4.8,-2.73
18,1900-01-01 12:03:55.058,27.92,1.75,1.34,0.03,0.46,0.87,-0.97,-0.37,2.52,38.21,18.04,0.6,0.3,0.6,0.7,-1.6,3.69,-5.18
19,1900-01-01 12:03:55.097,29.02,4.48,1.89,0.08,0.49,0.88,-0.51,-1.47,0.19,38.58,18.17,-0.2,0.31,0.62,0.71,-0.13,2.6,-1.21
20,1900-01-01 12:03:55.210,26.9,5.62,2.07,0.1,0.45,0.89,0.59,0.17,-0.35,37.52,21.34,-0.39,0.35,0.58,0.67,-0.69,2.69,0.57
21,1900-01-01 12:03:55.254,28.63,3.81,2.18,0.07,0.48,0.88,1.37,0.24,-2.0,39.16,18.13,-0.31,0.3,0.62,0.7,-0.05,0.87,1.6
22,1900-01-01 12:03:55.352,29.28,3.67,2.03,0.06,0.49,0.87,1.3,-0.53,-1.1,38.18,17.78,-0.08,0.29,0.6,0.7,0.33,0.4,-0.18
23,1900-01-01 12:03:55.397,29.95,2.99,2.03,0.05,0.5,0.86,-0.33,-0.53,-0.92,38.74,17.36,-0.11,0.29,0.61,0.7,-0.14,-1.14,-0.82
24,1900-01-01 12:03:55.494,29.2,3.4,2.04,0.06,0.49,0.88,1.49,-0.97,-1.16,39.05,18.48,-0.25,0.31,0.61,0.69,-0.91,0.18,-0.26
25,1900-01-01 12:03:55.593,29.49,3.63,2.03,0.06,0.49,0.86,-0.21,-0.15,-0.82,38.41,18.32,-0.29,0.3,0.6,0.7,-2.08,-0.82,-1.99
26,1900-01-01 12:03:55.635,30.01,3.37,2.06,0.06,0.5,0.86,-0.4,-0.17,-0.8,38.95,17.7,-0.61,0.29,0.61,0.69,-1.79,1.13,-0.17
27,1900-01-01 12:03:55.740,29.44,3.49,2.09,0.06,0.49,0.87,-0.49,-0.37,-0.63,38.84,18.39,-0.64,0.31,0.61,0.7,-2.21,1.79,-0.02
28,1900-01-01 12:03:55.776,29.48,3.17,2.16,0.06,0.49,0.87,2.14,-0.08,-1.34,39.06,17.61,-0.65,0.29,0.61,0.69,0.64,1.62,1.27
29,1900-01-01 12:03:55.869,30.75,3.81,2.11,0.07,0.51,0.86,-1.35,0.69,-0.3,38.03,18.04,-0.47,0.3,0.6,0.71,-2.42,1.77,0.66
30,1900-01-01 12:03:55.966,30.34,3.0,2.23,0.05,0.5,0.85,-0.76,-0.56,-0.64,39.13,17.88,-0.38,0.3,0.61,0.69,-3.63,-2.33,-4.04
31,1900-01-01 12:03:56.011,29.47,3.3,2.29,0.06,0.49,0.86,0.32,-1.64,-0.96,38.77,18.21,-1.0,0.3,0.61,0.69,-1.44,-0.47,-1.14
32,1900-01-01 12:03:56.104,30.18,3.59,2.3,0.06,0.51,0.87,-0.28,-0.37,-0.79,38.85,18.28,-1.18,0.31,0.61,0.69,-2.31,1.16,-0.36
33,1900-01-01 12:03:56.198,30.22,3.37,2.34,0.06,0.5,0.86,-1.67,-0.26,-1.02,38.82,17.77,-1.25,0.3,0.61,0.7,-2.56,1.23,-1.21
34,1900-01-01 12:03:56.245,29.46,3.45,2.34,0.06,0.49,0.87,-3.13,-0.76,-0.6,38.0,18.42,-1.44,0.31,0.6,0.71,-3.78,1.47,0.16
35,1900-01-01 12:03:56.340,30.47,4.25,2.41,0.07,0.51,0.86,-1.24,-0.85,0.07,37.38,17.29,-1.43,0.28,0.58,0.7,-3.02,1.33,-0.13
36,1900-01-01 12:03:56.388,29.6,3.21,2.58,0.06,0.49,0.87,2.29,-0.04,-1.21,37.72,18.02,-1.45,0.3,0.6,0.71,1.48,0.59,0.42
37,1900-01-01 12:03:56.582,30.26,4.12,2.55,0.07,0.5,0.86,-0.37,-0.26,-1.21,38.85,17.77,-1.4,0.3,0.61,0.7,-1.27,1.43,0.06
38,1900-01-01 12:03:56.582,29.69,3.39,2.53,0.06,0.49,0.86,-0.72,-0.55,-0.77,38.01,18.05,-1.4,0.3,0.6,0.7,-0.71,1.32,0.2
39,1900-01-01 12:03:56.644,30.28,3.45,2.57,0.06,0.5,0.86,-0.8,-0.74,-0.95,38.38,17.8,-1.38,0.3,0.6,0.7,-0.89,1.19,0.03
40,1900-01-01 12:03:56.700,29.92,3.87,2.58,0.07,0.5,0.87,-0.63,-0.61,-0.79,38.23,18.2,-1.38,0.3,0.6,0.7,-0.86,1.06,-0.08
41,1900-01-01 12:03:56.849,30.06,3.58,2.62,0.06,0.5,0.86,-0.15,-0.32,-0.84,38.0,17.94,-1.4,0.3,0.6,0.7,-1.03,1.22,-0.02
42,1900-01-01 12:03:56.849,30.17,3.9,2.65,0.07,0.5,0.86,-0.27,-0.31,-0.89,38.32,18.21,-1.41,0.3,0.6,0.7,-1.22,1.3,0.05
43,1900-01-01 12:03:56.982,30.32,3.42,2.67,0.06,0.5,0.86,-0.56,-0.24,-1.0,38.44,18.06,-1.41,0.3,0.6,0.7,-1.12,1.09,0.08
44,1900-01-01 12:03:57.030,30.23,3.99,2.68,0.07,0.5,0.86,-0.89,-0.47,-1.06,38.65,18.21,-1.41,0.3,0.61,0.7,-1.42,1.23,-0.08
45,1900-01-01 12:03:57.077,29.79,3.68,2.68,0.06,0.5,0.87,-0.91,-0.34,-0.9,38.2,18.28,-1.43,0.3,0.6,0.7,-1.59,1.18,0.25
46,1900-01-01 12:03:57.255,29.85,3.83,2.7,0.07,0.5,0.87,-0.91,-0.11,-0.92,38.73,18.73,-1.4,0.31,0.61,0.69,-1.85,2.15,1.06
47,1900-01-01 12:03:57.255,30.04,3.78,2.72,0.07,0.5,0.86,-1.54,-0.05,-0.69,38.26,17.53,-1.25,0.29,0.6,0.71,-2.74,4.22,1.04
48,1900-01-01 12:03:57.312,30.02,3.35,2.77,0.06,0.5,0.86,-1.64,0.04,-0.44,37.33,17.87,-1.1,0.3,0.59,0.71,-2.79,1.37,-0.04
49,1900-01-01 12:03:57.404,29.89,3.68,2.86,0.06,0.5,0.86,-1.07,-0.5,-0.73,37.65,17.4,-1.11,0.29,0.59,0.71,-2.73,1.87,-0.93
50,1900-01-01 12:03:57.539,29.81,3.95,2.91,0.07,0.51,0.89,-5.15,-2.14,-0.84,38.36,17.75,-1.26,0.31,0.63,0.73,-9.89,4.71,0.01
51,1900-01-01 12:03:57.539,27.9,3.99,2.94,0.07,0.45,0.85,3.8,-0.6,-0.66,35.6,16.6,-1.27,0.27,0.54,0.71,0.82,0.05,-0.22
52,1900-01-01 12:03:57.616,28.8,0.86,3.0,0.02,0.49,0.89,1.52,-0.73,-1.24,36.97,12.79,-1.31,0.23,0.63,0.8,7.76,-1.05,6.27
53,1900-01-01 12:03:57.683,32.97,-1.63,2.97,-0.03,0.6,0.92,-9.18,-5.21,10.89,36.73,14.07,-0.37,0.28,0.68,0.86,-6.28,-22.62,27.65
54,1900-01-01 12:03:57.749,21.78,4.92,4.79,0.09,0.38,0.94,-2.98,-14.03,10.22,26.57,23.75,3.86,0.42,0.46,0.82,11.98,-27.35,24.27
55,1900-01-01 12:03:57.827,23.25,9.83,6.52,0.18,0.41,0.93,-15.95,-21.89,2.86,27.73,36.78,7.57,0.58,0.45,0.63,-10.76,-50.25,26.1
56,1900-01-01 12:03:57.955,23.12,16.15,7.12,0.27,0.38,0.84,-8.43,-20.38,-7.03,34.9,45.15,11.56,0.61,0.5,0.36,-6.03,-44.98,6.24
57,1900-01-01 12:03:57.986,22.46,17.18,6.2,0.3,0.39,0.89,-11.82,-12.57,-7.29,18.29,61.15,12.51,0.85,0.3,0.36,-24.79,-30.73,-8.09
58,1900-01-01 12:03:58.061,24.99,16.68,5.23,0.28,0.42,0.85,7.55,-8.95,-11.98,36.85,44.93,11.25,0.7,0.6,0.37,-5.37,3.12,-22.65
59,1900-01-01 12:03:58.234,22.65,16.19,3.55,0.28,0.38,0.88,4.37,-3.65,-5.53,32.89,40.21,7.78,0.65,0.55,0.54,4.21,23.47,-21.53
60,1900-01-01 12:03:58.234,24.05,15.76,2.87,0.27,0.4,0.86,5.56,-4.1,-4.16,36.91,32.97,4.48,0.56,0.62,0.61,10.14,12.15,-13.5
61,1900-01-01 12:03:58.368,27.68,14.94,2.39,0.26,0.47,0.85,1.09,-3.71,-0.5,41.87,34.89,2.41,0.56,0.65,0.47,3.69,-0.4,7.88
62,1900-01-01 12:03:58.368,22.64,13.93,2.47,0.24,0.38,0.89,8.45,0.48,-1.72,35.36,36.81,3.6,0.59,0.57,0.55,21.41,4.33,7.2
63,1900-01-01 12:03:58.480,27.81,15.97,2.37,0.27,0.46,0.82,3.62,-2.09,-2.07,36.27,40.29,4.68,0.59,0.54,0.44,12.21,0.31,-1.66
64,1900-01-01 12:03:58.526,27.8,16.32,2.21,0.28,0.46,0.84,-4.05,1.09,-1.29,39.43,38.61,4.42,0.61,0.63,0.45,3.82,1.01,-1.3
65,1900-01-01 12:03:58.644,28.83,14.53,2.18,0.26,0.51,0.88,-0.89,-1.47,-0.53,40.24,37.86,4.21,0.66,0.69,0.49,-2.61,5.37,2.73
66,1900-01-01 12:03:58.676,31.23,17.93,2.25,0.3,0.51,0.79,3.05,-1.46,0.28,47.96,30.19,4.62,0.5,0.74,0.44,-9.27,-5.82,-4.71
67,1900-01-01 12:03:58.759,22.88,14.3,2.46,0.24,0.37,0.85,-21.81,0.45,6.29,41.68,34.75,3.9,0.57,0.67,0.49,-44.15,-3.36,23.72
68,1900-01-01 12:03:58.854,24.61,18.62,3.58,0.31,0.41,0.83,-11.5,9.14,10.89,33.41,41.95,7.51,0.61,0.51,0.46,-11.59,-5.43,38.17
69,1900-01-01 12:03:58.900,22.75,16.14,5.4,0.29,0.4,0.9,-17.12,17.15,15.21,19.01,58.04,13.35,0.84,0.32,0.41,-13.3,4.11,53.72
70,1900-01-01 12:03:59.065,15.23,17.66,7.89,0.32,0.28,0.97,5.4,14.98,7.83,2.56,71.45,21.58,0.85,0.04,0.28,53.69,109.31,3.87
71,1900-01-01 12:03:59.065,23.51,11.91,9.24,0.2,0.38,0.86,8.51,18.69,-6.43,25.72,23.63,22.16,0.39,0.42,0.78,-9.6,70.98,-25.86
72,1900-01-01 12:03:59.189,17.63,8.66,8.42,0.15,0.3,0.93,6.26,13.19,-12.06,19.89,14.44,18.19,0.27,0.37,0.99,-2.06,44.11,-28.69
73,1900-01-01 12:03:59.215,24.93,4.39,6.73,0.08,0.45,0.97,-1.89,4.48,-6.66,26.73,12.27,13.79,0.23,0.48,0.93,-6.91,9.75,-15.18
74,1900-01-01 12:03:59.327,25.29,4.31,5.87,0.08,0.44,0.93,8.0,1.92,-4.93,29.85,8.63,11.47,0.16,0.54,0.93,5.27,3.65,-7.18
75,1900-01-01 12:03:59.354,21.93,6.81,5.29,0.12,0.39,0.95,4.74,-0.02,-2.15,29.43,16.98,10.38,0.28,0.47,0.78,10.81,0.02,-7.76
76,1900-01-01 12:03:59.446,22.96,5.98,5.12,0.11,0.39,0.93,-4.46,-2.98,0.49,27.73,14.65,9.19,0.25,0.45,0.82,-1.33,-0.03,-2.52
77,1900-01-01 12:03:59.540,23.95,5.91,5.35,0.1,0.39,0.87,2.84,0.37,0.72,29.48,14.74,8.79,0.23,0.44,0.75,3.98,-0.47,-1.46
78,1900-01-01 12:03:59.587,23.95,4.63,5.62,0.08,0.4,0.9,-3.27,2.43,-2.57,28.27,14.59,8.57,0.25,0.46,0.82,0.53,-1.24,0.29
79,1900-01-01 12:03:59.733,24.8,6.34,5.39,0.11,0.44,0.94,0.23,-1.3,-0.74,29.41,15.04,8.6,0.26,0.49,0.82,-1.21,1.08,-0.92
80,1900-01-01 12:03:59.733,24.16,5.64,5.43,0.1,0.4,0.88,0.02,0.24,-0.96,29.19,16.31,8.45,0.26,0.45,0.76,-2.16,0.07,1.28
81,1900-01-01 12:03:59.821,24.97,5.54,5.44,0.1,0.44,0.94,-1.92,0.05,-2.07,30.4,15.99,8.64,0.28,0.52,0.83,-2.38,2.56,-0.66
82,1900-01-01 12:03:59.915,23.72,6.71,5.29,0.11,0.39,0.88,2.02,-0.85,-0.97,30.31,15.72,8.53,0.25,0.47,0.76,0.01,0.11,0.53
83,1900-01-01 12:03:59.963,24.34,5.41,5.3,0.09,0.41,0.91,-2.92,1.6,-1.98,28.66,15.61,8.6,0.26,0.47,0.82,-2.63,0.89,1.96
84,1900-01-01 12:04:00.056,24.93,6.23,5.16,0.12,0.45,0.96,-1.73,-1.68,-0.68,29.5,16.67,8.89,0.3,0.51,0.85,-1.73,2.48,-0.15
85,1900-01-01 12:04:00.150,24.54,6.28,5.22,0.11,0.4,0.88,2.65,-1.28,-0.13,30.86,15.14,8.86,0.24,0.48,0.76,1.11,0.24,-0.26
86,1900-01-01 12:04:00.196,24.36,5.12,5.35,0.09,0.4,0.89,-1.44,1.4,-1.99,29.18,14.41,8.81,0.24,0.47,0.81,-0.05,1.33,-0.22
87,1900-01-01 12:04:00.291,24.5,5.97,5.21,0.11,0.43,0.94,-1.53,-1.42,-0.39,29.18,15.7,8.77,0.27,0.49,0.83,-1.08,1.4,-0.76
88,1900-01-01 12:04:00.415,24.85,6.09,5.31,0.1,0.41,0.87,-0.18,-1.92,-0.28,29.12,15.73,8.64,0.25,0.45,0.77,-1.52,-0.56,0.96
89,1900-01-01 12:04:00.415,24.37,5.9,5.43,0.1,0.41,0.91,-0.6,0.82,-2.53,30.25,15.17,8.78,0.26,0.5,0.82,0.33,1.74,-0.37
90,1900-01-01 12:04:00.555,25.06,6.72,5.2,0.12,0.43,0.92,0.88,-1.06,-0.43,29.65,15.61,8.72,0.26,0.48,0.8,-0.07,0.68,-0.49
91,1900-01-01 12:04:00.579,24.63,5.94,5.29,0.1,0.41,0.89,-2.18,1.12,-1.29,29.72,16.83,8.63,0.27,0.46,0.77,-1.93,1.07,0.93
92,1900-01-01 12:04:00.690,25.2,5.98,5.26,0.11,0.44,0.94,-1.66,-0.12,-1.14,30.52,16.82,8.77,0.29,0.52,0.83,-2.06,1.33,-0.37
93,1900-01-01 12:04:00.758,24.6,6.69,5.24,0.11,0.41,0.88,2.67,-2.07,0.31,29.87,15.89,8.7,0.26,0.46,0.77,0.78,-0.63,-0.17
94,1900-01-01 12:04:00.805,23.95,5.14,5.45,0.09,0.4,0.89,-1.54,1.32,-1.76,29.25,15.5,8.67,0.25,0.46,0.79,-1.44,1.11,0.33
95,1900-01-01 12:04:00.961,25.29,5.71,5.34,0.11,0.45,0.95,-1.49,-0.44,-1.14,30.27,16.95,8.71,0.3,0.51,0.83,-1.8,1.7,-0.42
96,1900-01-01 12:04:00.961,24.83,5.82,5.32,0.1,0.41,0.89,1.53,-1.18,-0.76,30.02,15.71,8.64,0.25,0.47,0.77,-1.29,0.35,0.02
97,1900-01-01 12:04:01.039,24.4,5.39,5.37,0.09,0.41,0.89,-1.59,1.32,-1.45,29.24,16.22,8.63,0.27,0.47,0.8,-1.76,1.54,0.66
98,1900-01-01 12:04:01.108,24.81,5.93,5.31,0.11,0.44,0.94,-2.1,-0.28,-1.18,30.57,16.99,8.72,0.3,0.52,0.82,-2.03,2.19,-0.21
99,1900-01-01 12:04:01.181,24.17,6.51,5.28,0.11,0.4,0.89,0.61,-0.92,-0.27,30.33,16.57,8.68,0.27,0.48,0.77,-1.38,0.85,0.49
100,1900-01-01 12:04:01.274,24.5,5.42,5.4,0.09,0.41,0.89,-1.28,0.79,-1.24,29.6,16.04,8.75,0.27,0.47,0.79,-1.16,1.1,0.38
101,1900-01-01 12:04:01.366,24.93,5.62,5.37,0.1,0.43,0.93,-1.09,-0.77,-1.04,30.3,16.35,8.8,0.28,0.5,0.81,-1.33,1.48,-0.28
102,1900-01-01 12:04:01.413,24.72,5.9,5.37,0.1,0.41,0.89,1.0,-1.3,-0.34,29.93,15.55,8.75,0.25,0.47,0.78,-0.73,0.52,0.26
103,1900-01-01 12:04:01.506,24.3,5.67,5.48,0.1,0.41,0.9,-1.11,0.5,-1.27,28.98,16.42,8.78,0.27,0.47,0.8,-1.15,0.97,0.03
104,1900-01-01 12:04:01.640,25.32,5.79,5.45,0.1,0.44,0.93,-1.12,-0.41,-1.31,31.29,16.38,8.77,0.28,0.52,0.81,-1.99,1.85,-0.26
105,1900-01-01 12:04:01.640,24.58,5.97,5.41,0.1,0.42,0.9,0.46,-1.09,-0.02,29.86,16.06,8.73,0.27,0.48,0.79,-2.54,1.83,0.18
106,1900-01-01 12:04:01.709,24.05,5.47,5.56,0.09,0.4,0.89,-0.27,0.79,-0.35,28.19,15.52,8.74,0.25,0.45,0.79,-1.4,1.45,1.26
107,1900-01-01 12:04:01.801,24.42,5.61,5.67,0.1,0.41,0.9,-1.57,1.79,-2.17,29.46,16.2,8.93,0.27,0.48,0.8,-0.43,2.41,1.11
108,1900-01-01 12:04:01.912,24.62,6.05,5.5,0.11,0.43,0.93,-0.55,0.08,-0.6,30.78,17.36,9.09,0.3,0.51,0.81,-2.18,2.31,0.59
109,1900-01-01 12:04:01.937,24.46,6.11,5.57,0.11,0.42,0.91,-1.12,-1.79,0.08,28.66,15.93,9.17,0.27,0.46,0.81,-2.05,1.67,0.4
110,1900-01-01 12:04:02.020,26.04,4.88,5.74,0.08,0.43,0.88,-0.98,-0.8,-0.15,29.58,14.94,9.22,0.24,0.46,0.78,-2.85,0.92,1.66
111,1900-01-01 12:04:02.114,24.4,5.05,5.87,0.09,0.41,0.91,-0.29,-0.63,-2.02,29.62,16.06,9.46,0.27,0.47,0.79,-1.21,1.81,0.34
112,1900-01-01 12:04:02.161,23.6,6.04,5.72,0.11,0.42,0.95,-4.08,0.51,-0.85,27.94,17.04,9.51,0.29,0.47,0.84,-7.24,3.8,2.27
113,1900-01-01 12:04:02.333,22.44,6.63,5.75,0.12,0.39,0.94,-0.58,-0.26,-1.55,27.85,16.97,9.84,0.29,0.46,0.82,-1.56,5.85,0.06
114,1900-01-01 12:04:02.333,23.09,5.08,5.68,0.09,0.38,0.89,-0.85,-0.41,0.13,26.58,14.34,9.84,0.24,0.43,0.83,0.75,2.5,2.69
115,1900-01-01 12:04:02.394,22.79,5.21,5.86,0.09,0.39,0.92,-1.73,-1.87,-0.14,27.24,15.17,10.24,0.26,0.45,0.84,-2.49,-0.15,1.51
116,1900-01-01 12:04:02.488,25.92,6.94,5.99,0.12,0.43,0.88,2.31,-1.21,-1.34,32.34,15.17,10.46,0.24,0.5,0.75,-14.15,-11.49,4.79
117,1900-01-01 12:04:02.586,23.48,4.99,5.95,0.09,0.4,0.92,-1.69,-0.17,-0.21,25.09,21.05,11.19,0.35,0.42,0.82,-1.21,-1.08,1.91
118,1900-01-01 12:04:02.628,23.91,8.28,6.07,0.15,0.41,0.92,4.32,-3.64,0.8,28.1,17.96,11.47,0.31,0.48,0.84,1.66,10.52,0.52
119,1900-01-01 12:04:02.860,24.98,7.9,6.35,0.14,0.43,0.91,1.62,-3.4,-0.2,26.39,19.05,11.54,0.31,0.42,0.8,6.88,8.21,-2.46
120,1900-01-01 12:04:02.860,23.78,3.64,6.48,0.06,0.41,0.93,1.76,-1.87,-0.47,24.76,14.07,11.16,0.27,0.47,0.98,4.34,-6.74,-0.53
121,1900-01-01 12:04:02.860,22.61,4.02,6.57,0.07,0.41,0.97,0.58,-10.21,-1.72,22.15,15.45,11.07,0.26,0.37,0.87,2.5,-14.8,-4.09
122,1900-01-01 12:04:02.932,23.82,5.28,6.47,0.09,0.4,0.89,-1.85,-7.28,-2.24,29.59,15.82,10.44,0.24,0.43,0.72,-3.65,-5.5,-4.6
123,1900-01-01 12:04:03.011,25.81,8.37,6.28,0.14,0.43,0.88,-8.96,0.81,-4.21,31.27,16.39,9.72,0.26,0.49,0.75,-6.21,4.95,-2.98
124,1900-01-01 12:04:03.136,25.78,9.97,5.8,0.17,0.44,0.89,-6.15,3.4,-7.07,30.64,17.96,9.26,0.31,0.51,0.8,-3.64,4.79,0.9
125,1900-01-01 12:04:03.165,26.19,11.71,4.89,0.2,0.44,0.88,2.15,-2.16,-3.24,32.9,17.82,9.39,0.31,0.55,0.8,3.68,0.54,-2.85
126,1900-01-01 12:04:03.270,23.75,12.06,4.56,0.21,0.4,0.89,1.56,-4.53,-0.92,30.78,19.92,8.95,0.33,0.49,0.76,4.68,-4.6,-1.75
127,1900-01-01 12:04:03.297,24.57,11.27,4.57,0.19,0.41,0.89,-1.95,-3.09,-0.03,31.51,20.83,8.67,0.33,0.48,0.71,-3.07,-1.24,-0.45
128,1900-01-01 12:04:03.379,25.74,9.93,4.73,0.17,0.42,0.86,0.23,0.06,-1.5,32.51,17.61,8.6,0.28,0.5,0.73,-1.31,2.36,-1.88
129,1900-01-01 12:04:03.551,25.94,9.1,4.66,0.16,0.43,0.88,2.89,0.98,-1.94,31.34,17.85,8.3,0.29,0.5,0.76,4.66,2.0,-2.37
130,1900-01-01 12:04:03.551,25.18,9.14,4.52,0.16,0.43,0.9,1.22,-0.78,-1.98,31.44,16.85,7.94,0.29,0.52,0.8,-2.87,1.44,-1.06
131,1900-01-01 12:04:03.636,25.72,9.2,4.38,0.16,0.44,0.9,0.4,-0.27,-1.86,31.57,18.46,7.77,0.3,0.5,0.76,-2.89,1.1,-0.06
132,1900-01-01 12:04:03.683,25.68,8.74,4.26,0.16,0.45,0.92,1.4,-0.09,-1.84,31.52,16.47,7.75,0.28,0.52,0.81,1.01,1.63,-1.86
133,1900-01-01 12:04:03.754,25.23,8.73,4.14,0.15,0.43,0.91,-0.78,-1.28,-1.31,31.28,17.55,7.46,0.29,0.5,0.78,0.02,0.19,-0.8
134,1900-01-01 12:04:03.851,26.24,9.02,4.1,0.16,0.44,0.88,-1.17,-0.62,-0.89,32.48,16.41,7.33,0.27,0.52,0.77,-2.11,0.86,-1.02
135,1900-01-01 12:04:03.964,25.91,8.04,4.12,0.14,0.44,0.89,-0.92,-1.21,-0.71,31.95,16.58,7.17,0.28,0.51,0.78,-0.59,-1.92,0.66
136,1900-01-01 12:04:03.995,24.89,9.49,4.17,0.16,0.42,0.88,-0.11,-0.44,-1.58,31.57,18.83,7.26,0.3,0.48,0.73,-2.79,2.85,-2.22
137,1900-01-01 12:04:04.095,26.59,8.61,4.09,0.15,0.46,0.9,-1.57,0.48,-2.27,33.53,16.0,6.91,0.28,0.55,0.79,-0.93,0.89,-0.31
138,1900-01-01 12:04:04.175,25.85,9.94,3.9,0.17,0.44,0.89,-0.02,-0.7,-0.26,32.73,18.21,6.86,0.3,0.52,0.75,-2.91,0.96,0.28
139,1900-01-01 12:04:04.224,25.49,9.18,4.02,0.16,0.43,0.89,-0.69,-0.24,-0.99,32.25,16.51,6.89,0.28,0.52,0.78,-1.95,3.3,-1.13
140,1900-01-01 12:04:04.352,25.46,9.15,4.03,0.16,0.43,0.89,-1.27,-0.53,-0.39,32.44,16.17,6.71,0.27,0.52,0.77,-1.6,2.87,-0.15
141,1900-01-01 12:04:04.390,25.25,8.59,4.13,0.15,0.43,0.9,-3.66,0.56,-0.11,30.77,16.9,6.68,0.28,0.49,0.78,-3.99,2.52,0.97
142,1900-01-01 12:04:04.455,25.47,8.48,4.27,0.15,0.44,0.9,-1.25,-0.66,-0.68,31.73,16.1,6.82,0.28,0.52,0.8,-1.21,-2.13,1.29
143,1900-01-01 12:04:04.549,24.56,9.53,4.32,0.17,0.42,0.9,-0.59,-1.08,-0.43,31.18,17.36,7.01,0.28,0.49,0.76,-2.98,1.22,0.08
144,1900-01-01 12:04:04.596,25.27,9.02,4.42,0.16,0.43,0.89,-1.04,-0.18,-1.2,31.66,16.54,7.01,0.28,0.52,0.8,-0.73,-4.58,2.82
145,1900-01-01 12:04:04.690,24.4,9.66,4.39,0.17,0.42,0.9,-0.66,-1.15,-0.63,31.27,19.35,7.43,0.31,0.49,0.75,-2.51,0.17,0.24
146,1900-01-01 12:04:04.737,24.93,8.95,4.46,0.16,0.42,0.89,-1.15,0.65,-0.79,31.16,17.48,7.46,0.29,0.5,0.78,-0.96,-1.14,1.73
147,1900-01-01 12:04:04.830,24.76,9.23,4.5,0.16,0.42,0.89,-0.4,-0.19,-1.1,30.74,17.8,7.71,0.3,0.5,0.78,0.03,-1.74,0.64
148,1900-01-01 12:04:05.012,24.17,9.61,4.49,0.17,0.41,0.91,-0.55,-0.88,-1.44,30.41,20.66,7.8,0.33,0.48,0.74,-2.4,2.32,-1.97
149,1900-01-01 12:04:05.012,25.41,8.84,4.43,0.16,0.43,0.9,-0.69,0.39,-1.79,31.91,17.16,7.49,0.29,0.53,0.79,-0.73,0.96,0.27
150,1900-01-01 12:04:05.040,24.24,9.49,4.32,0.17,0.42,0.91,-0.32,-0.77,-0.5,30.82,19.58,7.53,0.32,0.49,0.76,-2.36,0.98,0.37
151,1900-01-01 12:04:05.160,24.74,9.17,4.4,0.16,0.42,0.89,-0.64,-0.23,-1.15,31.06,18.02,7.57,0.3,0.5,0.77,-0.42,1.95,-0.35
152,1900-01-01 12:04:05.208,24.3,8.96,4.38,0.16,0.42,0.91,-1.32,-0.46,-0.67,30.82,19.1,7.51,0.31,0.49,0.76,-1.34,2.21,-0.4
153,1900-01-01 12:04:05.299,24.49,9.32,4.44,0.16,0.42,0.9,-0.82,0.01,-0.79,31.06,17.65,7.44,0.29,0.5,0.77,-3.61,3.16,-1.05
154,1900-01-01 12:04:05.347,24.48,8.99,4.48,0.16,0.42,0.91,-0.73,-0.15,-0.53,30.68,17.89,7.27,0.3,0.5,0.79,-0.58,1.24,0.14
155,1900-01-01 12:04:05.441,23.96,9.5,4.55,0.17,0.41,0.9,-0.58,-0.44,-0.34,30.42,19.2,7.29,0.31,0.48,0.76,-2.14,1.47,-0.01
156,1900-01-01 12:04:05.534,24.67,8.85,4.66,0.15,0.42,0.9,-0.04,0.69,-0.56,30.88,16.47,7.28,0.28,0.51,0.8,-0.92,2.76,1.24
157,1900-01-01 12:04:05.582,23.95,9.0,4.73,0.16,0.41,0.91,-0.21,-1.11,-0.22,29.97,18.79,7.46,0.31,0.48,0.78,-0.41,0.35,0.32
158,1900-01-01 12:04:05.676,24.41,8.89,4.86,0.16,0.41,0.9,-0.16,-0.49,-0.63,30.41,17.66,7.5,0.29,0.49,0.78,-1.76,2.34,-0.65
159,1900-01-01 12:04:05.722,24.28,9.18,4.92,0.16,0.42,0.91,-0.54,-0.18,-0.72,30.23,17.83,7.39,0.3,0.5,0.79,-1.28,1.55,-0.34
160,1900-01-01 12:04:05.815,24.05,9.61,4.97,0.17,0.41,0.9,-1.17,-1.06,-0.88,30.35,18.79,7.33,0.31,0.49,0.77,-1.59,0.31,0.29
161,1900-01-01 12:04:05.937,24.82,9.56,5.0,0.17,0.42,0.89,-0.6,-0.55,-0.89,31.46,17.77,7.37,0.29,0.5,0.77,-2.66,1.6,-0.06
162,1900-01-01 12:04:05.970,24.14,9.39,5.02,0.16,0.41,0.9,0.25,0.16,-0.76,30.25,17.63,7.35,0.29,0.49,0.79,-1.09,1.5,-0.41
163,1900-01-01 12:04:06.061,23.89,9.18,5.06,0.16,0.41,0.92,-0.49,-0.69,-0.81,30.16,18.44,7.28,0.31,0.5,0.79,-0.71,0.38,0.52
164,1900-01-01 12:04:06.141,24.24,9.66,5.1,0.17,0.41,0.9,-1.3,-0.92,-0.57,30.29,18.53,7.35,0.3,0.48,0.77,-3.09,0.89,-0.01
165,1900-01-01 12:04:06.188,24.54,9.4,5.17,0.16,0.42,0.9,-0.56,-0.25,-1.11,31.11,17.23,7.34,0.29,0.51,0.79,-0.76,0.53,0.37
166,1900-01-01 12:04:06.315,24.24,9.85,5.16,0.17,0.41,0.9,-0.24,-0.95,-0.75,30.71,18.69,7.39,0.31,0.49,0.76,-1.32,0.61,0.47
167,1900-01-01 12:04:06.345,24.24,9.35,5.2,0.16,0.41,0.9,-0.76,0.2,-0.95,30.58,17.81,7.45,0.3,0.49,0.78,-1.17,1.89,-0.07
168,1900-01-01 12:04:06.447,24.15,10.16,5.22,0.18,0.41,0.9,0.65,-0.72,-0.69,29.84,18.64,7.43,0.31,0.49,0.79,0.16,-0.34,0.57
169,1900-01-01 12:04:06.514,24.43,10.03,5.27,0.18,0.42,0.91,-0.78,-0.5,-0.96,31.24,18.64,7.51,0.31,0.5,0.77,-1.83,1.78,-0.24
170,1900-01-01 12:04:06.561,24.27,9.87,5.28,0.17,0.42,0.9,-1.26,0.21,-0.35,30.08,18.97,7.46,0.31,0.48,0.77,-2.18,3.16,0.14
171,1900-01-01 12:04:06.703,24.39,9.15,5.39,0.16,0.42,0.91,-1.19,-0.17,-0.66,30.12,17.73,7.48,0.3,0.49,0.8,-2.09,0.73,0.6
172,1900-01-01 12:04:06.747,23.91,9.62,5.45,0.17,0.41,0.9,-0.43,-0.67,-0.77,29.77,18.8,7.56,0.31,0.47,0.76,-2.27,2.48,-0.07
173,1900-01-01 12:04:06.793,24.72,9.26,5.49,0.16,0.42,0.89,-0.27,-0.08,-1.3,30.82,17.21,7.54,0.29,0.5,0.78,-0.76,2.99,-0.34
174,1900-01-01 12:04:06.967,24.81,9.75,5.45,0.17,0.43,0.91,-1.83,0.95,-1.28,30.99,17.98,7.48,0.31,0.51,0.79,-1.66,1.83,-0.2
175,1900-01-01 12:04:06.967,24.01,9.49,5.41,0.17,0.41,0.91,-0.62,-0.34,-0.81,30.08,17.99,7.44,0.3,0.49,0.78,-3.24,0.93,0.23
176,1900-01-01 12:04:07.031,23.16,9.57,5.45,0.17,0.39,0.9,-0.47,-0.08,-0.77,29.51,17.47,7.47,0.29,0.48,0.79,-1.12,2.33,-0.21
177,1900-01-01 12:04:07.216,23.56,9.64,5.49,0.17,0.4,0.91,-0.53,-1.07,-0.79,29.69,18.38,7.43,0.3,0.48,0.78,-0.47,0.29,0.21
178,1900-01-01 12:04:07.216,24.3,9.58,5.53,0.17,0.41,0.89,-0.63,-0.58,-0.39,30.09,17.71,7.45,0.29,0.48,0.77,-1.74,1.3,-0.02
179,1900-01-01 12:04:07.263,24.03,9.29,5.63,0.16,0.41,0.91,-0.35,0.09,-1.16,30.06,17.07,7.44,0.29,0.49,0.79,-0.82,2.73,-0.81
180,1900-01-01 12:04:07.358,24.03,9.32,5.61,0.17,0.42,0.92,-0.65,-0.75,-1.23,29.89,17.67,7.3,0.3,0.49,0.8,-0.67,0.24,0.04
181,1900-01-01 12:04:07.404,24.28,9.89,5.58,0.17,0.41,0.89,-0.42,-0.76,-1.08,30.23,18.14,7.3,0.3,0.48,0.77,-2.31,0.85,-0.25
182,1900-01-01 12:04:07.497,24.38,9.81,5.58,0.17,0.42,0.9,-0.88,0.22,-1.0,30.45,17.38,7.26,0.29,0.49,0.79,-1.45,2.24,-0.35
183,1900-01-01 12:04:07.601,23.79,9.62,5.58,0.17,0.41,0.91,-0.66,-0.63,-0.51,29.6,18.15,7.19,0.3,0.48,0.79,-1.08,0.66,0.4
184,1900-01-01 12:04:07.637,23.98,9.83,5.66,0.17,0.41,0.9,-0.51,-0.52,-1.16,30.26,18.23,7.25,0.3,0.48,0.77,-1.95,1.37,-0.24
185,1900-01-01 12:04:07.705,24.59,9.52,5.65,0.17,0.42,0.9,-0.23,0.41,-1.24,30.56,16.84,7.2,0.28,0.5,0.8,-0.9,1.41,-0.01
186,1900-01-01 12:04:07.794,23.98,9.69,5.62,0.17,0.41,0.91,-0.34,-0.62,-0.89,30.09,18.15,7.19,0.3,0.49,0.78,-1.31,0.51,0.33
187,1900-01-01 12:04:07.887,24.32,9.63,5.64,0.17,0.41,0.89,-0.54,-0.38,-0.75,30.31,17.57,7.23,0.29,0.48,0.78,-1.81,1.61,0.07
188,1900-01-01 12:04:07.933,23.92,9.59,5.68,0.17,0.41,0.9,-0.49,-0.16,-0.6,29.74,17.69,7.23,0.3,0.48,0.79,0.21,0.21,0.61
189,1900-01-01 12:04:08.028,23.77,9.85,5.75,0.17,0.4,0.9,0.44,-1.02,-0.29,30.01,18.33,7.32,0.3,0.47,0.76,-0.6,1.66,-0.14
190,1900-01-01 12:04:08.075,24.36,9.6,5.87,0.17,0.42,0.9,0.17,0.3,-0.66,30.15,17.65,7.29,0.3,0.49,0.79,-0.08,2.27,-0.02
191,1900-01-01 12:04:08.168,24.47,9.41,5.92,0.17,0.42,0.91,0.33,-0.29,-0.89,30.82,17.85,7.28,0.3,0.5,0.79,-0.09,-0.26,0.49
192,1900-01-01 12:04:08.263,23.78,9.78,5.95,0.17,0.4,0.9,-0.85,-0.29,-0.9,29.74,18.27,7.34,0.3,0.47,0.77,-1.87,2.02,-0.64
193,1900-01-01 12:04:08.310,24.84,9.52,5.97,0.17,0.42,0.9,-0.74,-0.33,-1.38,30.94,17.64,7.24,0.3,0.5,0.78,-0.11,0.55,-0.2
194,1900-01-01 12:04:08.404,24.48,9.63,5.92,0.17,0.42,0.9,-0.45,-0.75,-0.79,31.05,17.98,7.2,0.3,0.5,0.77,-1.47,1.25,-0.04
195,1900-01-01 12:04:08.475,23.98,9.87,5.96,0.17,0.41,0.9,-0.63,-0.02,-0.89,30.22,17.96,7.18,0.3,0.49,0.78,-0.73,2.01,-0.53
196,1900-01-01 12:04:08.543,24.39,9.48,5.98,0.17,0.42,0.91,-0.85,-0.5,-1.36,31.03,17.52,7.09,0.3,0.51,0.8,-0.65,-0.13,0.27
197,1900-01-01 12:04:08.636,24.16,9.56,5.93,0.17,0.41,0.9,-0.61,-0.93,-0.77,30.23,18.58,7.13,0.3,0.48,0.76,-2.23,1.61,-0.3
198,1900-01-01 12:04:08.684,24.7,9.54,5.97,0.17,0.42,0.89,-0.44,0.18,-1.43,31.07,17.43,7.07,0.29,0.5,0.78,-1.25,1.6,-0.93
199,1900-01-01 12:04:08.863,24.27,10.06,5.91,0.18,0.42,0.91,-0.44,-0.11,-1.27,30.9,18.23,6.92,0.31,0.5,0.78,-0.88,0.68,0.09
200,1900-01-01 12:04:08.863,24.13,9.71,5.88,0.17,0.41,0.9,0.02,-0.27,-0.95,31.09,18.11,6.93,0.3,0.5,0.77,-1.96,1.99,-0.33
201,1900-01-01 12:04:08.969,24.39,9.67,5.89,0.17,0.42,0.91,-0.29,0.33,-0.47,30.51,17.12,6.87,0.29,0.5,0.79,-0.24,3.51,-0.57
202,1900-01-01 12:04:09.012,24.44,9.22,5.98,0.16,0.42,0.9,-1.18,-0.79,-0.36,30.18,18.22,6.77,0.3,0.48,0.78,-1.11,-0.94,1.15
203,1900-01-01 12:04:09.109,24.45,9.58,6.08,0.17,0.41,0.89,-0.64,-0.06,-0.49,30.79,17.47,6.94,0.29,0.49,0.77,-1.61,2.76,-0.11
204,1900-01-01 12:04:09.154,24.02,9.78,6.17,0.17,0.41,0.91,-0.24,0.05,-1.18,30.35,18.17,6.91,0.31,0.5,0.79,-0.82,0.94,-0.11
205,1900-01-01 12:04:09.247,24.39,9.41,6.15,0.16,0.41,0.9,-1.24,-0.53,-1.11,31.21,17.74,6.89,0.3,0.51,0.79,-0.9,-2.61,1.9
206,1900-01-01 12:04:09.293,24.22,9.85,6.14,0.17,0.41,0.89,0.34,0.74,-1.28,30.93,18.0,7.17,0.29,0.49,0.76,-1.44,2.6,-0.19
207,1900-01-01 12:04:09.388,24.54,9.39,6.1,0.17,0.42,0.91,-1.03,0.6,-0.95,31.12,18.22,7.13,0.31,0.51,0.78,-0.74,1.09,0.56
208,1900-01-01 12:04:09.464,24.34,9.22,6.12,0.16,0.42,0.91,-1.38,-0.8,-0.77,31.19,18.25,7.21,0.31,0.51,0.78,-1.92,-0.83,0.92
209,1900-01-01 12:04:09.530,23.93,9.62,6.16,0.17,0.4,0.89,-0.52,-0.7,-0.67,30.55,18.91,7.34,0.31,0.48,0.75,-2.83,3.21,-0.8
210,1900-01-01 12:04:09.622,24.71,8.94,6.21,0.16,0.42,0.9,-0.85,-0.18,-1.02,30.93,17.18,7.21,0.29,0.51,0.79,-1.11,0.54,0.28
211,1900-01-01 12:04:09.669,24.18,9.65,6.22,0.17,0.41,0.9,-0.5,-1.0,-0.81,30.89,19.18,7.25,0.31,0.49,0.76,-1.59,-0.81,0.79
212,1900-01-01 12:04:09.847,24.4,9.71,6.25,0.17,0.41,0.89,0.05,-0.04,-1.36,31.06,17.65,7.36,0.3,0.5,0.78,0.15,0.92,-0.24
213,1900-01-01 12:04:09.847,24.34,9.33,6.21,0.17,0.42,0.91,0.0,-0.72,-1.03,30.91,18.55,7.31,0.31,0.5,0.78,0.61,-1.34,0.89
214,1900-01-01 12:04:09.948,24.25,9.42,6.21,0.17,0.41,0.9,-0.57,-1.02,-0.58,30.64,20.01,7.44,0.32,0.48,0.75,-1.98,1.09,0.31
215,1900-01-01 12:04:09.971,24.42,10.05,6.28,0.17,0.41,0.89,-0.02,0.21,-1.21,30.86,18.5,7.47,0.31,0.5,0.77,-0.92,3.11,-1.02
216,1900-01-01 12:04:10.093,24.61,9.35,6.25,0.17,0.42,0.91,-0.25,-1.05,-1.14,31.51,18.54,7.31,0.31,0.52,0.78,-0.72,-1.11,0.71
217,1900-01-01 12:04:10.140,23.74,10.1,6.24,0.18,0.4,0.9,-0.45,-0.67,-0.89,30.62,20.14,7.41,0.32,0.48,0.74,-2.37,2.56,-0.67
218,1900-01-01 12:04:10.232,24.73,9.49,6.26,0.17,0.42,0.9,-0.76,-0.02,-1.27,31.21,17.89,7.3,0.3,0.51,0.79,-0.76,0.67,-0.06
219,1900-01-01 12:04:10.279,24.45,9.93,6.23,0.17,0.42,0.9,-0.4,-0.79,-1.07,31.45,19.34,7.28,0.32,0.5,0.76,-0.88,0.14,0.35
220,1900-01-01 12:04:10.375,23.99,9.82,6.22,0.17,0.41,0.9,-0.66,0.1,-1.02,30.69,19.31,7.33,0.32,0.49,0.76,-1.73,2.81,-0.79
221,1900-01-01 12:04:10.434,24.78,9.39,6.23,0.17,0.43,0.91,-1.29,-0.28,-1.09,31.58,18.43,7.2,0.32,0.52,0.79,-0.88,-0.69,0.79
222,1900-01-01 12:04:10.512,24.05,10.11,6.22,0.18,0.41,0.89,-0.2,-0.69,-0.78,30.55,19.9,7.31,0.32,0.48,0.74,-2.95,2.16,-0.24
223,1900-01-01 12:04:10.679,24.83,9.66,6.26,0.17,0.42,0.89,0.0,0.41,-1.44,31.27,17.42,7.26,0.29,0.51,0.78,0.65,1.6,-0.61
224,1900-01-01 12:04:10.679,24.28,9.66,6.2,0.17,0.42,0.91,-0.89,-0.85,-0.89,31.59,20.19,7.16,0.34,0.51,0.76,0.19,-2.65,1.79
225,1900-01-01 12:04:10.745,23.63,9.88,6.23,0.17,0.4,0.9,-0.45,-0.2,-0.5,30.72,20.31,7.43,0.33,0.49,0.75,-2.47,3.18,-0.51
226,1900-01-01 12:04:10.839,24.56,9.44,6.31,0.17,0.42,0.9,-0.15,0.02,-1.02,31.27,17.48,7.34,0.3,0.52,0.8,-1.29,1.88,-0.34
227,1900-01-01 12:04:10.886,24.14,9.95,6.31,0.17,0.41,0.91,-0.59,-0.92,-0.89,31.29,19.64,7.28,0.32,0.5,0.76,-1.37,0.55,0.39
228,1900-01-01 12:04:11.033,24.2,9.81,6.34,0.17,0.41,0.89,-0.69,-0.21,-0.85,30.65,19.51,7.33,0.32,0.49,0.76,-1.9,2.51,-0.53
229,1900-01-01 12:04:11.072,24.9,9.52,6.37,0.17,0.43,0.9,-0.66,-0.06,-1.24,31.28,18.26,7.24,0.31,0.52,0.79,-0.3,0.39,0.11
230,1900-01-01 12:04:11.120,24.19,10.04,6.34,0.18,0.41,0.9,-0.22,-0.93,-0.82,31.03,20.43,7.25,0.33,0.49,0.75,-1.84,1.23,-0.11
231,1900-01-01 12:04:11.267,24.75,9.6,6.37,0.17,0.42,0.9,-0.7,0.12,-0.88,30.76,18.28,7.22,0.31,0.5,0.78,-0.92,1.69,-0.27
232,1900-01-01 12:04:11.267,24.18,9.78,6.4,0.17,0.42,0.91,-0.66,-0.77,-0.81,31.02,20.02,7.17,0.33,0.5,0.76,-0.88,-0.24,0.38
233,1900-01-01 12:04:11.355,24.26,9.7,6.43,0.17,0.41,0.89,-0.5,-0.08,-0.92,31.04,19.44,7.22,0.32,0.49,0.75,-2.57,2.85,-0.48
234,1900-01-01 12:04:11.448,24.68,9.69,6.45,0.17,0.42,0.9,-0.68,0.06,-1.47,31.06,17.95,7.14,0.31,0.52,0.8,-0.18,-0.4,0.06
235,1900-01-01 12:04:11.494,23.93,9.93,6.38,0.17,0.41,0.91,-0.05,-1.11,-1.05,31.1,20.64,7.14,0.33,0.49,0.74,-1.66,1.24,-0.3
236,1900-01-01 12:04:11.623,24.39,9.91,6.38,0.17,0.41,0.89,-0.89,0.5,-1.15,30.94,18.95,7.09,0.32,0.5,0.77,-1.05,2.45,-0.31
237,1900-01-01 12:04:11.652,24.45,9.87,6.37,0.17,0.42,0.91,-0.37,-0.57,-0.97,31.59,19.57,7.03,0.33,0.52,0.77,-1.07,0.82,0.33
238,1900-01-01 12:04:11.729,24.32,9.84,6.38,0.17,0.41,0.9,-0.28,-0.52,-0.5,30.95,19.28,7.08,0.32,0.5,0.76,-2.7,2.65,-0.2
239,1900-01-01 12:04:11.823,24.61,9.63,6.46,0.17,0.42,0.9,-1.06,-0.29,-0.92,30.99,18.36,7.04,0.31,0.51,0.79,-1.34,0.06,0.56
240,1900-01-01 12:04:11.872,24.45,9.83,6.48,0.17,0.41,0.9,-0.4,-0.7,-0.74,31.28,19.33,7.11,0.32,0.5,0.75,-1.93,1.05,0.11
241,1900-01-01 12:04:11.964,23.85,9.77,6.53,0.17,0.41,0.9,-0.44,0.27,-0.98,30.59,19.08,7.12,0.32,0.49,0.77,-1.16,2.49,-0.35
242,1900-01-01 12:04:12.059,24.37,9.7,6.54,0.17,0.42,0.91,-1.07,-0.37,-0.99,31.26,19.13,7.06,0.32,0.51,0.78,-1.25,-0.01,0.47
243,1900-01-01 12:04:12.106,24.03,10.12,6.54,0.18,0.41,0.9,-0.5,-0.35,-0.57,30.56,19.95,7.12,0.32,0.48,0.75,-2.53,2.06,0.05
244,1900-01-01 12:04:12.216,24.32,9.81,6.62,0.17,0.41,0.9,-0.5,0.14,-1.13,31.04,18.44,7.12,0.31,0.51,0.79,-1.21,1.09,0.16
245,1900-01-01 12:04:12.294,24.01,9.76,6.6,0.17,0.41,0.9,-0.31,-0.62,-1.0,30.96,19.15,7.14,0.32,0.5,0.77,-1.69,0.44,0.42
246,1900-01-01 12:04:12.341,23.95,9.77,6.61,0.17,0.4,0.89,-0.6,0.03,-0.95,30.1,19.42,7.2,0.32,0.48,0.76,-1.51,1.96,0.08
247,1900-01-01 12:04:12.447,24.12,9.69,6.62,0.17,0.41,0.9,-0.67,-0.23,-1.41,30.72,18.91,7.2,0.32,0.5,0.78,-0.37,1.35,0.03
248,1900-01-01 12:04:12.481,24.4,10.0,6.57,0.18,0.42,0.9,0.27,-1.56,-0.27,30.99,19.11,7.19,0.32,0.5,0.77,-0.19,0.32,0.17
249,1900-01-01 12:04:12.574,24.11,10.21,6.69,0.18,0.41,0.9,-0.5,-0.61,-1.05,30.87,20.13,7.21,0.33,0.49,0.75,-2.03,1.25,-0.08
250,1900-01-01 12:04:12.667,24.88,9.82,6.68,0.17,0.42,0.9,-0.34,0.15,-0.85,31.36,18.54,7.19,0.31,0.51,0.78,-1.37,1.5,0.11
251,1900-01-01 12:04:12.715,24.12,9.68,6.71,0.17,0.41,0.91,0.05,-0.95,-0.64,30.29,19.64,7.2,0.33,0.49,0.77,-1.29,0.02,0.63
252,1900-01-01 12:04:12.810,23.97,9.92,6.78,0.17,0.41,0.9,-0.53,-0.28,-1.11,30.83,19.62,7.29,0.32,0.49,0.75,-2.05,2.4,-0.64
253,1900-01-01 12:04:12.903,24.57,9.92,6.76,0.17,0.42,0.89,-0.38,0.24,-1.59,31.18,18.79,7.18,0.31,0.51,0.77,-1.38,1.85,-0.63
254,1900-01-01 12:04:13.054,24.58,9.99,6.68,0.18,0.42,0.9,-0.22,-0.73,-1.45,31.49,18.73,7.08,0.32,0.52,0.78,-0.56,-1.02,0.31
255,1900-01-01 12:04:13.054,24.01,10.49,6.62,0.18,0.41,0.9,-0.02,-0.5,-0.82,31.08,20.24,7.11,0.33,0.49,0.74,-1.5,2.34,-0.59
256,1900-01-01 12:04:13.090,24.44,9.57,6.65,0.17,0.42,0.91,-1.0,0.18,-0.86,30.86,18.44,7.02,0.31,0.51,0.79,-1.28,2.28,-0.11
257,1900-01-01 12:04:13.183,24.52,10.2,6.68,0.18,0.42,0.9,-0.55,-0.92,-0.72,30.98,19.33,6.99,0.32,0.5,0.77,-1.52,0.22,0.42
258,1900-01-01 12:04:13.271,24.14,9.94,6.73,0.17,0.41,0.89,-0.69,-0.18,-0.82,30.68,19.3,7.05,0.32,0.49,0.76,-1.94,2.14,-0.18
259,1900-01-01 12:04:13.324,24.59,9.77,6.76,0.17,0.42,0.9,-0.63,0.07,-1.16,30.78,18.45,7.01,0.31,0.5,0.79,-0.86,0.95,0.12
260,1900-01-01 12:04:13.421,24.11,9.81,6.74,0.17,0.41,0.9,-0.5,-0.89,-1.04,30.42,19.99,7.02,0.33,0.48,0.76,-1.18,0.38,-0.08
261,1900-01-01 12:04:13.465,24.23,10.27,6.75,0.18,0.41,0.9,-0.85,0.32,-1.27,30.76,19.14,7.0,0.32,0.5,0.77,-1.61,2.82,-0.73
262,1900-01-01 12:04:13.558,24.82,10.02,6.71,0.18,0.43,0.91,-0.24,-0.31,-0.92,31.38,18.56,6.88,0.32,0.52,0.79,-0.75,0.49,0.28
263,1900-01-01 12:04:13.649,24.04,9.99,6.73,0.17,0.41,0.9,-0.4,-0.93,-0.44,30.43,20.07,6.92,0.33,0.48,0.76,-1.64,0.3,0.54
264,1900-01-01 12:04:13.698,24.18,9.8,6.82,0.17,0.41,0.89,-0.5,0.11,-0.82,30.41,18.86,6.99,0.31,0.48,0.76,-1.57,2.54,-0.3
265,1900-01-01 12:04:13.792,24.37,9.86,6.85,0.17,0.42,0.91,-0.58,-0.39,-1.19,30.64,18.63,6.94,0.32,0.51,0.79,-0.63,0.76,-0.21
266,1900-01-01 12:04:13.883,24.23,10.01,6.83,0.18,0.41,0.9,-0.64,-1.06,-0.82,30.64,20.22,6.9,0.33,0.49,0.76,-1.57,0.13,0.29
267,1900-01-01 12:04:13.933,24.11,10.18,6.87,0.18,0.41,0.9,-1.09,0.37,-0.92,30.49,19.56,6.93,0.32,0.49,0.77,-1.92,3.06,-0.54
268,1900-01-01 12:04:14.027,24.77,9.8,6.88,0.17,0.43,0.91,-1.08,-0.54,-0.92,31.0,18.85,6.84,0.32,0.51,0.79,-1.11,-0.26,0.49
269,1900-01-01 12:04:14.074,24.14,9.99,6.9,0.17,0.41,0.89,-0.46,-0.72,-0.56,30.49,19.59,6.91,0.32,0.48,0.76,-1.61,1.26,0.18
270,1900-01-01 12:04:14.246,24.09,9.8,6.97,0.17,0.41,0.89,-0.3,0.28,-1.33,30.73,18.58,6.93,0.31,0.49,0.77,-0.86,2.92,-0.92
271,1900-01-01 12:04:14.246,24.7,10.08,6.93,0.18,0.42,0.9,-0.62,-0.41,-1.29,31.17,19.1,6.78,0.32,0.51,0.78,-0.66,-0.6,0.34
272,1900-01-01 12:04:14.344,24.31,10.2,6.89,0.18,0.42,0.9,0.38,-1.5,-0.67,30.87,20.35,6.82,0.33,0.49,0.75,-1.39,-0.3,0.01
273,1900-01-01 12:04:14.402,24.49,9.56,6.95,0.17,0.42,0.9,-0.52,0.44,-0.53,30.36,19.2,6.81,0.32,0.49,0.77,-1.38,3.53,-0.27
274,1900-01-01 12:04:14.496,24.36,9.65,7.03,0.17,0.42,0.91,-1.56,0.08,-1.1,30.3,19.18,6.76,0.33,0.5,0.79,-1.5,0.73,0.39
275,1900-01-01 12:04:14.544,24.34,9.91,7.02,0.17,0.41,0.9,-0.78,-1.15,-0.89,30.69,19.66,6.82,0.33,0.49,0.76,-2.44,0.03,0.63
276,1900-01-01 12:04:14.692,24.4,10.33,7.04,0.18,0.41,0.89,-1.24,0.48,-0.85,30.94,19.58,6.9,0.32,0.49,0.75,-2.5,3.82,-0.01
277,1900-01-01 12:04:14.692,24.41,9.29,7.07,0.16,0.42,0.91,-0.76,-0.26,-0.82,30.08,18.76,6.89,0.32,0.5,0.8,-0.91,0.15,0.28
278,1900-01-01 12:04:14.776,23.96,10.08,7.11,0.18,0.41,0.9,-0.63,-1.09,-0.63,30.4,20.18,6.93,0.33,0.48,0.76,-1.67,0.41,0.26
279,1900-01-01 12:04:14.870,24.08,10.32,7.17,0.18,0.41,0.9,-0.45,0.21,-0.95,30.56,19.54,6.96,0.32,0.49,0.77,-1.52,2.57,-0.32
280,1900-01-01 12:04:14.917,24.43,9.7,7.18,0.17,0.42,0.91,-0.57,-0.37,-0.96,30.46,18.9,6.9,0.32,0.5,0.79,-1.28,0.57,0.11
281,1900-01-01 12:04:15.010,24.04,10.35,7.2,0.18,0.41,0.9,-0.61,-0.86,-0.76,30.54,20.35,6.91,0.33,0.48,0.75,-1.33,0.87,0.21
282,1900-01-01 12:04:15.057,24.04,10.4,7.24,0.18,0.41,0.9,-1.21,0.71,-0.85,30.49,19.46,6.93,0.32,0.49,0.77,-2.82,3.27,-0.19
283,1900-01-01 12:04:15.156,24.22,9.78,7.27,0.18,0.43,0.93,-3.64,-0.18,-0.07,30.13,19.5,6.9,0.34,0.51,0.81,-4.77,0.25,2.29
284,1900-01-01 12:04:15.244,23.32,10.02,7.41,0.17,0.4,0.9,-0.55,-1.23,-0.43,29.01,19.96,7.23,0.32,0.46,0.77,-2.79,0.57,0.05
285,1900-01-01 12:04:15.292,24.14,9.81,7.51,0.17,0.41,0.89,-0.69,0.02,-0.51,30.14,19.16,7.23,0.31,0.48,0.76,-1.9,3.3,-0.14
286,1900-01-01 12:04:15.384,23.88,9.75,7.59,0.17,0.41,0.91,-0.74,-0.01,-0.85,29.06,18.92,7.2,0.32,0.48,0.8,-0.92,0.99,0.06
287,1900-01-01 12:04:15.508,23.43,10.14,7.62,0.18,0.4,0.91,-0.26,-0.91,-0.85,29.18,20.29,7.2,0.33,0.47,0.77,-1.3,0.31,0.45
288,1900-01-01 12:04:15.531,23.56,10.02,7.65,0.18,0.4,0.91,-0.89,0.31,-0.79,29.4,19.81,7.26,0.33,0.47,0.78,-2.47,2.69,-0.08
289,1900-01-01 12:04:15.628,23.9,9.87,7.68,0.17,0.41,0.91,-0.8,0.02,-0.91,29.16,18.78,7.24,0.32,0.48,0.81,-1.63,1.13,0.19
290,1900-01-01 12:04:15.667,23.51,9.81,7.71,0.17,0.4,0.9,-0.4,-1.54,-0.71,29.06,19.75,7.27,0.32,0.47,0.77,-1.53,-1.01,0.64
291,1900-01-01 12:04:15.760,23.57,10.27,7.76,0.18,0.4,0.9,-0.57,-0.47,-1.11,29.13,19.87,7.35,0.33,0.47,0.77,-1.83,2.34,-0.93
292,1900-01-01 12:04:15.853,24.39,10.23,7.74,0.18,0.42,0.9,1.14,0.08,-1.42,30.89,18.4,7.2,0.32,0.51,0.8,-0.89,1.74,-0.13
293,1900-01-01 12:04:15.902,23.09,10.1,7.69,0.18,0.39,0.91,0.83,-1.5,-0.79,28.81,19.67,7.18,0.33,0.47,0.79,-1.31,-0.95,0.58
294,1900-01-01 12:04:15.995,23.22,10.7,7.73,0.18,0.39,0.89,-0.44,-0.21,-1.21,29.25,20.16,7.26,0.33,0.46,0.76,-1.21,2.68,-0.84
295,1900-01-01 12:04:16.090,24.02,10.46,7.7,0.18,0.41,0.91,-0.86,0.58,-1.02,29.5,19.21,7.12,0.33,0.49,0.8,-0.76,2.11,-0.27
296,1900-01-01 12:04:16.186,23.65,10.29,7.7,0.18,0.41,0.91,-0.44,-1.14,-0.85,29.26,19.49,7.07,0.33,0.48,0.79,-1.12,0.05,0.29
297,1900-01-01 12:04:16.229,23.83,10.35,7.73,0.18,0.4,0.9,-0.46,-0.9,-0.59,29.76,19.55,7.1,0.32,0.47,0.77,-2.49,3.2,-0.28
298,1900-01-01 12:04:16.276,24.0,10.52,7.8,0.18,0.41,0.9,0.41,-0.64,-0.26,28.76,18.63,7.05,0.31,0.46,0.79,-0.25,1.66,-0.08
299,1900-01-01 12:04:16.415,24.16,10.5,7.92,0.19,0.42,0.91,-0.15,-0.5,-0.64,29.89,19.49,7.03,0.33,0.49,0.78,-0.24,-0.3,0.71
300,1900-01-01 12:04:16.464,23.43,10.79,7.98,0.19,0.4,0.91,-1.07,0.15,-0.82,28.76,20.14,7.13,0.33,0.46,0.78,-1.95,2.46,-0.39
301,1900-01-01 12:04:16.510,24.67,10.31,8.02,0.18,0.42,0.91,-0.87,-0.03,-1.36,29.86,18.26,7.06,0.31,0.49,0.8,-1.4,1.43,-0.26
302,1900-01-01 12:04:16.644,23.91,10.5,7.97,0.18,0.41,0.9,-0.63,-0.92,-0.83,29.43,19.46,7.02,0.32,0.48,0.78,-1.79,0.42,0.5
303,1900-01-01 12:04:16.663,23.95,10.7,8.0,0.19,0.41,0.9,-1.31,-0.43,-1.07,28.8,20.26,7.08,0.33,0.46,0.76,-2.19,2.8,-0.99
304,1900-01-01 12:04:16.745,24.94,10.32,7.99,0.18,0.43,0.9,-0.69,0.4,-0.66,29.92,18.11,6.92,0.31,0.5,0.8,-2.01,1.33,0.76
305,1900-01-01 12:04:16.838,23.65,10.44,8.05,0.18,0.41,0.91,0.38,-0.68,-0.88,29.16,19.41,7.03,0.32,0.47,0.78,-1.3,0.38,0.21
306,1900-01-01 12:04:16.884,23.61,10.83,8.08,0.19,0.4,0.9,-0.88,0.21,-0.58,29.05,19.71,7.05,0.32,0.46,0.77,-1.45,2.58,-0.21
307,1900-01-01 12:04:16.977,24.31,10.13,8.15,0.18,0.42,0.91,-0.5,-0.08,-1.0,29.75,18.13,7.01,0.31,0.49,0.8,-1.08,1.07,0.17
308,1900-01-01 12:04:17.073,23.61,10.35,8.15,0.18,0.4,0.9,-0.05,-1.11,-0.89,29.01,19.32,7.03,0.32,0.46,0.77,-1.07,-0.94,0.5
309,1900-01-01 12:04:17.120,23.42,10.67,8.18,0.18,0.4,0.89,0.02,-0.22,-1.5,29.63,19.18,7.1,0.31,0.47,0.77,-0.73,3.15,-1.27
310,1900-01-01 12:04:17.214,24.32,10.56,8.11,0.19,0.42,0.91,-0.09,-0.2,-1.56,30.03,18.17,6.9,0.31,0.5,0.8,-0.11,1.68,-0.76
311,1900-01-01 12:04:17.260,23.84,10.38,8.03,0.18,0.41,0.91,-0.1,-1.24,-0.88,29.6,19.11,6.77,0.32,0.48,0.78,-1.46,0.05,0.58
312,1900-01-01 12:04:17.355,23.26,10.21,8.05,0.18,0.39,0.9,-2.13,0.98,-1.19,28.93,19.0,6.85,0.31,0.46,0.78,-2.43,3.05,-0.38
313,1900-01-01 12:04:17.448,24.14,10.56,8.03,0.19,0.42,0.91,-2.73,1.27,-0.82,29.15,19.07,6.79,0.32,0.48,0.8,-3.05,4.36,-0.47
314,1900-01-01 12:04:17.495,24.96,10.53,8.07,0.18,0.42,0.89,0.12,-1.56,-0.98,30.18,17.51,6.71,0.3,0.49,0.8,-0.55,-0.89,0.17
315,1900-01-01 12:04:17.587,23.62,10.57,8.07,0.18,0.4,0.9,0.22,-1.15,0.2,29.47,19.52,6.72,0.31,0.46,0.76,-0.59,0.98,0.68
316,1900-01-01 12:04:17.650,23.5,10.09,8.26,0.18,0.4,0.91,-0.53,0.36,-0.26,28.72,18.75,6.82,0.31,0.46,0.79,-1.31,2.86,0.04
317,1900-01-01 12:04:17.727,23.94,10.25,8.38,0.18,0.41,0.91,-0.41,-0.05,-0.97,28.91,17.91,6.81,0.31,0.48,0.81,-1.24,1.5,-0.14
318,1900-01-01 12:04:17.872,23.86,10.24,8.39,0.18,0.4,0.9,0.88,-1.61,-1.79,29.48,18.35,6.79,0.3,0.48,0.79,0.13,-0.62,-0.62
319,1900-01-01 12:04:17.872,23.65,11.18,8.28,0.19,0.4,0.89,-0.58,-0.3,-1.09,30.14,19.5,6.68,0.32,0.47,0.75,-1.78,2.16,-0.4
320,1900-01-01 12:04:17.962,24.22,10.69,8.27,0.19,0.42,0.9,-1.21,0.69,-0.73,29.82,18.23,6.61,0.31,0.49,0.79,-1.15,3.27,-0.36
321,1900-01-01 12:04:18.055,23.92,10.18,8.32,0.18,0.41,0.92,-0.18,-0.87,-0.78,29.08,18.49,6.55,0.31,0.48,0.8,-0.63,-0.47,0.56
322,1900-01-01 12:04:18.103,23.92,10.39,8.36,0.18,0.41,0.9,-0.55,-1.31,-0.95,29.54,18.91,6.63,0.31,0.47,0.77,-1.34,0.47,-0.13
323,1900-01-01 12:04:18.206,24.46,10.67,8.37,0.18,0.41,0.89,-0.66,-0.24,-0.61,30.7,18.2,6.6,0.3,0.49,0.77,-2.53,2.4,-0.01
324,1900-01-01 12:04:18.290,23.96,10.24,8.44,0.18,0.41,0.9,-0.81,0.2,-0.71,29.01,18.01,6.59,0.3,0.47,0.8,-0.59,1.5,-0.05
325,1900-01-01 12:04:18.337,23.88,10.42,8.49,0.18,0.41,0.91,-0.31,-1.12,-1.48,29.88,18.65,6.58,0.31,0.49,0.79,0.86,-1.15,-0.22
326,1900-01-01 12:04:18.430,24.35,11.12,8.42,0.19,0.41,0.89,-0.68,-0.46,-1.48,30.91,18.89,6.53,0.31,0.49,0.76,-2.3,2.14,-0.79
327,1900-01-01 12:04:18.524,24.62,10.6,8.35,0.19,0.42,0.9,-0.84,0.6,-0.81,30.19,17.6,6.4,0.3,0.49,0.8,-1.6,2.11,0.3
328,1900-01-01 12:04:18.570,24.02,10.19,8.39,0.18,0.41,0.91,-0.37,-1.15,-0.76,29.49,18.77,6.44,0.32,0.48,0.79,-0.16,-1.2,0.64
329,1900-01-01 12:04:18.664,24.12,10.8,8.43,0.19,0.41,0.89,-0.02,-0.82,-1.08,30.72,18.67,6.53,0.3,0.48,0.76,-2.5,2.21,-0.46
330,1900-01-01 12:04:18.749,24.32,10.45,8.42,0.18,0.41,0.9,-0.47,0.65,-1.18,29.9,17.65,6.45,0.3,0.49,0.79,-0.65,1.85,-0.34
331,1900-01-01 12:04:18.803,23.8,10.64,8.4,0.19,0.41,0.91,-0.14,-0.86,-1.49,30.14,18.61,6.39,0.32,0.5,0.8,0.18,-0.09,-0.52
332,1900-01-01 12:04:18.897,24.33,11.04,8.33,0.19,0.42,0.9,-0.51,-0.86,-0.97,30.73,19.16,6.3,0.31,0.49,0.76,-1.6,1.39,-0.34
333,1900-01-01 12:04:18.944,24.63,10.69,8.34,0.19,0.42,0.9,-1.03,-0.08,-0.5,30.15,18.66,6.24,0.31,0.48,0.77,-4.58,2.66,0.58
334,1900-01-01 12:04:19.039,24.49,10.24,8.43,0.18,0.42,0.9,-0.69,-0.51,-0.66,29.47,18.39,6.32,0.31,0.48,0.79,-1.24,-0.27,0.65
335,1900-01-01 12:04:19.104,24.06,10.68,8.49,0.19,0.41,0.9,-0.26,-0.66,-1.02,29.99,18.61,6.41,0.31,0.48,0.78,-1.47,0.96,-0.08
336,1900-01-01 12:04:19.204,24.29,10.57,8.49,0.18,0.41,0.89,-0.4,-0.24,-1.07,30.03,17.88,6.39,0.3,0.49,0.79,-1.15,0.86,0.04
337,1900-01-01 12:04:19.271,23.97,10.87,8.49,0.19,0.41,0.9,-0.54,-0.47,-1.2,30.19,19.04,6.39,0.32,0.49,0.78,-0.51,0.6,0.02
338,1900-01-01 12:04:19.318,24.14,11.0,8.46,0.19,0.41,0.9,-0.34,-0.25,-0.98,30.61,19.03,6.38,0.31,0.49,0.77,-1.32,1.73,-0.24
339,1900-01-01 12:04:19.426,24.56,10.64,8.47,0.19,0.42,0.9,-0.54,-0.07,-0.6,30.39,18.52,6.34,0.31,0.49,0.78,-1.64,2.04,0.11
340,1900-01-01 12:04:19.504,24.23,10.42,8.54,0.18,0.41,0.9,-0.52,-0.82,-0.6,29.75,18.35,6.35,0.31,0.49,0.79,-1.56,0.85,0.23
341,1900-01-01 12:04:19.552,24.57,10.76,8.61,0.19,0.42,0.89,-0.34,-0.76,-1.13,30.05,18.13,6.37,0.3,0.48,0.78,0.0,-0.59,0.3
342,1900-01-01 12:04:19.647,23.82,10.95,8.59,0.19,0.41,0.9,-0.42,-0.46,-0.95,30.12,20.37,6.41,0.33,0.48,0.75,-1.24,0.26,0.14
343,1900-01-01 12:04:19.740,24.58,11.05,8.61,0.19,0.42,0.89,-0.56,0.6,-1.02,30.64,18.67,6.42,0.31,0.5,0.78,-1.65,3.92,-0.82
344,1900-01-01 12:04:19.787,24.76,10.77,8.61,0.19,0.43,0.91,-0.59,-0.13,-0.67,30.15,18.7,6.29,0.32,0.5,0.8,-0.91,0.46,0.55
345,1900-01-01 12:04:19.880,24.17,10.56,8.66,0.19,0.41,0.9,-0.34,-1.43,-0.6,30.03,19.22,6.36,0.32,0.48,0.77,-1.56,-0.46,0.61
346,1900-01-01 12:04:19.928,24.34,10.79,8.73,0.19,0.41,0.89,-0.37,-0.1,-0.91,30.79,18.71,6.45,0.31,0.49,0.76,-2.35,2.52,-0.21
347,1900-01-01 12:04:20.021,24.75,10.46,8.75,0.18,0.42,0.9,-0.49,0.09,-1.0,30.29,18.17,6.41,0.31,0.5,0.79,-0.91,0.29,0.32
348,1900-01-01 12:04:20.185,24.12,10.92,8.76,0.19,0.41,0.9,-0.18,-0.81,-0.92,30.27,19.5,6.45,0.32,0.48,0.76,-1.58,1.04,-0.16
349,1900-01-01 12:04:20.185,24.16,10.86,8.78,0.19,0.41,0.9,-0.77,0.05,-1.0,30.17,18.73,6.42,0.31,0.49,0.78,-1.21,2.27,-0.46
350,1900-01-01 12:04:20.254,24.38,10.75,8.78,0.19,0.42,0.91,-0.98,-0.58,-0.98,30.13,19.04,6.34,0.32,0.49,0.79,-0.47,-0.37,0.37
351,1900-01-01 12:04:20.347,24.08,11.05,8.79,0.19,0.41,0.89,-0.05,-1.01,-0.98,30.34,19.84,6.39,0.32,0.48,0.75,-1.45,1.48,-0.42
352,1900-01-01 12:04:20.394,25.03,10.66,8.8,0.19,0.43,0.89,-0.55,0.56,-0.98,30.79,17.87,6.31,0.3,0.5,0.79,-0.66,1.74,-0.01
353,1900-01-01 12:04:20.513,23.83,10.93,8.81,0.19,0.41,0.9,-0.39,-1.03,-0.81,29.68,19.83,6.3,0.33,0.48,0.77,-0.97,0.27,0.11
354,1900-01-01 12:04:20.533,24.59,10.93,8.85,0.19,0.42,0.89,-0.67,-0.05,-0.91,31.0,19.04,6.31,0.31,0.49,0.76,-1.64,2.54,-0.28
355,1900-01-01 12:04:20.627,24.6,10.82,8.87,0.19,0.42,0.9,-0.69,0.1,-1.13,30.51,18.48,6.26,0.32,0.5,0.8,-0.75,0.88,0.17
356,1900-01-01 12:04:20.720,24.14,10.84,8.85,0.19,0.41,0.9,-0.52,-1.1,-0.63,30.16,19.47,6.28,0.32,0.48,0.77,-1.8,0.44,0.35
357,1900-01-01 12:04:20.768,24.26,10.83,8.91,0.19,0.41,0.89,-1.13,0.29,-0.76,30.12,19.26,6.32,0.31,0.48,0.76,-2.01,2.43,-0.15
358,1900-01-01 12:04:20.862,24.83,10.47,8.96,0.18,0.43,0.9,-0.89,0.16,-1.23,30.47,17.88,6.29,0.31,0.51,0.81,-1.4,0.47,0.18
359,1900-01-01 12:04:20.956,24.06,11.1,8.93,0.19,0.41,0.9,-0.42,-0.91,-0.72,30.03,19.59,6.31,0.32,0.48,0.77,-1.98,0.48,0.4
360,1900-01-01 12:04:21.057,24.42,10.52,8.98,0.18,0.41,0.89,-0.8,0.11,-0.89,30.31,18.72,6.36,0.31,0.48,0.77,-1.81,2.21,-0.15
361,1900-01-01 12:04:21.096,24.3,10.9,9.0,0.19,0.42,0.9,-1.05,0.4,-0.99,29.99,19.43,6.33,0.32,0.49,0.78,-1.41,2.02,-0.15
362,1900-01-01 12:04:21.144,24.85,10.52,9.01,0.18,0.42,0.9,-0.25,-0.69,-0.88,30.62,18.53,6.3,0.31,0.5,0.78,-1.59,0.4,0.27
363,1900-01-01 12:04:21.237,24.15,10.69,9.03,0.19,0.41,0.9,-0.7,-0.24,-0.79,29.71,19.11,6.33,0.32,0.48,0.78,-0.89,0.52,0.4
364,1900-01-01 12:04:21.367,24.27,10.68,9.07,0.19,0.41,0.9,-0.27,-0.52,-0.97,30.6,18.86,6.39,0.31,0.49,0.77,-1.44,1.63,-0.28
365,1900-01-01 12:04:21.367,24.13,10.8,9.08,0.19,0.41,0.9,-0.77,-0.04,-0.61,30.01,18.95,6.34,0.32,0.49,0.78,-1.26,1.5,0.32
366,1900-01-01 12:04:21.475,24.26,10.89,9.15,0.19,0.41,0.9,-0.08,-0.8,-0.73,30.47,18.9,6.38,0.32,0.49,0.78,-1.15,0.95,0.07
367,1900-01-01 12:04:21.564,24.13,10.82,9.2,0.19,0.41,0.9,-0.46,-0.58,-0.65,29.94,19.2,6.38,0.32,0.48,0.77,-1.4,0.91,0.25
368,1900-01-01 12:04:21.610,24.3,10.59,9.26,0.18,0.41,0.9,-0.52,-0.42,-0.99,29.84,18.99,6.41,0.31,0.48,0.77,-1.27,1.37,-0.33
369,1900-01-01 12:04:21.704,24.72,10.75,9.26,0.19,0.42,0.9,-0.94,0.04,-1.18,30.36,18.66,6.35,0.31,0.49,0.78,-1.61,1.69,-0.21
370,1900-01-01 12:04:21.750,24.03,10.63,9.24,0.19,0.41,0.91,-0.77,-0.6,-1.02,29.86,19.87,6.31,0.33,0.49,0.78,-1.27,0.1,0.14
371,1900-01-01 12:04:21.844,24.31,11.04,9.24,0.19,0.41,0.89,-0.53,-0.35,-1.45,30.39,19.25,6.32,0.32,0.49,0.77,-2.25,2.43,-0.96
372,1900-01-01 12:04:21.938,24.81,10.64,9.18,0.19,0.43,0.9,-1.18,-0.08,-0.93,30.74,18.99,6.17,0.32,0.5,0.78,-1.37,0.1,0.59
373,1900-01-01 12:04:22.006,24.03,11.03,9.2,0.19,0.41,0.9,-0.36,-0.34,-0.74,29.76,19.4,6.25,0.32,0.48,0.77,-2.01,1.75,-0.08
374,1900-01-01 12:04:22.078,24.62,10.68,9.24,0.19,0.42,0.89,-0.57,0.15,-1.04,30.2,19.02,6.23,0.31,0.48,0.77,-1.27,1.92,-0.53
375,1900-01-01 12:04:22.132,24.35,10.46,9.25,0.18,0.42,0.91,-0.27,-0.67,-0.84,29.96,18.6,6.14,0.31,0.49,0.79,-0.21,-0.04,0.25
376,1900-01-01 12:04:22.229,24.21,10.76,9.28,0.19,0.41,0.9,0.23,-1.17,-0.87,30.3,19.34,6.17,0.32,0.48,0.76,-0.66,1.37,-0.37
377,1900-01-01 12:04:22.314,24.42,10.99,9.3,0.19,0.42,0.9,-0.95,0.37,-0.69,30.23,19.1,6.1,0.32,0.49,0.77,-1.37,2.79,-0.09
378,1900-01-01 12:04:22.360,24.54,10.51,9.35,0.19,0.42,0.91,-0.9,-0.76,-0.82,29.87,18.67,6.08,0.32,0.49,0.8,-1.06,-0.42,0.49
379,1900-01-01 12:04:22.455,24.24,11.21,9.39,0.19,0.41,0.89,-0.44,-0.95,-0.77,30.42,19.89,6.15,0.32,0.48,0.75,-2.04,1.26,0.03
380,1900-01-01 12:04:22.550,24.44,10.82,9.43,0.19,0.41,0.89,-0.93,0.62,-0.95,29.98,18.95,6.14,0.31,0.48,0.78,-1.49,3.24,-0.43
381,1900-01-01 12:04:22.597,24.77,10.75,9.44,0.19,0.43,0.9,-0.51,-0.53,-0.88,30.24,18.29,6.07,0.31,0.5,0.8,-0.87,0.1,0.27
382,1900-01-01 12:04:22.694,23.95,10.99,9.47,0.19,0.41,0.9,-0.42,-0.95,-0.59,29.72,19.79,6.1,0.32,0.47,0.76,-1.42,0.8,0.22
383,1900-01-01 12:04:22.738,24.32,10.92,9.54,0.19,0.41,0.9,-0.67,0.18,-1.05,30.47,18.82,6.13,0.31,0.49,0.77,-1.6,2.47,-0.25
384,1900-01-01 12:04:22.830,24.8,10.61,9.53,0.19,0.42,0.9,-0.35,-0.42,-1.03,30.19,18.48,6.08,0.31,0.5,0.79,-1.15,0.07,0.24
385,1900-01-01 12:04:22.926,24.1,10.83,9.54,0.19,0.41,0.89,-0.4,-0.83,-0.89,29.91,19.38,6.11,0.32,0.48,0.77,-1.18,0.93,-0.03
386,1900-01-01 12:04:22.971,24.28,11.0,9.56,0.19,0.41,0.89,-0.74,0.16,-0.96,30.23,19.2,6.1,0.32,0.48,0.77,-1.37,2.5,-0.42
387,1900-01-01 12:04:23.065,24.62,10.89,9.57,0.19,0.42,0.9,-0.65,-0.12,-1.08,30.1,18.61,6.02,0.31,0.49,0.79,-1.4,0.96,-0.11
388,1900-01-01 12:04:23.159,24.47,10.91,9.56,0.19,0.42,0.9,-0.21,-0.95,-0.99,30.53,19.01,6.0,0.32,0.49,0.77,-1.02,-0.6,0.48
389,1900-01-01 12:04:23.208,24.05,11.09,9.57,0.19,0.41,0.89,-0.41,-0.02,-0.97,29.87,19.58,6.06,0.32,0.48,0.77,-1.09,2.64,-0.63
390,1900-01-01 12:04:23.301,24.75,11.07,9.58,0.19,0.42,0.9,-0.58,0.13,-0.95,31.03,18.5,5.96,0.31,0.51,0.78,-0.92,2.05,-0.1
391,1900-01-01 12:04:23.347,24.42,10.7,9.6,0.19,0.42,0.9,-0.67,-0.86,-0.34,29.74,19.11,5.94,0.32,0.48,0.78,-1.26,-0.12,0.92
392,1900-01-01 12:04:23.441,24.29,10.93,9.7,0.19,0.41,0.89,-0.45,-0.56,-0.78,30.41,19.31,6.07,0.31,0.48,0.75,-1.42,1.7,-0.11
393,1900-01-01 12:04:23.542,24.69,10.66,9.74,0.19,0.42,0.9,-0.61,0.36,-1.06,30.38,18.32,6.04,0.31,0.5,0.79,-0.77,2.03,-0.27
394,1900-01-01 12:04:23.581,24.38,10.95,9.74,0.19,0.42,0.91,-0.42,-0.89,-0.96,30.15,19.04,5.99,0.32,0.49,0.79,-1.1,-0.51,0.46
395,1900-01-01 12:04:23.675,24.04,11.22,9.75,0.19,0.41,0.89,-0.54,-0.48,-1.1,30.3,20.28,6.05,0.33,0.48,0.74,-1.15,1.51,-0.41
396,1900-01-01 12:04:23.757,24.97,11.09,9.74,0.19,0.43,0.89,-0.77,0.86,-0.92,30.87,18.78,5.98,0.31,0.5,0.78,-0.82,2.83,-0.33
397,1900-01-01 12:04:23.815,24.53,10.83,9.76,0.19,0.42,0.91,-0.15,-0.9,-0.7,30.34,19.12,5.92,0.32,0.5,0.79,-0.72,0.03,0.44
398,1900-01-01 12:04:23.909,24.18,11.06,9.81,0.19,0.41,0.89,-0.02,-0.76,-0.66,30.62,19.23,5.98,0.32,0.49,0.76,-1.0,1.22,0.02
399,1900-01-01 12:04:24.002,24.39,10.79,9.87,0.19,0.42,0.9,-1.08,0.68,-0.52,30.38,19.0,5.98,0.32,0.49,0.78,-1.31,2.99,0.23
400,1900-01-01 12:04:24.048,24.66,10.38,9.95,0.18,0.42,0.9,-0.98,-0.05,-0.49,30.36,17.91,6.0,0.3,0.5,0.8,-1.86,1.02,0.74
401,1900-01-01 12:04:24.167,23.91,10.84,10.03,0.19,0.41,0.89,-0.53,-0.56,-0.85,29.86,19.62,6.11,0.32,0.48,0.76,-1.37,0.79,0.32
402,1900-01-01 12:04:24.189,24.71,10.77,10.06,0.19,0.42,0.89,-0.79,0.11,-1.44,30.43,18.84,6.15,0.31,0.49,0.78,-1.75,1.5,-0.42
403,1900-01-01 12:04:24.283,24.71,11.09,10.0,0.19,0.42,0.9,-0.59,0.14,-0.89,30.78,19.14,6.07,0.32,0.5,0.77,-1.3,2.38,-0.21
404,1900-01-01 12:04:24.377,24.62,10.66,10.02,0.19,0.42,0.9,-0.21,-0.74,-0.73,30.1,18.46,6.03,0.31,0.49,0.79,-1.07,-0.37,0.53
405,1900-01-01 12:04:24.424,24.21,10.79,10.07,0.19,0.41,0.9,-0.27,-0.92,-0.79,30.34,19.36,6.11,0.32,0.48,0.76,-1.02,1.13,0.04
406,1900-01-01 12:04:24.518,24.34,10.54,10.11,0.18,0.41,0.9,-0.88,-0.32,-1.15,29.78,19.52,6.1,0.32,0.48,0.77,-1.03,1.19,-0.45
407,1900-01-01 12:04:24.565,24.68,11.01,10.09,0.19,0.42,0.9,-0.52,-0.14,-1.18,30.56,18.91,6.03,0.32,0.5,0.78,-1.16,1.65,-0.4
408,1900-01-01 12:04:24.658,24.21,11.08,10.07,0.19,0.41,0.9,-0.44,-0.54,-0.85,30.32,19.35,5.96,0.32,0.49,0.78,-1.32,0.98,0.17
409,1900-01-01 12:04:24.753,24.48,10.86,10.1,0.19,0.42,0.89,-0.44,-0.55,-0.93,30.5,18.86,5.97,0.31,0.49,0.77,-1.3,1.09,-0.04
410,1900-01-01 12:04:24.800,24.58,10.84,10.12,0.19,0.42,0.89,-0.65,-0.21,-0.76,30.33,19.21,5.96,0.32,0.49,0.77,-1.11,1.37,0.15
411,1900-01-01 12:04:24.894,24.56,10.55,10.16,0.18,0.42,0.9,-0.33,-0.44,-0.88,30.32,18.82,5.97,0.31,0.49,0.78,-0.95,0.89,0.09
412,1900-01-01 12:04:24.987,24.68,10.75,10.18,0.19,0.42,0.9,-0.34,-0.34,-0.84,30.65,18.6,5.98,0.31,0.5,0.78,-0.95,1.24,0.1
413,1900-01-01 12:04:25.032,24.41,11.19,10.22,0.2,0.42,0.89,-0.44,-0.45,-0.75,30.51,19.8,5.99,0.32,0.49,0.76,0.08,0.4,0.63
414,1900-01-01 12:04:25.126,24.71,11.46,10.26,0.2,0.42,0.89,-0.73,-0.24,-1.08,30.68,19.81,6.07,0.33,0.5,0.77,-1.47,1.54,-0.32
415,1900-01-01 12:04:25.220,25.01,10.67,10.25,0.19,0.43,0.9,-0.51,-0.55,-0.54,31.04,18.72,6.02,0.31,0.5,0.77,-1.51,0.98,0.35
416,1900-01-01 12:04:25.268,24.02,10.98,10.33,0.19,0.41,0.9,-1.02,-0.26,-0.72,29.63,19.61,6.06,0.33,0.48,0.78,-2.03,1.38,0.18
417,1900-01-01 12:04:25.362,24.67,10.88,10.38,0.19,0.42,0.9,-0.62,-0.72,-1.36,30.86,19.14,6.08,0.32,0.5,0.77,-1.86,1.02,-0.45
418,1900-01-01 12:04:25.408,24.73,11.25,10.33,0.2,0.42,0.89,-0.92,-0.01,-0.74,30.67,19.2,6.0,0.32,0.5,0.77,-1.83,1.27,0.41
419,1900-01-01 12:04:25.501,24.39,11.05,10.37,0.19,0.42,0.9,-0.48,-0.16,-0.76,30.14,18.65,6.06,0.31,0.49,0.79,0.98,-0.76,1.15
420,1900-01-01 12:04:25.595,24.28,11.15,10.42,0.2,0.42,0.91,-1.51,-0.5,0.28,30.1,21.08,6.22,0.35,0.49,0.78,3.9,-7.15,2.38
421,1900-01-01 12:04:25.644,24.15,11.3,10.62,0.19,0.41,0.88,-0.44,-0.14,-0.21,31.18,20.19,6.58,0.34,0.51,0.77,2.51,-11.21,3.31
422,1900-01-01 12:04:25.735,23.74,10.97,10.75,0.19,0.41,0.91,-0.76,-0.74,-0.69,31.03,24.32,7.07,0.4,0.49,0.72,0.85,-13.15,-0.04
423,1900-01-01 12:04:25.828,23.37,10.96,10.8,0.19,0.4,0.9,-0.81,-1.44,-1.15,30.91,25.71,7.06,0.42,0.5,0.72,-0.6,-10.32,-4.53
424,1900-01-01 12:04:25.875,24.83,11.5,10.78,0.2,0.42,0.89,-0.57,-2.13,-1.27,31.6,25.81,6.36,0.42,0.51,0.71,-0.15,-16.92,-6.48
425,1900-01-01 12:04:25.971,24.52,12.48,10.74,0.22,0.43,0.91,-0.73,-3.59,-1.6,33.3,26.27,5.35,0.44,0.55,0.71,1.73,-28.18,-8.61
426,1900-01-01 12:04:26.014,23.08,14.5,10.66,0.26,0.41,0.93,-3.87,-5.47,-0.24,36.57,34.48,4.03,0.56,0.59,0.57,-1.84,-30.82,-14.31
427,1900-01-01 12:04:26.108,23.61,15.38,10.78,0.28,0.42,0.92,-4.45,-7.82,3.12,33.52,36.27,1.82,0.58,0.54,0.57,-13.24,-10.55,-22.16
428,1900-01-01 12:04:26.202,24.27,14.3,11.42,0.25,0.41,0.87,3.91,-8.15,1.56,41.86,32.29,-1.6,0.52,0.65,0.51,13.16,6.61,-2.05
429,1900-01-01 12:04:26.249,26.09,16.71,11.81,0.28,0.43,0.83,-0.98,-1.39,1.15,40.61,29.11,-1.92,0.45,0.6,0.54,3.74,15.27,19.13
430,1900-01-01 12:04:26.345,20.31,14.72,12.15,0.25,0.34,0.88,-1.78,3.02,-0.8,32.7,30.41,0.99,0.5,0.54,0.67,6.15,9.15,5.25
431,1900-01-01 12:04:26.438,23.47,13.4,12.18,0.24,0.41,0.91,-3.15,-2.71,-2.66,37.2,32.11,1.78,0.53,0.6,0.59,7.14,-0.99,13.33
432,1900-01-01 12:04:26.486,26.91,14.81,11.94,0.26,0.45,0.86,2.18,0.4,2.43,36.87,33.39,3.81,0.52,0.57,0.55,0.98,-4.51,7.01
433,1900-01-01 12:04:26.579,23.52,14.15,12.46,0.24,0.4,0.88,3.56,1.31,-0.07,36.17,33.32,4.86,0.54,0.58,0.58,6.13,-2.11,3.35
434,1900-01-01 12:04:26.627,25.6,13.63,12.61,0.24,0.44,0.88,-0.35,0.24,0.25,38.41,34.61,5.36,0.55,0.6,0.52,3.26,-1.5,4.72
435,1900-01-01 12:04:26.724,23.51,14.75,12.81,0.25,0.4,0.88,-1.11,1.51,0.78,37.57,34.79,6.07,0.55,0.59,0.53,-3.07,4.7,5.63
436,1900-01-01 12:04:26.813,24.01,13.15,13.08,0.23,0.41,0.89,-2.17,2.44,1.0,35.57,35.97,6.92,0.59,0.58,0.56,-3.29,-0.56,5.24
437,1900-01-01 12:04:26.861,24.22,13.2,13.4,0.23,0.41,0.89,-0.81,1.54,1.08,34.37,35.8,7.7,0.58,0.56,0.57,-1.53,2.11,2.77
438,1900-01-01 12:04:26.953,23.82,13.56,13.72,0.23,0.4,0.88,0.43,2.23,0.41,34.2,37.01,8.12,0.58,0.54,0.54,-1.52,0.15,4.02
439,1900-01-01 12:04:27.049,22.75,13.75,13.94,0.24,0.38,0.88,-0.63,3.04,-0.64,33.34,38.91,8.72,0.6,0.53,0.53,0.7,1.72,7.39
440,1900-01-01 12:04:27.094,21.78,13.66,14.0,0.24,0.38,0.91,-0.86,3.2,-1.89,31.92,39.65,9.83,0.64,0.53,0.56,-1.46,1.87,4.53
441,1900-01-01 12:04:27.188,22.84,12.93,13.87,0.23,0.39,0.91,-1.58,1.19,-1.92,31.62,40.46,10.51,0.64,0.52,0.54,-1.24,2.4,1.95
442,1900-01-01 12:04:27.235,23.66,12.78,13.74,0.22,0.4,0.88,-0.89,0.83,-3.21,33.38,38.89,10.8,0.61,0.53,0.53,-1.23,1.76,0.66
443,1900-01-01 12:04:27.327,23.8,12.78,13.4,0.23,0.41,0.91,-0.11,0.54,-3.32,32.36,39.54,10.89,0.64,0.54,0.56,-0.47,1.22,-0.24
444,1900-01-01 12:04:27.423,23.56,12.62,13.06,0.23,0.42,0.93,-0.38,-1.53,-3.5,32.72,41.62,10.85,0.67,0.55,0.52,0.4,-1.78,-3.07
445,1900-01-01 12:04:27.469,25.01,12.7,12.68,0.22,0.42,0.88,0.96,-0.93,-3.0,35.49,37.97,10.37,0.6,0.56,0.52,0.81,-1.04,-2.98
446,1900-01-01 12:04:27.558,22.12,12.09,12.38,0.21,0.38,0.92,-0.59,-0.78,-3.27,32.26,40.21,9.91,0.65,0.54,0.55,-0.13,1.18,-2.47
447,1900-01-01 12:04:27.652,22.77,12.47,12.04,0.23,0.4,0.94,0.93,-3.3,-5.27,34.93,39.96,9.52,0.67,0.59,0.53,0.93,-0.53,-4.97
448,1900-01-01 12:04:27.700,25.63,13.47,11.39,0.24,0.44,0.89,0.12,-3.01,-3.67,38.0,37.74,8.75,0.63,0.63,0.51,0.64,-2.59,-0.7
449,1900-01-01 12:04:27.794,23.92,13.5,10.99,0.24,0.41,0.89,-0.5,-3.5,-1.81,35.72,39.25,8.64,0.63,0.58,0.51,-0.12,-3.17,-1.38
450,1900-01-01 12:04:27.888,24.19,12.7,10.87,0.22,0.42,0.9,-0.02,-3.95,-1.59,36.02,38.99,8.42,0.64,0.59,0.51,-1.06,-1.82,1.79
451,1900-01-01 12:04:27.935,24.91,13.35,10.79,0.23,0.43,0.89,1.53,-4.53,-0.87,36.96,38.6,8.68,0.61,0.59,0.49,0.35,-0.47,-0.21
452,1900-01-01 12:04:28.027,25.43,14.3,10.81,0.25,0.43,0.87,-0.69,-1.58,-0.74,36.79,39.82,8.64,0.62,0.58,0.47,-0.18,1.45,5.68
453,1900-01-01 12:04:28.073,26.77,14.29,10.86,0.25,0.46,0.88,-2.67,0.43,1.53,38.16,39.49,9.5,0.65,0.63,0.47,-1.95,-0.8,5.07
454,1900-01-01 12:04:28.166,25.36,15.78,11.25,0.27,0.42,0.85,-0.05,-0.02,4.77,35.96,41.15,10.26,0.65,0.58,0.46,-0.15,-1.2,4.19
455,1900-01-01 12:04:28.260,23.85,14.56,12.14,0.25,0.4,0.88,0.24,-2.5,4.31,33.31,43.02,10.89,0.67,0.54,0.47,1.2,-0.57,3.24
456,1900-01-01 12:04:28.308,23.97,15.64,12.95,0.27,0.4,0.87,2.18,-2.37,2.89,34.09,43.28,11.38,0.66,0.54,0.45,2.23,-0.4,1.33
457,1900-01-01 12:04:28.400,24.3,14.85,13.55,0.26,0.42,0.9,-0.05,-1.4,3.24,33.3,42.82,11.57,0.68,0.55,0.49,0.48,1.05,2.16
458,1900-01-01 12:04:28.493,23.53,16.35,14.2,0.29,0.41,0.89,-0.51,-1.85,2.07,34.13,43.68,11.89,0.69,0.56,0.46,0.17,1.53,2.08
459,1900-01-01 12:04:28.541,24.03,16.55,14.67,0.29,0.41,0.88,-3.82,0.43,1.9,31.96,44.39,12.2,0.69,0.52,0.47,-1.85,1.44,0.69
460,1900-01-01 12:04:28.637,21.59,15.41,15.12,0.27,0.37,0.89,-1.6,-2.46,-2.14,32.78,42.64,12.3,0.67,0.54,0.49,1.38,0.21,-1.45
461,1900-01-01 12:04:28.692,24.35,17.06,14.95,0.3,0.42,0.87,-3.27,-1.85,-1.96,36.42,42.67,12.07,0.67,0.59,0.43,-1.71,-0.79,0.35
462,1900-01-01 12:04:28.777,23.05,16.87,14.81,0.3,0.4,0.89,-0.71,-1.44,-1.8,33.02,44.15,12.11,0.7,0.55,0.47,-0.84,-0.92,-2.44
463,1900-01-01 12:04:28.871,23.02,16.99,14.69,0.3,0.4,0.88,0.49,-3.9,-2.93,34.94,43.43,11.73,0.68,0.57,0.44,-0.56,-1.44,-3.08
464,1900-01-01 12:04:28.919,23.91,16.92,14.4,0.29,0.41,0.87,-0.95,-2.05,-2.48,35.35,42.93,11.25,0.68,0.57,0.45,-1.3,-1.02,-2.68
465,1900-01-01 12:04:29.013,23.96,17.45,14.18,0.3,0.4,0.86,-0.67,-2.47,-2.85,35.68,43.33,10.83,0.66,0.56,0.42,-1.45,-1.04,-2.2
466,1900-01-01 12:04:29.106,24.64,17.09,13.9,0.29,0.42,0.86,-0.29,-1.21,-2.9,36.8,42.69,10.48,0.67,0.59,0.42,-2.69,0.73,-2.79
467,1900-01-01 12:04:29.153,23.83,17.45,13.62,0.3,0.41,0.87,0.22,-0.77,-3.53,36.79,42.0,10.05,0.66,0.59,0.43,-1.08,-0.69,-2.66
468,1900-01-01 12:04:29.246,24.29,18.13,13.23,0.31,0.41,0.86,0.77,0.2,-2.77,37.77,42.53,9.63,0.67,0.6,0.4,-1.68,2.02,-1.89
469,1900-01-01 12:04:29.295,24.77,16.96,12.97,0.3,0.42,0.87,-0.34,1.98,-2.6,37.3,41.69,9.34,0.66,0.6,0.43,-2.93,2.78,-0.71
470,1900-01-01 12:04:29.387,25.03,17.33,12.73,0.3,0.42,0.86,0.53,1.46,-2.66,37.76,41.52,9.22,0.65,0.6,0.42,-1.99,2.61,-0.85
471,1900-01-01 12:04:29.481,24.68,16.89,12.49,0.29,0.42,0.87,0.13,0.59,-2.43,37.11,41.73,9.08,0.66,0.6,0.44,-2.37,1.53,-2.64
472,1900-01-01 12:04:29.527,25.5,17.09,12.28,0.3,0.44,0.87,0.88,0.93,-2.48,37.17,42.15,8.67,0.67,0.6,0.43,-1.91,2.47,-0.82
473,1900-01-01 12:04:29.621,25.25,16.28,12.06,0.29,0.44,0.88,0.68,0.31,-2.73,38.09,40.63,8.54,0.66,0.62,0.45,-1.64,2.13,-2.13
474,1900-01-01 12:04:29.714,25.29,14.96,11.8,0.26,0.43,0.87,0.56,0.99,-2.28,37.7,40.25,8.21,0.64,0.61,0.45,-1.68,1.75,-1.53
475,1900-01-01 12:04:29.761,25.73,16.16,11.61,0.28,0.44,0.86,0.89,0.67,-3.14,38.73,39.95,7.96,0.63,0.62,0.44,-1.27,2.66,-1.76
476,1900-01-01 12:04:29.855,26.05,15.58,11.29,0.27,0.45,0.87,0.61,1.0,-1.37,38.43,39.91,7.69,0.64,0.62,0.45,-2.07,2.67,-0.96
477,1900-01-01 12:04:29.902,26.26,15.35,11.24,0.27,0.45,0.86,0.16,0.83,-2.28,38.05,40.62,7.53,0.64,0.61,0.44,-2.32,2.76,-1.53
478,1900-01-01 12:04:29.994,27.34,15.03,11.06,0.26,0.46,0.86,0.4,1.24,-1.69,40.03,37.78,7.29,0.61,0.64,0.46,-1.5,1.92,-0.73
479,1900-01-01 12:04:30.089,26.87,14.87,10.96,0.26,0.45,0.86,1.49,1.15,-1.28,38.52,39.25,7.17,0.63,0.62,0.46,-1.78,3.21,-1.16
480,1900-01-01 12:04:30.134,26.4,14.67,10.92,0.25,0.45,0.86,0.03,1.62,-1.42,38.69,38.96,6.99,0.62,0.62,0.46,-2.01,2.98,-0.77
481,1900-01-01 12:04:30.230,26.36,13.42,10.86,0.24,0.45,0.88,-0.44,1.96,-1.41,38.03,39.07,6.86,0.63,0.61,0.47,-2.05,3.85,-0.6
482,1900-01-01 12:04:30.322,27.31,14.53,10.81,0.26,0.47,0.87,-0.09,1.77,-0.89,38.65,38.56,6.76,0.63,0.63,0.47,-1.82,3.22,0.15
483,1900-01-01 12:04:30.370,27.89,14.3,10.83,0.25,0.47,0.86,1.02,1.59,-0.21,39.68,38.06,6.77,0.61,0.63,0.45,-2.5,4.04,0.95
484,1900-01-01 12:04:30.463,27.22,12.52,10.96,0.22,0.46,0.87,-0.63,2.15,0.09,37.32,38.18,6.91,0.62,0.61,0.5,-2.12,3.18,0.88
485,1900-01-01 12:04:30.509,27.33,13.18,11.13,0.23,0.46,0.87,0.88,0.21,-0.31,38.19,38.35,7.03,0.61,0.61,0.47,-1.0,2.86,-0.65
486,1900-01-01 12:04:30.635,27.45,12.73,11.24,0.22,0.47,0.87,-0.79,1.44,-0.18,38.16,37.58,6.93,0.61,0.62,0.5,-2.01,2.93,0.78
487,1900-01-01 12:04:30.697,27.68,12.72,11.37,0.22,0.47,0.87,0.13,0.99,-0.02,38.47,37.16,7.04,0.6,0.62,0.5,-1.83,3.18,0.54
488,1900-01-01 12:04:30.744,27.0,12.64,11.53,0.22,0.46,0.87,-1.15,1.55,0.27,36.71,38.12,7.11,0.61,0.59,0.5,-1.81,3.49,0.53
489,1900-01-01 12:04:30.837,26.8,12.0,11.73,0.21,0.45,0.87,-0.35,-0.07,-0.73,37.07,37.83,7.18,0.6,0.59,0.5,-0.84,1.67,0.25
490,1900-01-01 12:04:30.932,27.13,11.49,11.77,0.2,0.46,0.87,-0.27,0.38,-1.38,37.3,37.25,7.21,0.6,0.6,0.51,-1.41,2.26,0.12
491,1900-01-01 12:04:30.977,27.32,12.33,11.72,0.21,0.46,0.87,-0.81,0.76,-2.05,38.2,37.23,7.22,0.6,0.61,0.49,-1.89,3.21,-0.24
492,1900-01-01 12:04:31.074,27.11,12.29,11.57,0.21,0.46,0.87,-0.84,0.94,-1.89,38.34,36.6,7.18,0.59,0.62,0.51,-1.79,3.47,-0.47
493,1900-01-01 12:04:31.119,26.87,12.56,11.44,0.22,0.46,0.87,0.09,0.26,-1.95,37.4,37.53,7.1,0.61,0.61,0.51,-0.55,2.66,-1.27
494,1900-01-01 12:04:31.214,27.31,12.3,11.3,0.22,0.47,0.87,-0.89,-0.12,-1.35,38.29,36.66,6.89,0.6,0.62,0.51,-1.03,1.44,-0.46
495,1900-01-01 12:04:31.306,26.13,11.87,11.25,0.21,0.45,0.89,0.18,-2.27,-1.94,37.55,36.83,6.82,0.6,0.61,0.52,1.58,-0.34,-4.19
496,1900-01-01 12:04:31.352,27.8,12.52,11.12,0.22,0.47,0.86,0.44,-2.53,-2.15,39.67,35.67,6.17,0.57,0.62,0.49,-0.51,0.56,-2.45
497,1900-01-01 12:04:31.445,27.42,12.45,10.95,0.22,0.47,0.88,-0.92,-1.82,-1.91,39.28,35.75,5.79,0.58,0.63,0.51,-0.85,-0.18,-1.96
498,1900-01-01 12:04:31.540,27.56,12.57,10.81,0.22,0.47,0.87,-0.2,-2.05,-1.66,39.94,35.89,5.48,0.59,0.64,0.5,-1.27,0.18,-1.31
499,1900-01-01 12:04:31.587,27.11,13.57,10.72,0.24,0.46,0.87,-1.2,-1.94,-1.11,38.92,36.65,5.27,0.59,0.63,0.5,-1.18,-0.24,-0.78
500,1900-01-01 12:04:31.681,28.09,12.97,10.71,0.22,0.47,0.85,-0.21,-2.27,-1.24,40.85,35.43,5.14,0.57,0.65,0.48,0.24,-1.56,0.53
501,1900-01-01 12:04:31.729,27.89,12.68,10.68,0.22,0.47,0.86,0.47,-2.08,-1.06,40.17,35.94,5.21,0.58,0.64,0.48,0.05,-1.95,-0.63
502,1900-01-01 12:04:31.822,28.0,12.71,10.67,0.22,0.47,0.85,-0.68,-2.27,-0.56,40.55,36.2,5.11,0.57,0.63,0.46,-1.46,-0.61,0.21
503,1900-01-01 12:04:31.917,27.54,13.64,10.75,0.24,0.46,0.86,-1.37,-0.38,-0.73,40.08,36.55,5.13,0.59,0.64,0.47,-2.09,1.19,1.18
504,1900-01-01 12:04:31.961,28.22,13.91,10.79,0.24,0.47,0.85,-1.4,-0.43,-0.11,39.64,37.41,5.3,0.59,0.62,0.46,-1.32,0.92,0.59
505,1900-01-01 12:04:32.057,28.2,14.23,10.94,0.24,0.47,0.84,-0.63,0.32,-0.76,40.23,37.52,5.38,0.58,0.61,0.44,0.89,-0.9,1.28
506,1900-01-01 12:04:32.149,25.8,13.49,10.98,0.24,0.45,0.89,-3.85,-1.19,-0.83,37.4,37.99,5.57,0.63,0.62,0.51,-2.0,6.25,-3.08
507,1900-01-01 12:04:32.195,28.18,14.3,11.01,0.26,0.49,0.88,-1.31,-1.31,-0.43,39.8,37.99,5.09,0.62,0.65,0.46,-1.66,3.38,-0.58
508,1900-01-01 12:04:32.290,27.77,15.58,11.1,0.27,0.47,0.85,0.68,-0.27,-1.08,41.28,36.1,4.99,0.59,0.66,0.47,-3.48,1.76,-0.01
509,1900-01-01 12:04:32.338,26.63,14.72,11.1,0.26,0.45,0.87,-0.16,-0.51,0.25,39.64,36.76,4.98,0.59,0.63,0.48,-2.4,5.2,-0.6
510,1900-01-01 12:04:32.433,28.21,12.89,11.29,0.22,0.47,0.86,-0.63,-1.08,-0.73,40.76,33.67,4.89,0.55,0.64,0.51,-1.02,0.18,0.25
511,1900-01-01 12:04:32.524,27.17,12.68,11.34,0.22,0.45,0.86,-1.8,0.28,0.0,38.34,35.55,4.92,0.56,0.6,0.51,-2.8,1.89,2.08
512,1900-01-01 12:04:32.572,26.77,12.92,11.5,0.23,0.46,0.88,-1.26,0.28,-1.35,38.63,35.96,5.22,0.59,0.63,0.52,-1.64,1.82,0.66
513,1900-01-01 12:04:32.666,25.77,15.57,11.45,0.28,0.45,0.88,-2.07,0.53,-0.85,38.6,38.15,5.32,0.62,0.62,0.48,-1.22,3.75,1.88
514,1900-01-01 12:04:32.760,27.52,12.74,11.48,0.23,0.47,0.88,-2.2,2.09,-0.52,39.78,33.83,5.59,0.57,0.66,0.54,-4.59,6.1,1.41
515,1900-01-01 12:04:32.807,25.64,10.8,11.56,0.18,0.42,0.85,-2.04,-0.48,0.7,36.19,35.99,5.8,0.55,0.55,0.51,-0.75,1.94,0.85
516,1900-01-01 12:04:32.899,27.49,11.75,11.83,0.2,0.46,0.86,-2.31,0.36,-0.77,39.03,33.5,5.92,0.54,0.61,0.53,-1.2,1.15,1.75
517,1900-01-01 12:04:32.947,26.51,10.92,11.87,0.19,0.45,0.87,-0.7,0.08,-0.18,37.75,33.74,6.18,0.54,0.59,0.55,-1.03,1.22,1.02
518,1900-01-01 12:04:33.041,25.78,12.37,12.0,0.22,0.44,0.88,-0.89,-0.18,-0.92,37.32,36.39,6.33,0.58,0.6,0.52,-1.54,0.12,1.57
519,1900-01-01 12:04:33.133,26.72,14.49,12.02,0.26,0.46,0.88,-1.94,0.47,-1.28,38.43,37.62,6.56,0.61,0.62,0.49,-1.84,-0.4,3.29
520,1900-01-01 12:04:33.181,25.99,15.38,11.98,0.27,0.44,0.87,0.92,-0.65,-0.5,36.66,39.28,7.05,0.63,0.59,0.49,-0.91,-1.98,0.66
521,1900-01-01 12:04:33.275,27.04,14.77,12.06,0.26,0.46,0.87,1.7,-3.21,-0.69,37.94,37.13,7.14,0.6,0.61,0.5,-1.92,0.48,-1.54
522,1900-01-01 12:04:33.371,27.56,14.05,12.12,0.25,0.48,0.88,0.42,-3.7,-0.15,36.99,39.21,6.9,0.63,0.6,0.48,-2.5,0.15,-1.36
523,1900-01-01 12:04:33.416,28.07,14.0,12.25,0.24,0.47,0.84,1.87,-2.4,-0.37,37.91,36.31,6.68,0.58,0.6,0.51,-0.65,-2.48,0.12
524,1900-01-01 12:04:33.509,26.11,16.36,12.35,0.28,0.44,0.85,0.97,-2.25,-0.26,37.96,38.2,6.69,0.61,0.6,0.48,0.32,0.54,-1.88
525,1900-01-01 12:04:33.554,25.3,17.49,12.47,0.3,0.43,0.86,-0.63,0.63,-1.37,36.39,40.48,6.4,0.64,0.58,0.47,1.5,-2.05,1.36
526,1900-01-01 12:04:33.649,26.25,16.68,12.42,0.29,0.45,0.86,-2.04,1.37,-1.81,37.07,40.16,6.6,0.64,0.6,0.47,1.37,-2.44,2.02
527,1900-01-01 12:04:33.742,27.89,14.33,12.31,0.25,0.48,0.87,-0.05,1.44,-1.85,38.1,39.54,6.9,0.64,0.62,0.47,3.34,-5.6,-0.83
528,1900-01-01 12:04:33.789,27.52,13.61,12.18,0.24,0.46,0.86,1.98,0.56,-1.44,38.29,39.3,6.76,0.63,0.61,0.46,8.12,-5.55,-5.85
529,1900-01-01 12:04:33.883,28.15,11.89,12.12,0.21,0.48,0.86,-0.37,-0.98,-0.76,41.36,37.67,5.86,0.61,0.66,0.43,3.06,-1.6,-3.34
530,1900-01-01 12:04:33.979,27.03,13.23,12.17,0.24,0.47,0.89,3.97,-1.74,-1.32,39.48,40.01,5.34,0.64,0.63,0.43,5.76,1.37,-5.03
531,1900-01-01 12:04:34.024,28.01,13.05,12.12,0.23,0.48,0.87,-0.02,-2.37,-0.12,40.51,39.41,4.57,0.62,0.64,0.41,-1.53,2.5,-0.78
532,1900-01-01 12:04:34.117,29.61,13.73,12.26,0.24,0.5,0.84,-2.57,-0.48,0.29,41.45,38.72,4.44,0.6,0.64,0.4,-6.11,2.66,-1.18
533,1900-01-01 12:04:34.164,28.66,12.79,12.47,0.22,0.49,0.86,-2.47,2.69,-1.4,41.89,38.32,4.25,0.63,0.68,0.42,-3.89,1.82,4.59
534,1900-01-01 12:04:34.258,28.47,15.11,12.41,0.26,0.48,0.85,-0.21,-0.45,-1.79,42.95,37.65,4.94,0.61,0.68,0.4,-1.18,3.91,0.5
535,1900-01-01 12:04:34.353,28.91,14.11,12.3,0.25,0.49,0.86,-6.34,-0.08,1.32,39.9,40.08,5.01,0.64,0.64,0.42,-28.09,9.88,11.92
536,1900-01-01 12:04:34.400,27.7,13.95,12.66,0.24,0.47,0.86,-0.98,1.46,0.72,36.48,38.89,6.82,0.62,0.58,0.49,-20.12,9.21,1.34
537,1900-01-01 12:04:34.494,26.14,14.8,12.92,0.26,0.45,0.88,-9.98,2.01,3.51,26.14,40.98,7.02,0.65,0.43,0.6,-20.36,6.32,11.51
538,1900-01-01 12:04:34.587,26.24,12.63,13.62,0.23,0.46,0.9,5.89,-1.13,-1.53,31.33,37.37,8.77,0.62,0.53,0.61,9.89,-1.38,-1.34
539,1900-01-01 12:04:34.635,26.18,13.86,13.54,0.24,0.45,0.88,-2.02,-1.15,-0.99,32.77,41.43,8.55,0.65,0.53,0.51,4.74,1.56,1.07
540,1900-01-01 12:04:34.727,26.29,13.68,13.55,0.23,0.44,0.85,1.71,-0.43,-0.59,35.29,37.44,8.71,0.59,0.56,0.53,-0.1,-1.47,-2.06
541,1900-01-01 12:04:34.775,25.28,13.99,13.62,0.24,0.42,0.86,-2.69,-0.02,-1.27,32.02,40.62,8.38,0.63,0.51,0.52,3.34,1.67,-1.52
542,1900-01-01 12:04:34.870,23.32,12.38,13.58,0.22,0.41,0.93,1.48,-1.63,-4.07,31.93,40.42,8.14,0.67,0.55,0.57,20.13,-4.89,-8.47
543,1900-01-01 12:04:34.963,26.71,14.86,13.12,0.26,0.45,0.86,9.61,-3.6,-6.6,43.3,36.25,6.84,0.59,0.69,0.43,19.69,-9.26,-17.43
544,1900-01-01 12:04:35.012,29.26,13.88,12.27,0.24,0.5,0.85,1.88,-2.31,-2.15,45.23,36.97,4.16,0.6,0.7,0.36,5.31,-2.31,-7.41
545,1900-01-01 12:04:35.104,27.41,13.87,12.1,0.24,0.47,0.86,-0.63,-1.29,-0.5,42.74,37.46,3.02,0.62,0.69,0.42,-0.95,-2.7,-1.62
546,1900-01-01 12:04:35.198,28.09,14.36,12.18,0.25,0.47,0.85,0.72,-2.6,-1.72,43.98,36.69,2.77,0.58,0.68,0.39,-3.87,0.14,-4.01
547,1900-01-01 12:04:35.244,27.85,14.77,12.08,0.26,0.47,0.85,-2.1,-1.5,-1.53,43.02,37.53,2.15,0.6,0.68,0.4,-4.47,0.29,-2.95
548,1900-01-01 12:04:35.337,27.82,15.2,12.0,0.26,0.47,0.85,0.47,-1.13,-2.12,45.26,35.75,1.69,0.59,0.72,0.4,0.54,0.95,1.44
549,1900-01-01 12:04:35.385,27.98,15.65,11.84,0.27,0.48,0.86,2.21,-1.24,-1.56,43.62,36.79,1.9,0.6,0.69,0.41,2.02,-0.02,2.11
550,1900-01-01 12:04:35.481,29.81,14.12,11.76,0.25,0.5,0.84,0.73,-1.37,0.15,44.65,36.26,2.21,0.59,0.7,0.39,-0.51,1.16,2.01
551,1900-01-01 12:04:35.574,28.09,14.58,11.94,0.25,0.47,0.84,-1.66,-0.79,-0.1,42.15,37.89,2.51,0.6,0.65,0.4,-1.13,-0.48,1.79
552,1900-01-01 12:04:35.619,29.05,14.84,12.08,0.25,0.48,0.83,0.45,-1.56,-1.55,44.37,36.96,2.77,0.58,0.68,0.37,-0.31,2.47,-0.62
553,1900-01-01 12:04:35.711,28.96,15.27,12.0,0.27,0.49,0.85,-1.08,-0.08,-0.72,43.4,37.92,2.67,0.62,0.69,0.39,-2.49,2.53,0.5
554,1900-01-01 12:04:35.805,28.75,15.61,12.05,0.27,0.48,0.84,-0.73,-0.53,-0.79,43.56,37.05,2.74,0.59,0.68,0.4,-1.3,2.11,-0.45
555,1900-01-01 12:04:35.853,28.91,15.03,12.09,0.26,0.48,0.84,-0.83,-0.11,-1.23,43.14,37.36,2.66,0.59,0.67,0.4,-1.16,1.08,0.23
556,1900-01-01 12:04:35.946,29.09,14.76,12.06,0.26,0.49,0.84,-0.05,-1.09,-1.55,43.6,37.2,2.68,0.59,0.68,0.39,0.25,0.33,-1.02
557,1900-01-01 12:04:35.992,29.17,14.62,11.98,0.25,0.48,0.82,2.8,-1.22,-2.47,44.62,36.46,2.52,0.57,0.68,0.38,2.34,0.15,-2.84
558,1900-01-01 12:04:36.091,29.12,15.28,11.77,0.27,0.49,0.85,0.18,0.97,-1.5,43.44,38.15,2.08,0.62,0.69,0.38,-1.62,0.46,0.39
559,1900-01-01 12:04:36.179,29.37,15.02,11.7,0.27,0.51,0.86,-0.27,-0.08,-2.26,45.01,36.9,2.13,0.61,0.72,0.38,-0.81,1.49,-0.41
560,1900-01-01 12:04:36.224,30.49,15.32,11.51,0.26,0.5,0.81,-0.87,2.6,-0.4,45.81,35.6,2.06,0.57,0.7,0.38,-2.79,1.71,0.96
561,1900-01-01 12:04:36.317,28.56,14.23,11.61,0.25,0.48,0.85,-1.16,1.89,-0.78,42.79,38.07,2.2,0.61,0.68,0.4,-1.18,2.21,1.1
562,1900-01-01 12:04:36.410,29.96,14.81,11.65,0.26,0.51,0.85,-1.71,1.17,-0.17,44.7,37.53,2.36,0.61,0.71,0.37,-2.41,2.86,2.26
563,1900-01-01 12:04:36.458,28.73,14.49,11.78,0.26,0.49,0.86,-1.63,1.34,-0.11,41.6,39.03,2.69,0.63,0.67,0.41,-2.57,2.27,1.66
564,1900-01-01 12:04:36.552,30.14,13.9,11.92,0.24,0.51,0.84,-0.15,-0.58,-0.25,43.62,37.27,2.93,0.6,0.68,0.39,-2.51,0.91,0.4
565,1900-01-01 12:04:36.646,29.32,13.66,12.04,0.24,0.49,0.84,-1.01,-0.95,-0.46,42.99,37.34,2.99,0.6,0.67,0.4,-2.89,3.1,-0.36
566,1900-01-01 12:04:36.693,28.43,14.34,12.13,0.25,0.48,0.85,-0.82,-0.55,-0.7,43.0,37.87,2.92,0.63,0.7,0.41,-2.62,0.94,-0.48
567,1900-01-01 12:04:36.787,29.16,14.72,12.18,0.26,0.49,0.84,-0.34,-1.55,-0.72,42.36,37.06,2.84,0.58,0.65,0.41,-3.47,3.56,-1.42
568,1900-01-01 12:04:36.832,30.23,14.67,12.23,0.25,0.5,0.82,-0.11,-0.5,-1.13,43.58,36.59,2.62,0.57,0.66,0.4,0.11,0.23,-1.92
569,1900-01-01 12:04:36.926,28.61,14.7,12.22,0.26,0.48,0.85,-1.14,1.82,-0.7,43.21,37.12,2.31,0.61,0.69,0.41,0.32,0.17,1.53
570,1900-01-01 12:04:37.020,29.16,14.3,12.27,0.25,0.49,0.85,1.01,-0.31,-1.31,43.71,36.98,2.54,0.6,0.69,0.4,0.11,0.63,0.31
571,1900-01-01 12:04:37.067,28.87,14.19,12.23,0.25,0.49,0.85,-0.39,-0.27,-0.76,44.15,36.7,2.58,0.6,0.7,0.4,-1.03,0.64,0.08
572,1900-01-01 12:04:37.159,31.11,14.46,12.27,0.25,0.52,0.82,-0.63,0.75,2.53,45.27,36.67,2.58,0.58,0.69,0.36,-4.34,5.18,6.89
573,1900-01-01 12:04:37.209,27.78,14.37,12.81,0.25,0.46,0.84,-0.26,3.49,2.74,39.04,39.32,3.62,0.63,0.62,0.44,0.27,5.2,1.83
574,1900-01-01 12:04:37.301,29.13,14.12,13.39,0.24,0.49,0.84,-0.46,0.91,1.18,42.86,37.29,3.89,0.59,0.66,0.4,1.99,6.04,4.44
575,1900-01-01 12:04:37.394,28.4,15.37,13.72,0.27,0.48,0.84,-4.61,3.11,1.44,40.0,39.2,4.55,0.63,0.64,0.43,-0.89,4.29,3.4
576,1900-01-01 12:04:37.441,28.67,14.24,14.1,0.25,0.48,0.85,-1.79,1.21,0.52,41.83,38.41,5.06,0.61,0.66,0.41,-0.36,2.83,2.14
577,1900-01-01 12:04:37.535,28.28,13.9,14.34,0.24,0.47,0.85,-0.94,1.73,0.87,41.37,38.19,5.37,0.61,0.65,0.42,-0.56,4.01,1.41
578,1900-01-01 12:04:37.627,27.93,13.04,14.63,0.23,0.47,0.87,-1.12,1.23,1.37,40.22,38.56,5.58,0.63,0.65,0.44,-0.95,3.37,2.44
579,1900-01-01 12:04:37.675,28.45,13.01,14.99,0.23,0.48,0.86,-0.21,1.11,1.01,41.49,37.71,5.94,0.62,0.67,0.44,-0.51,4.29,3.41
580,1900-01-01 12:04:37.768,27.96,13.29,15.31,0.23,0.48,0.87,-0.98,0.35,2.03,38.81,39.5,6.45,0.64,0.63,0.45,-0.44,4.79,2.92
581,1900-01-01 12:04:37.815,27.93,13.98,15.77,0.24,0.47,0.86,-2.43,0.18,0.9,38.91,39.26,6.88,0.62,0.62,0.45,-0.81,4.17,5.42
582,1900-01-01 12:04:37.908,27.5,14.24,16.07,0.24,0.46,0.85,-1.12,-0.1,-1.04,40.51,38.88,7.7,0.62,0.64,0.42,0.56,3.05,2.39
583,1900-01-01 12:04:38.004,27.62,13.79,16.07,0.24,0.47,0.87,-1.32,-0.39,0.4,38.56,40.07,8.05,0.65,0.63,0.45,-0.92,0.47,2.68
584,1900-01-01 12:04:38.049,27.46,14.24,16.29,0.25,0.46,0.85,0.26,-0.79,-0.24,39.52,39.01,8.45,0.62,0.62,0.44,-0.28,1.68,1.11
585,1900-01-01 12:04:38.144,27.01,13.41,16.41,0.24,0.46,0.87,-1.03,-0.6,-0.38,38.5,39.77,8.61,0.64,0.62,0.45,-0.94,2.81,1.44
586,1900-01-01 12:04:38.236,27.3,13.26,16.51,0.23,0.46,0.86,-1.16,-0.07,-0.56,38.4,40.32,8.82,0.63,0.61,0.43,-1.51,2.31,0.57
587,1900-01-01 12:04:38.284,27.94,13.77,16.58,0.24,0.48,0.86,-1.36,0.12,-0.98,40.05,38.72,8.9,0.63,0.65,0.45,-1.54,3.0,0.83
588,1900-01-01 12:04:38.377,27.12,14.59,16.59,0.26,0.46,0.87,-0.84,-0.21,-0.47,38.4,40.21,9.02,0.64,0.62,0.44,-1.6,1.77,0.47
589,1900-01-01 12:04:38.424,27.27,13.34,16.68,0.24,0.47,0.88,-1.14,-0.06,-0.34,38.55,40.37,9.08,0.66,0.63,0.44,-4.21,4.95,0.24
590,1900-01-01 12:04:38.518,26.92,14.25,16.79,0.24,0.45,0.84,1.57,-2.37,-1.85,39.66,36.6,9.11,0.58,0.62,0.48,1.02,2.37,-1.17
591,1900-01-01 12:04:38.611,27.57,14.75,16.66,0.25,0.46,0.84,-2.47,0.07,-0.96,38.29,38.44,8.93,0.59,0.59,0.46,-0.06,-1.47,-1.68
592,1900-01-01 12:04:38.658,26.81,13.97,16.67,0.24,0.45,0.87,-0.85,0.86,-1.21,39.84,38.39,8.66,0.62,0.64,0.45,0.18,-0.81,0.06
593,1900-01-01 12:04:38.752,26.38,14.35,16.65,0.25,0.45,0.87,-0.83,-0.53,-1.21,38.96,40.0,8.66,0.64,0.62,0.43,0.11,-0.18,0.1
594,1900-01-01 12:04:38.845,27.65,13.7,16.62,0.24,0.47,0.86,-0.25,-0.05,-1.33,39.19,39.23,8.67,0.63,0.63,0.44,-1.25,1.11,0.32
595,1900-01-01 12:04:38.891,26.64,13.91,16.58,0.24,0.45,0.87,-1.04,-0.58,-1.93,38.58,39.47,8.71,0.63,0.62,0.45,-1.33,0.88,-1.03
596,1900-01-01 12:04:38.987,27.17,13.86,16.44,0.24,0.46,0.86,-0.52,-0.71,-1.82,39.13,39.13,8.54,0.61,0.61,0.44,-1.89,-0.31,-1.95
597,1900-01-01 12:04:39.033,27.03,13.79,16.32,0.24,0.45,0.85,0.32,0.66,-2.86,43.34,36.63,8.24,0.6,0.7,0.42,-8.91,4.22,1.06
598,1900-01-01 12:04:39.128,26.28,14.19,16.05,0.25,0.45,0.88,-1.86,0.93,-1.82,35.67,41.41,8.39,0.68,0.6,0.48,-5.63,1.9,1.1
599,1900-01-01 12:04:39.220,26.95,12.61,15.93,0.23,0.47,0.9,0.07,-3.56,-2.29,36.86,39.46,8.55,0.65,0.62,0.5,-1.23,0.66,-2.09
600,1900-01-01 12:04:39.267,28.89,13.95,15.74,0.23,0.47,0.81,1.33,-0.41,-2.68,42.38,36.37,8.22,0.56,0.64,0.42,-1.02,-2.75,-1.38
601,1900-01-01 12:04:39.360,25.58,13.57,15.48,0.23,0.43,0.86,-2.56,1.71,-1.89,37.51,39.16,8.0,0.62,0.6,0.47,-1.21,-0.09,-0.44
602,1900-01-01 12:04:39.456,26.43,13.54,15.35,0.25,0.47,0.91,-1.27,-1.41,-1.92,37.42,41.29,7.92,0.69,0.64,0.46,-2.92,2.89,-1.1
603,1900-01-01 12:04:39.504,28.7,15.45,15.22,0.26,0.47,0.82,3.54,-2.66,-1.94,42.63,35.45,7.75,0.55,0.65,0.43,2.28,-3.1,-3.63
604,1900-01-01 12:04:39.596,27.11,13.31,15.08,0.23,0.45,0.85,-4.68,2.37,-0.69,39.1,39.71,7.19,0.63,0.62,0.43,-3.34,-0.05,1.82
605,1900-01-01 12:04:39.688,25.8,13.55,15.13,0.25,0.46,0.91,1.18,-2.76,-1.63,37.1,39.61,7.46,0.65,0.61,0.49,2.07,1.26,-3.57
606,1900-01-01 12:04:39.737,29.35,13.91,15.04,0.24,0.49,0.83,-0.77,-1.34,-0.57,41.83,38.46,6.9,0.59,0.63,0.39,-1.34,-1.11,0.99
607,1900-01-01 12:04:39.829,26.18,12.87,15.11,0.22,0.45,0.88,-2.78,1.4,-0.67,38.14,39.82,7.05,0.65,0.62,0.46,-2.42,1.14,0.45
608,1900-01-01 12:04:39.875,27.22,14.61,15.17,0.27,0.48,0.9,1.11,-2.46,-0.95,38.49,39.76,7.11,0.65,0.64,0.46,-1.45,2.21,-2.1
609,1900-01-01 12:04:39.970,29.12,13.75,15.18,0.24,0.48,0.83,0.4,-0.54,-0.23,41.78,37.55,6.78,0.59,0.65,0.42,-1.95,-0.53,0.71
610,1900-01-01 12:04:40.062,27.59,13.36,15.31,0.23,0.47,0.86,-1.63,-0.06,-0.84,39.93,38.85,6.88,0.63,0.65,0.45,-1.92,0.18,-0.97
611,1900-01-01 12:04:40.110,27.19,14.9,15.34,0.26,0.47,0.88,1.34,-1.09,-1.32,40.03,38.67,6.72,0.64,0.66,0.45,-0.24,1.14,-1.81
612,1900-01-01 12:04:40.203,27.26,13.83,15.29,0.24,0.46,0.86,0.22,-1.61,0.38,39.32,38.87,6.44,0.61,0.62,0.44,-1.69,1.63,-1.6
613,1900-01-01 12:04:40.250,26.82,13.98,15.51,0.24,0.45,0.86,-1.13,-0.37,-0.49,39.31,38.56,6.18,0.61,0.62,0.45,-1.94,2.24,0.11
614,1900-01-01 12:04:40.343,26.7,13.84,15.59,0.24,0.45,0.86,-1.4,-0.78,-1.44,39.12,38.3,6.19,0.62,0.63,0.46,0.93,0.75,-0.11
615,1900-01-01 12:04:40.438,26.93,14.56,15.53,0.25,0.45,0.86,2.47,-1.4,-3.53,37.97,39.36,6.17,0.61,0.59,0.45,9.64,-1.85,-3.64
616,1900-01-01 12:04:40.485,28.56,14.12,15.15,0.25,0.49,0.86,1.36,-3.24,-4.01,43.06,37.2,5.6,0.61,0.69,0.42,-0.5,-0.76,-3.56
617,1900-01-01 12:04:40.578,29.01,14.79,14.7,0.26,0.5,0.86,-0.44,-2.63,-4.89,42.03,38.18,5.05,0.63,0.68,0.42,-3.76,-1.97,-2.56
618,1900-01-01 12:04:40.673,28.45,14.88,14.11,0.26,0.48,0.86,3.77,-4.66,-5.85,40.84,38.36,4.65,0.62,0.65,0.43,5.98,-4.85,-8.63
619,1900-01-01 12:04:40.720,29.38,15.73,13.37,0.27,0.49,0.83,4.1,-6.89,-5.19,44.99,37.01,3.33,0.6,0.7,0.37,3.99,-3.31,-6.71
620,1900-01-01 12:04:40.813,30.51,15.69,12.74,0.27,0.51,0.82,3.33,-4.94,-5.11,46.4,36.37,2.29,0.59,0.72,0.35,3.45,-6.67,-7.13
621,1900-01-01 12:04:40.861,32.43,15.67,12.12,0.27,0.54,0.81,1.18,-4.49,-3.55,50.59,32.83,1.2,0.55,0.79,0.34,0.06,-3.56,-1.31
622,1900-01-01 12:04:40.952,32.06,15.49,11.74,0.27,0.54,0.82,0.08,-1.69,-0.17,47.86,36.27,0.99,0.59,0.74,0.32,-3.44,1.21,1.24
623,1900-01-01 12:04:41.045,30.51,16.07,11.87,0.27,0.5,0.81,-0.85,-1.37,-0.07,45.75,36.68,1.17,0.58,0.69,0.35,-3.31,1.73,0.47
624,1900-01-01 12:04:41.094,31.99,16.99,12.02,0.29,0.53,0.8,-1.55,-0.07,-0.46,47.26,35.66,1.23,0.58,0.73,0.34,-5.79,2.62,1.59
625,1900-01-01 12:04:41.187,31.19,15.78,12.11,0.28,0.53,0.83,-0.55,-1.29,0.65,45.68,35.31,1.47,0.58,0.72,0.4,-4.06,4.5,-1.37
626,1900-01-01 12:04:41.282,31.84,17.7,12.36,0.3,0.51,0.77,2.24,-1.28,0.32,48.01,34.67,1.25,0.54,0.7,0.33,0.47,-2.62,-0.92
627,1900-01-01 12:04:41.327,31.69,16.88,12.57,0.29,0.52,0.79,1.5,3.65,1.17,48.23,34.96,1.1,0.57,0.74,0.34,0.04,1.35,8.89
628,1900-01-01 12:04:41.423,31.0,16.43,12.91,0.29,0.53,0.83,-3.84,2.86,4.6,41.48,40.19,2.44,0.63,0.65,0.37,-1.27,3.23,5.38
629,1900-01-01 12:04:41.514,31.29,16.54,13.76,0.29,0.53,0.83,0.18,1.42,3.53,43.89,38.47,3.24,0.62,0.69,0.36,-0.62,3.92,4.11
630,1900-01-01 12:04:41.560,30.93,17.37,14.46,0.3,0.52,0.82,0.47,3.78,2.37,43.28,39.46,3.86,0.63,0.68,0.35,-0.85,6.11,4.65
631,1900-01-01 12:04:41.655,30.25,15.85,14.97,0.28,0.51,0.84,-2.06,2.27,2.41,42.15,39.02,4.55,0.63,0.68,0.39,0.73,5.29,6.47
632,1900-01-01 12:04:41.702,30.48,15.45,15.5,0.27,0.52,0.84,-1.21,1.82,2.92,42.7,38.76,5.53,0.63,0.68,0.39,-0.78,3.22,5.26
633,1900-01-01 12:04:41.795,29.37,15.3,16.1,0.27,0.5,0.85,-5.69,-0.39,3.44,36.15,43.11,6.32,0.67,0.58,0.42,-5.99,4.66,-2.5
634,1900-01-01 12:04:41.889,29.85,16.64,16.78,0.29,0.5,0.83,1.15,-1.41,-1.37,43.59,36.88,5.93,0.59,0.68,0.4,-1.69,3.53,-0.02
635,1900-01-01 12:04:41.935,29.87,17.2,16.73,0.29,0.49,0.8,-1.74,-0.47,-2.33,41.78,38.21,5.91,0.59,0.63,0.39,0.04,-2.85,-1.43
636,1900-01-01 12:04:42.028,28.77,15.51,16.53,0.27,0.48,0.84,-3.17,0.64,-2.31,42.01,40.21,5.69,0.65,0.67,0.37,0.95,-1.71,0.4
637,1900-01-01 12:04:42.076,29.71,18.0,16.34,0.31,0.5,0.83,-2.31,-0.4,-3.4,42.95,39.27,5.74,0.63,0.68,0.37,-1.14,-2.01,-5.11
638,1900-01-01 12:04:42.171,29.5,16.35,15.98,0.29,0.5,0.84,1.28,-1.06,-2.93,44.12,38.25,4.95,0.62,0.7,0.36,0.15,-2.89,-7.02
639,1900-01-01 12:04:42.263,26.79,16.42,15.69,0.28,0.45,0.85,-0.25,-2.37,-4.6,41.61,39.98,3.87,0.63,0.66,0.38,-1.94,-1.09,-5.6
640,1900-01-01 12:04:42.311,30.58,15.88,15.14,0.28,0.52,0.84,2.02,-2.24,-5.24,47.05,36.05,3.0,0.59,0.74,0.35,-1.02,-1.21,-4.73
641,1900-01-01 12:04:42.403,30.5,15.58,14.5,0.27,0.52,0.84,-0.63,-1.92,-3.29,45.98,36.14,2.27,0.6,0.73,0.37,-2.78,-0.4,-1.69
642,1900-01-01 12:04:42.497,29.99,15.85,14.16,0.28,0.51,0.84,-0.24,-2.21,-2.21,45.3,36.96,2.01,0.59,0.7,0.36,-2.42,0.36,-2.17
643,1900-01-01 12:04:42.543,30.2,16.09,13.98,0.28,0.51,0.83,0.24,-2.31,-2.29,45.62,37.22,1.67,0.6,0.71,0.35,-3.22,1.19,-2.08
644,1900-01-01 12:04:42.641,31.0,16.85,13.79,0.29,0.52,0.81,0.82,-1.47,-1.82,47.41,35.99,1.34,0.59,0.74,0.34,-3.28,0.72,-1.31
645,1900-01-01 12:04:42.730,29.9,16.67,13.67,0.29,0.51,0.83,1.3,-1.75,-0.85,45.77,36.6,1.13,0.6,0.72,0.37,-3.22,3.66,-2.14
646,1900-01-01 12:04:42.778,31.59,16.97,13.69,0.29,0.52,0.8,1.25,-1.89,-0.54,47.07,34.27,0.8,0.53,0.69,0.36,-1.99,1.3,-0.58
647,1900-01-01 12:04:42.871,33.38,16.72,13.77,0.28,0.54,0.76,-0.92,2.88,-0.13,50.83,32.34,0.7,0.52,0.75,0.33,-2.68,0.67,7.28
648,1900-01-01 12:04:42.918,31.12,16.76,13.91,0.29,0.53,0.82,-1.02,5.32,3.18,44.24,38.39,1.8,0.63,0.7,0.36,-1.58,4.45,10.46
649,1900-01-01 12:04:43.011,29.54,17.21,14.55,0.3,0.5,0.84,1.47,2.66,3.26,41.33,39.68,3.38,0.64,0.66,0.4,1.36,2.7,2.76
650,1900-01-01 12:04:43.104,30.94,17.02,15.2,0.29,0.51,0.8,0.92,2.43,2.19,45.29,38.2,3.79,0.58,0.67,0.32,-0.02,3.56,1.65
651,1900-01-01 12:04:43.150,30.56,14.8,15.69,0.26,0.51,0.83,-2.44,6.85,2.68,41.15,38.56,4.03,0.62,0.66,0.42,-3.19,5.63,4.76
652,1900-01-01 12:04:43.242,28.68,15.46,16.26,0.27,0.48,0.84,-0.96,3.23,-0.42,42.46,38.71,4.75,0.63,0.68,0.39,-0.56,1.67,-0.46
653,1900-01-01 12:04:43.338,28.45,15.45,16.35,0.27,0.49,0.86,-4.27,2.75,-0.66,41.52,40.12,4.67,0.66,0.67,0.39,-3.96,4.24,-0.24
654,1900-01-01 12:04:43.384,28.43,15.03,16.41,0.27,0.49,0.86,-0.63,-0.67,-1.75,41.66,37.31,4.62,0.6,0.66,0.43,-2.51,7.96,-5.13
655,1900-01-01 12:04:43.478,30.0,14.38,16.3,0.25,0.5,0.83,-1.25,-1.31,-0.79,40.99,38.5,3.83,0.6,0.63,0.41,-0.66,1.06,-0.94
656,1900-01-01 12:04:43.525,29.71,13.5,16.34,0.24,0.51,0.86,-2.56,-0.22,-2.59,42.69,38.69,3.68,0.65,0.7,0.4,-0.29,0.0,1.7
657,1900-01-01 12:04:43.618,29.76,15.51,16.1,0.27,0.51,0.85,0.44,-2.62,-3.77,45.05,36.79,3.93,0.61,0.72,0.38,0.95,1.08,-3.73
658,1900-01-01 12:04:43.712,28.72,15.15,15.69,0.27,0.49,0.86,-3.37,-3.8,-2.47,41.47,38.77,3.35,0.63,0.66,0.41,-3.14,-2.4,-3.08
659,1900-01-01 12:04:43.760,30.04,14.41,15.47,0.25,0.5,0.84,1.6,-4.76,-3.26,45.76,35.28,2.87,0.57,0.71,0.39,-0.46,-1.66,-4.29
660,1900-01-01 12:04:43.852,29.43,14.86,15.13,0.26,0.49,0.83,-1.12,-3.76,-2.78,44.33,36.61,2.21,0.59,0.69,0.39,-1.89,-2.5,-1.31
661,1900-01-01 12:04:43.945,28.4,15.67,14.86,0.28,0.49,0.86,-1.5,-5.34,-3.0,43.22,37.62,2.0,0.61,0.69,0.4,-0.89,-1.22,0.06
662,1900-01-01 12:04:43.992,30.82,17.31,14.56,0.3,0.52,0.81,-1.31,-5.14,-2.69,47.07,35.87,2.0,0.58,0.73,0.34,-2.72,-1.39,2.05
663,1900-01-01 12:04:44.086,30.01,17.15,14.31,0.3,0.5,0.82,-2.31,-2.69,-1.24,44.84,37.19,2.31,0.6,0.69,0.36,-2.1,-1.23,0.35
664,1900-01-01 12:04:44.178,29.47,16.54,14.28,0.28,0.49,0.82,-0.43,-3.48,-1.0,43.81,37.66,2.35,0.6,0.68,0.38,-1.02,-1.6,0.27
665,1900-01-01 12:04:44.226,29.93,17.46,14.28,0.3,0.5,0.81,-0.47,-2.97,-1.47,45.34,37.52,2.38,0.59,0.69,0.34,-1.55,-0.74,-0.44
666,1900-01-01 12:04:44.319,29.49,17.54,14.22,0.3,0.49,0.82,-1.65,-0.16,-1.08,43.72,38.54,2.31,0.62,0.68,0.36,-2.27,1.96,0.16
667,1900-01-01 12:04:44.366,29.42,17.75,14.21,0.31,0.5,0.83,-0.27,-1.27,-1.43,44.05,39.1,2.33,0.63,0.7,0.35,-3.12,2.27,-1.55
668,1900-01-01 12:04:44.460,30.05,18.02,14.15,0.31,0.5,0.81,0.85,-1.57,-0.82,46.28,35.18,2.08,0.56,0.7,0.37,-1.35,5.16,-2.44
669,1900-01-01 12:04:44.552,30.56,18.34,14.18,0.31,0.5,0.79,-0.75,0.2,-0.11,45.56,35.95,1.7,0.56,0.68,0.36,-0.4,0.09,0.89
670,1900-01-01 12:04:44.597,31.2,17.6,14.33,0.3,0.51,0.79,0.2,3.22,0.16,46.73,36.16,1.83,0.58,0.71,0.34,-0.63,0.15,5.11
671,1900-01-01 12:04:44.690,30.63,17.46,14.51,0.3,0.51,0.81,1.15,5.3,2.79,44.48,37.97,2.59,0.61,0.7,0.36,-1.54,4.0,5.21
672,1900-01-01 12:04:44.783,29.62,16.33,15.09,0.29,0.51,0.85,0.52,4.63,3.38,41.84,38.82,3.37,0.64,0.68,0.41,-1.01,4.36,4.06
673,1900-01-01 12:04:44.832,30.15,17.69,15.76,0.3,0.5,0.81,1.04,4.89,2.73,43.46,39.43,3.98,0.62,0.67,0.34,-0.99,7.22,3.19
674,1900-01-01 12:04:44.924,28.98,16.94,16.33,0.3,0.5,0.85,-1.76,3.52,2.58,39.04,41.48,4.45,0.7,0.66,0.43,1.24,4.26,5.92
675,1900-01-01 12:04:45.016,30.44,17.85,16.88,0.31,0.52,0.83,1.72,-3.44,2.63,43.1,39.13,5.34,0.65,0.7,0.38,3.36,1.27,1.47
676,1900-01-01 12:04:45.063,29.65,17.6,17.44,0.31,0.51,0.84,-1.46,-3.19,4.43,41.61,39.56,5.55,0.64,0.67,0.39,0.98,0.27,4.06
677,1900-01-01 12:04:45.156,27.4,17.22,18.27,0.3,0.46,0.84,-0.43,-1.76,1.68,41.67,39.5,6.16,0.63,0.66,0.39,0.84,1.08,1.78
678,1900-01-01 12:04:45.203,28.79,16.55,18.68,0.29,0.49,0.84,-2.78,0.01,1.53,41.19,39.82,6.42,0.63,0.64,0.39,-2.68,5.97,3.46
679,1900-01-01 12:04:45.296,28.21,17.26,19.07,0.3,0.47,0.83,-3.04,0.87,0.18,39.63,40.68,6.94,0.65,0.63,0.41,-3.11,5.28,-0.17
680,1900-01-01 12:04:45.390,27.01,19.36,19.26,0.33,0.45,0.83,-1.65,-0.94,-2.21,41.17,39.61,6.91,0.62,0.64,0.39,-0.26,3.35,-1.73
681,1900-01-01 12:04:45.437,29.79,19.02,19.08,0.32,0.49,0.79,-1.03,0.23,-1.91,41.5,39.42,6.63,0.6,0.63,0.38,0.31,-3.9,-0.87
682,1900-01-01 12:04:45.530,26.2,17.85,18.94,0.29,0.42,0.81,-2.7,0.89,-3.18,41.05,40.31,6.49,0.62,0.63,0.37,2.94,-2.86,0.76
683,1900-01-01 12:04:45.624,26.97,17.14,18.62,0.29,0.45,0.84,-1.47,0.49,-5.69,39.97,41.06,6.6,0.64,0.63,0.39,0.78,0.91,-1.42
684,1900-01-01 12:04:45.671,28.26,16.59,17.91,0.29,0.48,0.84,0.98,-0.81,-8.18,42.75,40.13,6.38,0.65,0.68,0.35,0.52,-1.97,-5.01
685,1900-01-01 12:04:45.765,28.74,16.99,16.82,0.3,0.5,0.86,-0.18,0.85,-6.65,43.61,39.35,5.6,0.66,0.72,0.37,-2.78,0.68,-3.15
686,1900-01-01 12:04:45.813,28.82,16.81,15.97,0.3,0.5,0.86,-0.34,-0.47,-4.34,42.62,40.23,5.12,0.66,0.69,0.36,-3.03,1.08,-3.97
687,1900-01-01 12:04:45.907,29.82,15.95,15.46,0.28,0.51,0.84,-0.1,-1.02,-4.42,44.6,38.16,4.5,0.62,0.7,0.35,-3.31,1.05,-3.28
688,1900-01-01 12:04:45.959,29.58,15.87,14.94,0.27,0.49,0.82,0.01,-0.65,-3.81,43.97,38.03,3.99,0.61,0.68,0.37,-2.45,0.66,-3.31
689,1900-01-01 12:04:46.046,30.73,14.7,14.52,0.26,0.51,0.83,0.04,-0.59,-3.29,44.71,37.24,3.48,0.6,0.7,0.37,-3.44,0.32,-3.34
690,1900-01-01 12:04:46.140,29.78,15.06,14.18,0.26,0.5,0.84,0.94,-0.98,-3.41,44.64,37.36,2.96,0.61,0.7,0.37,-2.42,1.47,-3.24
691,1900-01-01 12:04:46.233,29.47,15.35,13.82,0.27,0.49,0.83,0.92,-0.91,-3.11,45.61,36.89,2.46,0.6,0.72,0.36,-2.0,0.01,-3.42
692,1900-01-01 12:04:46.279,30.47,15.4,13.5,0.28,0.53,0.85,-0.16,-0.64,-1.36,44.74,36.83,1.93,0.61,0.71,0.39,-4.85,3.01,-1.94
693,1900-01-01 12:04:46.373,31.49,15.09,13.45,0.26,0.53,0.82,1.08,-1.73,-0.45,46.24,34.54,1.62,0.55,0.71,0.39,-3.22,3.5,-2.44
694,1900-01-01 12:04:46.422,32.74,15.66,13.54,0.26,0.53,0.78,0.5,0.65,0.27,48.32,33.79,1.24,0.54,0.73,0.35,-2.72,-0.01,2.18
695,1900-01-01 12:04:46.515,31.09,14.91,13.74,0.26,0.51,0.81,-0.31,2.81,2.17,44.57,36.54,1.56,0.59,0.69,0.39,-0.66,1.79,5.55
696,1900-01-01 12:04:46.607,30.79,15.61,14.23,0.27,0.52,0.83,0.5,1.31,2.31,44.17,37.59,2.4,0.61,0.69,0.38,-0.8,3.07,5.51
697,1900-01-01 12:04:46.653,30.44,15.69,14.74,0.27,0.51,0.83,-2.49,1.75,2.35,41.74,39.27,3.22,0.63,0.66,0.39,-0.91,0.6,1.6
698,1900-01-01 12:04:46.746,32.29,16.06,15.25,0.27,0.53,0.79,3.1,2.66,2.45,47.28,35.69,3.46,0.56,0.7,0.33,-0.93,5.11,2.28
699,1900-01-01 12:04:46.839,30.36,15.12,15.78,0.27,0.51,0.84,-1.64,6.21,3.28,41.22,38.1,3.8,0.63,0.67,0.44,-1.73,5.82,4.99
700,1900-01-01 12:04:46.886,28.45,14.21,16.44,0.25,0.49,0.86,-1.37,0.22,-0.15,40.96,40.13,4.55,0.66,0.67,0.4,-1.73,2.63,-0.78
701,1900-01-01 12:04:46.980,31.03,16.22,16.58,0.28,0.51,0.8,-2.55,0.04,1.44,43.64,34.86,4.42,0.55,0.67,0.43,-3.02,4.73,-2.99
702,1900-01-01 12:04:47.026,29.89,14.08,16.95,0.24,0.49,0.81,-0.79,1.43,0.36,41.67,36.75,3.95,0.56,0.62,0.42,1.12,-1.56,-0.02
703,1900-01-01 12:04:47.120,28.27,13.7,17.16,0.24,0.48,0.86,-2.43,0.83,-2.6,40.95,39.09,3.94,0.64,0.67,0.42,1.86,0.23,1.15
704,1900-01-01 12:04:47.213,29.12,14.78,16.93,0.26,0.5,0.87,-0.02,-1.84,-3.05,42.06,39.48,4.11,0.65,0.69,0.39,0.69,0.4,-2.51
705,1900-01-01 12:04:47.261,30.02,15.1,16.62,0.26,0.5,0.83,-0.61,-1.98,-3.3,43.53,37.61,3.72,0.6,0.67,0.38,-0.63,-0.3,-3.59
706,1900-01-01 12:04:47.357,28.98,14.37,16.28,0.25,0.49,0.84,-1.03,-1.66,-4.42,43.04,37.28,3.16,0.61,0.68,0.41,-2.81,0.83,-3.98
707,1900-01-01 12:04:47.448,30.11,15.07,15.76,0.26,0.51,0.84,-1.02,-2.6,-4.64,45.08,36.47,2.54,0.6,0.71,0.38,-2.12,-1.05,-3.58
708,1900-01-01 12:04:47.495,30.52,14.68,15.21,0.26,0.51,0.83,0.48,-2.09,-3.54,45.74,35.23,1.99,0.58,0.72,0.39,-1.63,-1.25,-2.65
709,1900-01-01 12:04:47.587,30.45,14.53,14.82,0.25,0.51,0.83,-0.07,-2.48,-3.03,45.88,35.47,1.57,0.58,0.72,0.38,-1.45,-0.56,-2.18
710,1900-01-01 12:04:47.634,30.41,15.09,14.52,0.26,0.51,0.83,-0.08,-2.44,-2.35,44.55,36.91,1.23,0.59,0.69,0.38,-1.55,-0.92,-1.56
711,1900-01-01 12:04:47.727,31.51,14.45,14.32,0.26,0.54,0.84,0.88,-1.56,-2.77,46.68,35.44,0.98,0.6,0.75,0.38,-2.5,-0.24,-2.11
712,1900-01-01 12:04:47.822,31.05,14.99,14.05,0.26,0.52,0.82,1.15,-2.09,-1.18,46.1,35.41,0.65,0.57,0.71,0.38,-1.46,0.95,-3.2
713,1900-01-01 12:04:47.869,31.65,15.82,14.03,0.27,0.51,0.79,-0.47,-2.21,-0.78,46.85,33.72,0.16,0.52,0.69,0.38,-0.92,1.02,-1.77
714,1900-01-01 12:04:47.961,31.53,15.4,14.07,0.26,0.52,0.81,-1.48,-0.68,-0.7,46.75,34.99,-0.12,0.56,0.71,0.37,-2.11,0.76,-0.03
715,1900-01-01 12:04:48.056,30.83,15.53,14.12,0.27,0.52,0.83,-0.47,-1.24,-0.5,45.96,35.82,-0.14,0.6,0.74,0.38,-3.4,2.57,-1.23
716,1900-01-01 12:04:48.102,31.81,16.28,14.2,0.28,0.52,0.8,2.82,-1.75,-0.24,47.14,33.58,-0.33,0.53,0.7,0.38,-0.95,1.34,-1.74
717,1900-01-01 12:04:48.196,32.9,15.25,14.32,0.26,0.53,0.78,0.88,1.05,0.16,49.35,32.57,-0.61,0.52,0.74,0.36,0.19,0.24,4.6
718,1900-01-01 12:04:48.288,32.41,15.52,14.51,0.27,0.54,0.81,-4.08,2.47,2.6,45.23,36.21,0.08,0.58,0.7,0.38,-2.69,2.38,9.49
719,1900-01-01 12:04:48.335,31.06,16.45,15.06,0.29,0.53,0.82,0.76,2.83,2.6,44.31,36.84,1.51,0.6,0.7,0.39,0.37,4.24,3.37
720,1900-01-01 12:04:48.427,30.51,15.63,15.61,0.27,0.52,0.83,-0.5,1.52,2.26,42.4,38.33,2.02,0.61,0.66,0.39,-0.64,2.78,3.63
721,1900-01-01 12:04:48.475,30.24,15.97,16.11,0.28,0.51,0.83,0.31,1.27,1.16,43.56,37.88,2.56,0.61,0.69,0.38,-0.46,1.6,2.53
722,1900-01-01 12:04:48.569,30.14,15.83,16.45,0.29,0.53,0.87,-5.21,-0.69,2.04,41.11,39.72,2.93,0.64,0.66,0.4,-9.13,8.98,-2.82
723,1900-01-01 12:04:48.685,31.71,14.9,16.92,0.25,0.52,0.8,2.33,-1.94,0.45,42.77,35.7,2.49,0.55,0.64,0.42,-1.67,0.9,-3.68
724,1900-01-01 12:04:48.709,30.58,15.19,17.14,0.25,0.49,0.79,1.2,2.11,-1.56,43.58,36.09,1.92,0.55,0.65,0.4,3.57,-1.05,-7.09
725,1900-01-01 12:04:48.803,31.21,16.36,17.06,0.28,0.52,0.81,4.12,1.72,-3.57,47.54,33.49,0.84,0.55,0.74,0.39,2.32,2.48,-10.83
726,1900-01-01 12:04:48.850,31.71,14.37,16.68,0.26,0.54,0.84,-6.31,-0.43,-0.91,49.06,33.35,-0.82,0.59,0.8,0.38,-2.56,12.29,-5.63
727,1900-01-01 12:04:48.943,29.21,17.27,16.7,0.29,0.48,0.81,-2.89,1.91,-0.82,47.11,30.57,-1.69,0.5,0.72,0.44,4.58,16.72,-3.38
728,1900-01-01 12:04:49.037,29.69,13.7,16.73,0.24,0.5,0.84,-3.42,2.33,-1.34,44.82,31.62,-2.22,0.54,0.72,0.49,1.12,-6.19,9.63
729,1900-01-01 12:04:49.084,30.48,14.58,16.69,0.25,0.5,0.81,9.71,-0.7,-4.49,48.13,31.5,-0.76,0.51,0.72,0.4,7.63,-2.69,3.55
730,1900-01-01 12:04:49.178,33.8,13.19,16.16,0.24,0.6,0.86,-1.26,-1.54,-1.56,46.09,33.37,-0.22,0.56,0.73,0.43,-2.72,0.14,3.03
731,1900-01-01 12:04:49.271,31.69,13.82,16.08,0.24,0.52,0.81,1.13,-0.4,-0.73,47.16,33.65,0.23,0.54,0.71,0.38,-0.95,-0.68,0.18
732,1900-01-01 12:04:49.317,31.44,14.53,16.13,0.25,0.52,0.81,-0.65,0.49,-1.59,47.51,33.54,0.25,0.54,0.73,0.38,-0.55,2.21,0.49
733,1900-01-01 12:04:49.411,32.09,14.89,16.05,0.26,0.54,0.82,-0.96,-0.18,-0.84,48.13,33.51,0.31,0.55,0.74,0.37,-2.18,2.55,1.32
734,1900-01-01 12:04:49.505,31.16,14.92,16.08,0.26,0.52,0.82,-3.45,-0.62,0.72,44.95,35.09,0.51,0.57,0.7,0.41,-2.53,3.15,2.41
735,1900-01-01 12:04:49.552,31.43,14.17,16.34,0.25,0.53,0.83,-0.53,-0.02,-0.37,45.79,34.5,0.87,0.56,0.71,0.4,-2.28,1.02,1.79
736,1900-01-01 12:04:49.645,31.01,14.95,16.44,0.26,0.52,0.82,0.72,0.37,-1.65,46.91,33.77,1.13,0.55,0.73,0.4,1.15,-1.15,2.31
737,1900-01-01 12:04:49.692,29.88,13.52,16.35,0.25,0.53,0.88,-4.15,-1.3,-1.22,42.19,37.28,1.47,0.63,0.69,0.44,0.43,6.3,4.16
738,1900-01-01 12:04:49.784,31.45,15.66,16.33,0.26,0.51,0.79,3.72,-1.98,-1.6,47.0,35.38,2.1,0.55,0.69,0.34,3.83,-2.4,-2.86
739,1900-01-01 12:04:49.878,31.52,15.06,16.24,0.26,0.52,0.81,-4.03,0.79,-2.1,47.05,34.67,1.65,0.57,0.74,0.38,-3.1,0.2,2.35
740,1900-01-01 12:04:49.925,32.14,14.96,16.08,0.26,0.54,0.82,-0.3,-1.56,-0.8,46.27,35.18,2.0,0.58,0.72,0.38,-0.9,0.29,-0.7
741,1900-01-01 12:04:50.019,31.9,14.87,16.12,0.26,0.53,0.81,0.02,-2.23,-0.33,46.29,35.71,1.89,0.57,0.71,0.36,-0.92,0.02,-0.99
742,1900-01-01 12:04:50.112,31.48,14.79,16.22,0.26,0.53,0.82,-0.45,-1.16,-0.44,46.47,34.72,1.73,0.57,0.72,0.39,-1.32,0.22,-0.21
743,1900-01-01 12:04:50.159,30.75,15.15,16.32,0.26,0.52,0.83,-0.6,-1.94,-0.18,46.07,35.25,1.68,0.58,0.72,0.38,-0.78,0.11,-0.26
744,1900-01-01 12:04:50.253,31.21,15.65,16.45,0.27,0.53,0.82,-0.96,-1.85,0.09,46.39,35.54,1.64,0.58,0.72,0.37,-0.97,0.25,0.48
745,1900-01-01 12:04:50.300,31.07,15.72,16.62,0.27,0.52,0.82,-0.5,-1.63,-0.28,46.36,35.54,1.7,0.57,0.71,0.37,-0.4,0.69,-0.27
746,1900-01-01 12:04:50.396,30.77,16.41,16.73,0.28,0.51,0.82,-1.46,-1.74,-0.26,46.28,35.66,1.65,0.58,0.72,0.37,-1.06,0.05,0.53
747,1900-01-01 12:04:50.489,31.06,17.13,16.85,0.3,0.52,0.81,-0.69,-1.69,-0.02,47.24,35.53,1.72,0.58,0.73,0.35,-0.83,-0.08,1.18
748,1900-01-01 12:04:50.535,31.34,17.25,17.01,0.3,0.53,0.81,-1.18,-1.4,0.51,46.81,36.07,1.9,0.59,0.72,0.35,-0.69,0.4,2.18
749,1900-01-01 12:04:50.627,30.91,16.91,17.25,0.29,0.52,0.82,-1.01,-2.7,0.87,45.53,36.9,2.22,0.6,0.71,0.36,0.61,-0.7,5.0
750,1900-01-01 12:04:50.722,31.15,19.29,17.54,0.33,0.52,0.79,-1.72,-5.56,1.48,46.34,37.44,2.97,0.61,0.72,0.33,-1.42,-3.24,9.11
751,1900-01-01 12:04:50.769,30.59,18.71,17.92,0.32,0.52,0.81,-0.99,-4.98,2.45,43.88,39.32,4.35,0.62,0.68,0.34,0.44,-2.17,5.09
752,1900-01-01 12:04:50.862,28.46,19.0,18.45,0.32,0.47,0.81,-0.98,-3.25,0.75,43.12,39.66,5.12,0.63,0.67,0.35,-0.98,-2.21,3.18
753,1900-01-01 12:04:50.909,29.99,18.97,18.72,0.33,0.51,0.82,-1.53,-2.34,0.11,44.01,38.86,5.59,0.63,0.69,0.35,0.0,-1.69,3.16
754,1900-01-01 12:04:51.002,29.79,19.25,18.9,0.33,0.5,0.81,-1.37,-2.06,0.01,42.86,40.94,6.07,0.65,0.67,0.32,-1.11,-1.92,4.0
755,1900-01-01 12:04:51.095,29.49,20.59,19.06,0.35,0.49,0.79,-1.56,-1.2,-0.87,42.58,41.79,6.67,0.66,0.67,0.31,-0.77,-3.48,5.15
756,1900-01-01 12:04:51.143,29.76,20.62,19.09,0.35,0.5,0.79,-2.08,-2.87,-1.01,42.01,42.64,7.45,0.67,0.66,0.3,-1.11,-4.9,5.73
757,1900-01-01 12:04:51.237,29.99,21.85,19.09,0.37,0.5,0.78,1.51,-4.89,-1.14,41.52,44.44,8.31,0.7,0.66,0.27,0.27,-6.85,4.74
758,1900-01-01 12:04:51.330,29.62,21.47,19.08,0.37,0.5,0.8,4.32,-4.57,-0.65,40.78,44.93,9.03,0.7,0.65,0.27,2.56,-4.24,-0.86
759,1900-01-01 12:04:51.376,30.25,21.05,19.14,0.36,0.51,0.8,2.32,-3.06,0.03,41.38,44.63,8.89,0.69,0.65,0.26,0.83,-1.27,-0.33
760,1900-01-01 12:04:51.470,29.95,20.29,19.3,0.35,0.51,0.8,-1.84,-0.18,-0.27,40.42,45.11,8.83,0.7,0.64,0.28,-0.85,1.47,0.63
761,1900-01-01 12:04:51.564,29.9,21.57,19.41,0.37,0.5,0.79,-0.24,1.03,-1.11,41.88,44.52,8.92,0.69,0.66,0.25,-0.7,2.79,-0.68
762,1900-01-01 12:04:51.609,30.49,21.13,19.4,0.36,0.51,0.79,-1.59,1.92,-0.53,40.81,45.31,8.8,0.71,0.65,0.26,-1.21,3.44,0.86
763,1900-01-01 12:04:51.704,29.76,20.24,19.48,0.35,0.5,0.8,-0.99,1.57,-0.79,40.56,44.99,8.93,0.71,0.65,0.28,-1.51,5.15,0.39
764,1900-01-01 12:04:51.752,29.63,20.41,19.52,0.35,0.5,0.8,-1.75,3.43,-0.34,41.77,44.16,8.98,0.7,0.67,0.27,-1.89,9.39,-1.56
765,1900-01-01 12:04:51.845,30.65,20.03,19.63,0.35,0.53,0.82,-3.47,5.49,0.81,41.96,42.62,8.73,0.69,0.68,0.31,-6.15,12.93,-5.27
766,1900-01-01 12:04:51.939,27.67,19.34,19.91,0.32,0.45,0.8,-0.73,5.25,-1.57,40.57,43.84,7.92,0.67,0.62,0.3,-0.38,11.98,-5.98
767,1900-01-01 12:04:51.985,28.48,21.02,19.83,0.36,0.48,0.8,-1.31,8.67,-2.17,43.48,40.12,7.0,0.64,0.69,0.33,-0.69,9.99,-3.9
768,1900-01-01 12:04:52.080,28.87,19.29,19.66,0.34,0.5,0.84,2.52,6.24,-1.82,43.89,39.82,6.39,0.65,0.7,0.34,4.14,13.75,-8.14
769,1900-01-01 12:04:52.128,30.77,17.29,19.54,0.3,0.52,0.82,-1.65,4.74,-0.78,44.18,38.07,5.15,0.61,0.69,0.36,-3.01,7.54,-2.64
770,1900-01-01 12:04:52.220,30.44,17.51,19.58,0.3,0.5,0.8,0.51,4.19,-2.8,46.25,35.86,4.74,0.57,0.7,0.36,-3.35,8.79,-4.18
771,1900-01-01 12:04:52.315,30.06,16.22,19.31,0.29,0.51,0.84,-1.7,2.22,-2.49,45.28,36.77,4.09,0.6,0.71,0.37,-5.15,12.03,-5.23
772,1900-01-01 12:04:52.359,30.26,15.64,19.09,0.28,0.52,0.85,-0.06,2.85,-1.07,46.08,33.35,3.28,0.57,0.74,0.44,-5.95,12.38,-2.94
773,1900-01-01 12:04:52.456,29.33,17.43,19.08,0.3,0.48,0.81,0.14,0.31,-1.89,47.37,31.22,2.82,0.51,0.72,0.43,-5.63,12.21,-4.38
774,1900-01-01 12:04:52.546,29.88,14.72,18.95,0.26,0.5,0.84,-2.42,0.76,0.43,46.37,30.36,2.15,0.5,0.72,0.47,-7.89,12.28,-0.19
775,1900-01-01 12:04:52.594,30.64,16.43,19.18,0.28,0.51,0.81,-0.69,1.86,0.21,46.96,30.51,2.11,0.5,0.72,0.45,-5.05,6.17,0.39
776,1900-01-01 12:04:52.686,29.81,14.93,19.37,0.25,0.49,0.82,-1.04,0.44,1.61,44.04,29.59,2.16,0.48,0.67,0.5,-4.9,3.34,1.97
777,1900-01-01 12:04:52.733,29.28,15.64,19.77,0.27,0.48,0.82,1.54,0.27,-0.16,45.34,30.02,2.45,0.48,0.69,0.48,-0.37,2.11,-1.33
778,1900-01-01 12:04:52.826,31.41,15.01,19.9,0.27,0.54,0.84,-1.4,1.9,2.04,46.2,29.23,2.24,0.5,0.74,0.5,-4.07,1.02,3.09
779,1900-01-01 12:04:52.921,28.33,14.89,20.37,0.26,0.49,0.86,2.37,-0.43,1.73,41.78,32.06,2.7,0.53,0.67,0.52,1.26,0.85,0.69
780,1900-01-01 12:04:52.969,29.8,16.11,20.79,0.28,0.5,0.82,1.14,1.07,0.83,45.82,30.63,2.8,0.5,0.7,0.46,0.75,1.25,2.5
781,1900-01-01 12:04:53.064,29.4,13.61,21.08,0.23,0.49,0.84,-0.01,1.44,0.68,42.63,29.59,3.17,0.48,0.66,0.53,0.2,1.95,1.85
782,1900-01-01 12:04:53.156,30.82,15.54,21.34,0.27,0.51,0.81,0.56,1.34,-0.52,45.49,30.7,3.44,0.49,0.69,0.46,0.98,-0.5,1.14
783,1900-01-01 12:04:53.203,30.8,15.68,21.42,0.28,0.53,0.84,0.18,1.01,0.22,44.72,32.04,3.6,0.55,0.73,0.49,1.58,-1.31,2.66
784,1900-01-01 12:04:53.297,28.91,15.62,21.61,0.28,0.5,0.86,1.39,-2.91,0.5,43.18,31.38,4.0,0.52,0.68,0.51,0.18,2.43,-0.13
785,1900-01-01 12:04:53.344,29.65,14.82,21.84,0.25,0.49,0.81,-0.25,-1.76,0.48,43.06,31.54,3.97,0.5,0.65,0.48,-2.27,2.51,-0.28
786,1900-01-01 12:04:53.437,30.48,14.72,22.08,0.26,0.52,0.84,-0.56,-0.74,-1.18,44.86,30.58,3.92,0.5,0.7,0.49,-1.76,2.24,-0.03
787,1900-01-01 12:04:53.529,29.9,15.06,22.06,0.26,0.5,0.82,-1.55,-0.18,-1.32,43.63,31.3,3.91,0.51,0.67,0.49,-2.34,1.3,-0.24
788,1900-01-01 12:04:53.576,30.19,14.78,22.01,0.26,0.51,0.83,-0.73,0.5,-2.78,42.98,31.18,3.86,0.51,0.67,0.5,-1.82,1.04,-0.65
789,1900-01-01 12:04:53.676,30.42,15.83,21.75,0.28,0.51,0.82,-1.35,0.4,-3.59,44.93,31.14,3.75,0.51,0.69,0.47,-1.5,0.71,-0.28
790,1900-01-01 12:04:53.766,31.35,16.15,21.36,0.28,0.53,0.83,-1.15,0.6,-2.18,45.07,31.74,3.7,0.53,0.71,0.47,-1.85,1.56,-0.85
791,1900-01-01 12:04:53.812,29.93,15.07,21.18,0.26,0.5,0.82,-0.03,-0.89,-3.0,43.91,30.88,3.56,0.51,0.68,0.5,-0.04,0.46,-2.11
792,1900-01-01 12:04:53.907,28.94,15.08,20.88,0.26,0.48,0.83,0.12,-2.28,-4.35,43.16,31.66,3.23,0.51,0.66,0.49,0.32,-0.95,-3.78
793,1900-01-01 12:04:53.952,30.87,15.82,20.38,0.28,0.52,0.83,-0.08,-1.35,-5.47,45.97,30.7,2.65,0.51,0.71,0.47,-1.3,-0.9,-3.59
794,1900-01-01 12:04:54.047,32.21,15.04,19.7,0.27,0.55,0.83,-0.11,-0.98,-3.31,46.99,29.67,2.09,0.5,0.74,0.47,-2.29,-0.6,-1.76
795,1900-01-01 12:04:54.139,30.31,14.7,19.35,0.26,0.51,0.84,-0.4,-2.58,-3.15,45.61,30.28,1.81,0.5,0.71,0.48,-0.69,-1.66,-2.56
796,1900-01-01 12:04:54.186,31.1,15.39,19.03,0.27,0.52,0.82,0.02,-2.0,-1.83,45.62,30.38,1.41,0.5,0.71,0.48,-1.25,-1.01,-1.18
797,1900-01-01 12:04:54.279,32.1,14.9,18.9,0.26,0.53,0.81,0.84,-2.7,-2.63,48.33,28.99,1.22,0.48,0.74,0.45,-0.05,-0.61,-0.63
798,1900-01-01 12:04:54.373,31.8,15.68,18.66,0.27,0.52,0.8,0.73,-2.74,-2.6,47.16,30.63,1.12,0.51,0.74,0.45,2.63,-7.32,4.56
799,1900-01-01 12:04:54.422,30.69,16.63,18.42,0.29,0.52,0.82,0.39,-2.81,-1.53,45.77,32.17,1.8,0.54,0.72,0.45,1.62,-4.56,0.73
800,1900-01-01 12:04:54.514,32.87,16.08,18.35,0.28,0.54,0.79,3.43,-4.45,-1.0,47.0,32.06,1.9,0.52,0.72,0.42,1.82,-13.72,-1.97
801,1900-01-01 12:04:54.561,32.4,16.44,18.36,0.28,0.53,0.79,0.48,-3.31,0.09,47.3,34.13,1.59,0.55,0.72,0.37,3.55,-8.68,-1.63
802,1900-01-01 12:04:54.655,32.74,16.75,18.53,0.29,0.54,0.79,-0.27,-3.6,-0.38,48.37,32.3,1.34,0.53,0.74,0.39,1.56,-9.05,0.21
803,1900-01-01 12:04:54.750,32.18,15.94,18.63,0.28,0.54,0.81,-0.12,-5.51,-0.5,47.3,34.55,1.36,0.56,0.72,0.37,1.21,-3.32,-1.91
804,1900-01-01 12:04:54.797,33.84,16.76,18.71,0.28,0.55,0.77,-0.07,-3.7,-1.73,50.23,33.4,1.06,0.53,0.75,0.32,0.03,-6.69,-0.31
805,1900-01-01 12:04:54.892,32.05,17.86,18.61,0.3,0.53,0.78,-1.89,-1.78,-2.23,47.36,35.39,1.0,0.57,0.72,0.35,-0.28,-4.81,1.34
806,1900-01-01 12:04:54.983,33.0,19.24,18.42,0.34,0.56,0.79,-0.49,-2.5,-2.1,50.16,34.81,1.2,0.57,0.76,0.29,0.12,-0.64,-0.37
807,1900-01-01 12:04:55.032,32.16,17.76,18.26,0.31,0.54,0.79,-2.87,-0.09,-0.93,48.16,35.81,1.14,0.58,0.73,0.31,-2.56,2.44,0.56
808,1900-01-01 12:04:55.123,31.69,17.46,18.28,0.3,0.53,0.81,-2.68,0.02,-1.26,46.5,36.91,1.21,0.6,0.73,0.34,-2.22,0.65,0.93
809,1900-01-01 12:04:55.170,32.23,19.54,18.25,0.34,0.54,0.79,-1.11,-1.59,-2.21,49.21,35.45,1.35,0.58,0.75,0.3,-0.78,0.7,-0.98
810,1900-01-01 12:04:55.265,33.09,18.3,18.07,0.31,0.54,0.77,-0.02,-0.3,-1.05,49.72,34.01,1.19,0.55,0.75,0.32,-1.42,1.8,0.08
811,1900-01-01 12:04:55.359,31.5,18.09,18.06,0.31,0.52,0.79,-0.32,-1.73,-1.49,47.66,36.15,1.19,0.58,0.73,0.32,-0.89,-0.45,-0.41
812,1900-01-01 12:04:55.405,32.63,18.81,17.99,0.32,0.54,0.78,-0.83,-1.58,-0.71,49.31,34.85,1.12,0.56,0.75,0.31,-1.54,0.18,-0.12
813,1900-01-01 12:04:55.499,32.54,18.24,18.04,0.32,0.54,0.79,-0.67,-0.82,-0.49,48.22,35.53,1.09,0.57,0.73,0.32,-1.44,1.7,-0.14
814,1900-01-01 12:04:55.591,32.43,18.4,18.13,0.32,0.54,0.79,-0.1,-1.1,-0.94,48.43,35.63,1.06,0.58,0.74,0.32,-1.12,0.92,0.13
815,1900-01-01 12:04:55.640,32.42,18.9,18.14,0.33,0.54,0.79,0.07,-0.87,-0.72,48.76,35.77,1.07,0.58,0.75,0.3,-1.76,1.95,-0.02
816,1900-01-01 12:04:55.733,32.3,18.81,18.19,0.32,0.54,0.78,0.15,-0.68,-1.21,48.89,35.31,1.06,0.58,0.75,0.31,-1.14,1.85,-1.12
817,1900-01-01 12:04:55.824,34.65,19.05,18.17,0.34,0.58,0.78,2.02,-1.7,1.0,50.03,33.16,0.88,0.55,0.77,0.34,-3.36,4.88,-3.44
818,1900-01-01 12:04:55.872,34.08,19.23,18.48,0.31,0.53,0.73,5.95,1.99,-0.26,52.58,31.89,0.35,0.5,0.75,0.28,0.46,-1.37,1.34
819,1900-01-01 12:04:55.965,34.75,18.06,18.6,0.31,0.57,0.76,-4.85,4.85,2.25,50.13,34.48,0.55,0.54,0.73,0.29,-6.88,4.56,7.58
820,1900-01-01 12:04:56.012,31.73,18.53,19.1,0.33,0.54,0.81,-0.89,9.0,1.12,46.33,36.63,1.69,0.62,0.76,0.36,-1.74,7.74,3.24
821,1900-01-01 12:04:56.105,31.84,18.27,19.43,0.32,0.54,0.81,-3.69,5.28,1.98,47.19,35.06,2.17,0.58,0.74,0.36,-3.33,8.08,5.73
822,1900-01-01 12:04:56.200,31.48,17.05,19.89,0.3,0.53,0.81,-5.42,4.1,2.4,44.15,37.67,3.03,0.61,0.69,0.37,-5.49,6.25,5.72
823,1900-01-01 12:04:56.249,32.82,17.55,20.41,0.3,0.54,0.79,-2.44,3.82,1.5,47.07,35.26,3.89,0.57,0.72,0.36,-2.06,3.37,3.31
824,1900-01-01 12:04:56.342,31.18,17.22,20.79,0.29,0.51,0.8,-2.21,3.38,1.73,42.31,37.56,4.39,0.57,0.63,0.39,-0.08,-2.44,2.82
825,1900-01-01 12:04:56.388,28.93,15.96,21.22,0.28,0.5,0.85,-4.51,2.1,1.94,41.76,38.93,4.81,0.64,0.68,0.41,-3.02,3.54,6.34
826,1900-01-01 12:04:56.480,28.71,14.43,21.67,0.25,0.49,0.86,2.82,0.01,-0.35,41.35,39.33,5.76,0.63,0.66,0.4,0.58,4.44,1.15
827,1900-01-01 12:04:56.572,30.48,15.3,21.77,0.27,0.52,0.83,2.62,-0.54,-1.6,43.0,38.11,5.92,0.62,0.69,0.39,0.71,0.79,1.29
828,1900-01-01 12:04:56.620,30.86,16.48,21.69,0.29,0.52,0.82,0.31,-0.33,-1.31,42.83,39.04,6.11,0.62,0.67,0.37,-0.01,1.14,0.25
829,1900-01-01 12:04:56.714,30.65,16.32,21.65,0.28,0.51,0.82,-0.95,-0.34,-0.76,43.38,38.1,6.14,0.61,0.68,0.38,-0.05,0.99,-0.32
830,1900-01-01 12:04:56.806,29.61,15.76,21.69,0.28,0.5,0.84,-0.06,0.21,-0.72,42.92,39.84,6.08,0.66,0.7,0.37,-1.11,4.78,-0.53
831,1900-01-01 12:04:56.854,32.06,16.7,21.74,0.28,0.53,0.79,2.69,-1.87,-0.37,44.87,36.66,6.0,0.58,0.68,0.37,0.54,-0.43,-2.63
832,1900-01-01 12:04:56.947,30.62,15.49,21.84,0.26,0.5,0.81,-2.78,0.57,-0.64,42.79,38.43,5.59,0.61,0.67,0.38,-3.71,0.72,0.23
833,1900-01-01 12:04:57.039,29.8,15.43,21.9,0.27,0.5,0.83,0.53,-0.04,-2.81,42.41,38.53,5.61,0.61,0.67,0.39,-0.14,1.76,-0.81
834,1900-01-01 12:04:57.086,30.07,16.62,21.63,0.28,0.49,0.8,0.6,1.22,-4.53,44.33,37.82,5.48,0.6,0.68,0.36,1.08,0.14,1.08
835,1900-01-01 12:04:57.180,31.19,15.62,21.1,0.27,0.52,0.82,-0.82,2.35,-3.51,44.23,37.79,5.64,0.61,0.7,0.37,-1.09,1.58,1.11
836,1900-01-01 12:04:57.227,31.67,15.0,20.73,0.26,0.53,0.82,-1.24,2.67,-3.47,45.02,37.41,5.8,0.63,0.73,0.37,-2.69,2.21,-0.45
837,1900-01-01 12:04:57.322,31.37,15.59,20.36,0.28,0.54,0.85,-0.11,0.39,-2.09,43.69,38.42,5.72,0.64,0.72,0.38,-1.93,1.49,-1.11
838,1900-01-01 12:04:57.413,31.71,15.43,20.2,0.27,0.53,0.82,-0.2,-0.73,-0.9,44.36,37.51,5.54,0.61,0.7,0.37,-1.6,1.15,0.05
839,1900-01-01 12:04:57.460,31.51,14.42,20.22,0.25,0.52,0.82,-1.21,-0.29,-0.6,44.02,37.59,5.54,0.6,0.69,0.38,-2.03,1.88,-0.06
840,1900-01-01 12:04:57.554,31.57,15.45,20.29,0.27,0.54,0.83,-0.9,-0.86,0.07,44.25,37.95,5.52,0.63,0.71,0.37,-1.37,0.35,0.5
841,1900-01-01 12:04:57.647,30.9,15.28,20.46,0.26,0.52,0.82,-0.5,-2.08,0.7,42.37,38.65,5.59,0.62,0.66,0.39,-1.08,-1.53,1.01
842,1900-01-01 12:04:57.696,30.74,14.73,20.72,0.26,0.52,0.83,-1.05,-2.92,-0.15,43.71,37.32,5.74,0.6,0.68,0.39,2.81,-2.18,1.24
843,1900-01-01 12:04:57.788,31.26,14.99,20.86,0.26,0.52,0.81,6.02,-1.68,-1.59,45.19,38.36,5.92,0.61,0.7,0.33,11.68,-6.46,-8.95
844,1900-01-01 12:04:57.836,32.45,15.8,20.77,0.27,0.53,0.79,-2.87,-1.57,-0.82,46.88,37.63,4.54,0.6,0.72,0.3,-0.92,-1.26,2.28
845,1900-01-01 12:04:57.931,31.96,15.42,20.81,0.27,0.55,0.83,2.1,-2.05,-0.4,45.75,38.06,4.88,0.62,0.72,0.33,1.13,5.63,-3.3
846,1900-01-01 12:04:58.026,33.19,16.26,20.91,0.28,0.54,0.78,-0.33,-1.22,-0.13,47.21,36.68,4.37,0.57,0.7,0.31,-2.15,2.37,-0.52
847,1900-01-01 12:04:58.071,32.35,15.99,21.04,0.27,0.53,0.8,-3.56,0.96,-0.37,45.13,38.55,4.28,0.6,0.69,0.32,-3.77,0.73,0.0
848,1900-01-01 12:04:58.165,32.61,16.29,21.15,0.28,0.54,0.79,-0.82,0.57,-1.92,49.17,35.7,4.27,0.58,0.76,0.29,-4.74,4.11,3.37
849,1900-01-01 12:04:58.257,30.66,16.99,21.01,0.29,0.5,0.8,-7.15,0.02,-0.14,41.15,39.69,4.78,0.62,0.64,0.38,-18.18,6.67,11.86
850,1900-01-01 12:04:58.305,29.03,15.0,21.15,0.26,0.49,0.84,-0.43,1.76,-3.3,42.14,37.95,6.58,0.65,0.71,0.44,0.9,0.81,1.21
851,1900-01-01 12:04:58.400,31.65,16.64,20.81,0.29,0.53,0.81,2.25,-0.09,-2.4,44.3,39.27,6.76,0.62,0.69,0.33,2.24,0.31,-2.48
852,1900-01-01 12:04:58.450,32.69,14.41,20.6,0.25,0.55,0.81,0.13,1.34,-1.5,43.03,37.62,6.37,0.61,0.68,0.4,-1.36,1.43,-0.02
853,1900-01-01 12:04:58.541,31.22,14.7,20.53,0.25,0.51,0.81,2.01,1.54,-2.63,44.35,37.76,6.36,0.6,0.69,0.36,1.45,2.02,-3.11
854,1900-01-01 12:04:58.638,31.32,15.18,20.29,0.27,0.53,0.83,-0.43,0.73,-2.19,43.34,38.83,5.88,0.64,0.7,0.37,0.19,3.18,-1.27
855,1900-01-01 12:04:58.684,32.16,15.43,20.12,0.27,0.53,0.81,1.05,0.14,-2.21,45.89,37.14,5.68,0.6,0.72,0.35,0.12,2.92,-2.93
856,1900-01-01 12:04:58.778,32.24,15.21,19.94,0.26,0.53,0.8,-0.45,-0.54,-0.76,45.4,37.15,5.23,0.59,0.69,0.35,-2.15,4.81,-1.92
857,1900-01-01 12:04:58.825,32.74,15.22,19.98,0.27,0.55,0.81,0.46,-0.14,-0.5,45.62,36.87,4.93,0.59,0.71,0.36,-1.96,3.56,-2.32
858,1900-01-01 12:04:58.916,32.96,15.16,20.06,0.26,0.55,0.8,-0.01,0.82,0.29,45.69,36.47,4.56,0.58,0.7,0.36,-3.03,2.99,-1.08
859,1900-01-01 12:04:59.011,32.34,14.63,20.27,0.25,0.53,0.81,-2.36,1.5,1.05,45.58,35.2,4.39,0.58,0.72,0.4,-5.66,4.08,2.16
860,1900-01-01 12:04:59.058,31.76,15.26,20.58,0.27,0.53,0.82,-3.73,1.3,0.85,45.59,35.36,4.71,0.59,0.73,0.4,-7.6,2.82,4.05
861,1900-01-01 12:04:59.149,31.24,15.4,20.87,0.27,0.53,0.83,-6.17,0.47,2.31,42.37,37.59,5.32,0.61,0.68,0.42,-7.05,2.63,4.02
862,1900-01-01 12:04:59.242,30.32,13.78,21.38,0.24,0.51,0.83,-3.4,0.66,1.79,41.31,37.17,5.92,0.59,0.64,0.44,-6.39,2.79,4.23
863,1900-01-01 12:04:59.290,29.96,13.48,21.81,0.23,0.5,0.84,0.27,0.51,0.71,40.86,36.99,6.55,0.6,0.65,0.45,-1.54,1.09,1.44
864,1900-01-01 12:04:59.387,30.19,14.46,22.08,0.25,0.51,0.84,0.08,-0.64,0.17,41.95,37.03,6.76,0.6,0.67,0.43,-0.63,0.62,1.49
865,1900-01-01 12:04:59.430,29.59,14.81,22.26,0.26,0.5,0.84,-0.77,-0.52,0.22,40.69,38.06,6.98,0.62,0.65,0.44,-0.67,0.82,0.37
866,1900-01-01 12:04:59.525,29.67,15.01,22.45,0.26,0.5,0.85,-0.44,-0.9,0.27,40.5,38.51,7.03,0.62,0.65,0.43,-0.09,0.72,0.27
867,1900-01-01 12:04:59.619,30.26,15.06,22.65,0.26,0.51,0.84,-0.94,-1.37,0.08,41.89,37.71,7.06,0.61,0.67,0.43,0.34,0.55,0.92
868,1900-01-01 12:04:59.666,29.96,15.63,22.82,0.27,0.5,0.82,-0.39,-1.79,-0.41,41.14,38.21,7.19,0.6,0.64,0.42,1.95,0.46,-1.6
869,1900-01-01 12:04:59.759,30.78,15.95,22.92,0.27,0.51,0.81,-0.73,-1.31,-0.03,42.66,37.88,6.94,0.6,0.66,0.39,-0.19,0.54,0.27
870,1900-01-01 12:04:59.811,29.9,15.46,23.07,0.27,0.51,0.84,-0.39,-0.8,-0.3,41.69,37.84,6.97,0.62,0.67,0.43,0.15,-0.53,-1.1
871,1900-01-01 12:04:59.900,29.85,16.03,23.18,0.28,0.51,0.84,-0.28,-2.43,-0.37,41.98,38.63,6.8,0.62,0.66,0.4,-0.13,-0.37,0.18
872,1900-01-01 12:04:59.994,29.23,16.24,23.29,0.28,0.49,0.83,-0.24,-0.85,-1.2,41.53,38.63,6.81,0.61,0.65,0.41,-0.11,-0.06,-0.99
873,1900-01-01 12:05:00.039,30.21,15.86,23.26,0.27,0.5,0.82,-0.57,-1.68,-1.34,43.07,37.84,6.65,0.61,0.67,0.39,-0.03,-0.5,-0.31
874,1900-01-01 12:05:00.134,30.83,16.1,23.21,0.28,0.52,0.82,-0.24,-0.85,-0.25,42.86,38.49,6.6,0.62,0.67,0.38,-1.06,0.19,0.85
875,1900-01-01 12:05:00.233,30.08,16.12,23.33,0.28,0.51,0.83,1.05,-0.9,-0.89,42.22,38.36,6.72,0.62,0.67,0.4,0.96,0.44,-0.74
876,1900-01-01 12:05:00.275,30.51,16.43,23.36,0.29,0.51,0.82,0.8,-0.81,-0.55,43.38,38.05,6.6,0.62,0.69,0.38,0.89,0.15,-0.63
877,1900-01-01 12:05:00.370,30.79,16.61,23.43,0.29,0.52,0.83,-1.2,-1.26,-0.11,43.22,38.53,6.5,0.63,0.69,0.38,-0.77,0.56,0.32
878,1900-01-01 12:05:00.429,30.71,16.68,23.57,0.29,0.52,0.82,-0.7,-1.91,0.18,42.88,38.89,6.54,0.62,0.67,0.37,-0.75,0.08,0.51
879,1900-01-01 12:05:00.512,30.73,16.86,23.76,0.29,0.51,0.81,-0.68,-1.34,-0.28,43.17,38.64,6.6,0.62,0.68,0.37,-0.72,0.15,0.61
880,1900-01-01 12:05:00.606,30.52,17.68,23.88,0.31,0.52,0.82,-0.54,-1.58,-0.18,43.36,38.57,6.69,0.63,0.69,0.38,-0.48,0.23,0.66
881,1900-01-01 12:05:00.653,30.65,18.01,24.01,0.31,0.52,0.81,-0.15,-2.18,0.09,43.42,39.13,6.78,0.63,0.68,0.36,-0.49,0.13,0.54
882,1900-01-01 12:05:00.747,30.47,17.85,24.18,0.31,0.51,0.81,0.6,-1.6,-0.02,42.59,39.51,6.86,0.63,0.67,0.37,0.18,-0.31,0.74
883,1900-01-01 12:05:00.841,30.74,18.26,24.33,0.31,0.51,0.8,0.18,-1.05,0.0,43.55,39.19,6.96,0.62,0.68,0.35,-0.37,0.29,0.69
884,1900-01-01 12:05:00.888,31.08,17.44,24.49,0.3,0.52,0.81,-0.15,-1.08,0.2,43.16,39.14,7.06,0.63,0.68,0.36,-0.09,0.4,1.68
885,1900-01-01 12:05:00.984,30.28,18.09,24.68,0.31,0.5,0.8,-0.27,-0.33,-0.21,42.86,40.11,7.3,0.63,0.66,0.34,-0.66,1.42,0.44
886,1900-01-01 12:05:01.030,30.09,17.92,24.81,0.31,0.5,0.81,-0.56,0.61,0.24,42.14,40.14,7.36,0.64,0.67,0.36,-1.0,1.78,0.98
887,1900-01-01 12:05:01.123,30.63,17.87,25.0,0.31,0.52,0.82,-1.47,0.01,-0.34,42.41,40.21,7.5,0.65,0.68,0.36,-1.34,1.76,0.85
888,1900-01-01 12:05:01.217,30.72,18.37,25.11,0.32,0.51,0.8,-0.8,-0.04,0.02,42.85,40.04,7.62,0.63,0.67,0.34,-0.99,1.7,0.66
889,1900-01-01 12:05:01.265,30.32,17.91,25.27,0.31,0.51,0.82,-0.69,-0.22,-0.05,42.04,40.52,7.71,0.65,0.67,0.36,-1.02,1.73,0.5
890,1900-01-01 12:05:01.357,30.55,18.77,25.42,0.32,0.51,0.81,0.25,-0.34,0.07,43.07,40.07,7.78,0.64,0.68,0.34,-0.68,1.29,0.55
891,1900-01-01 12:05:01.448,29.66,18.46,25.59,0.32,0.5,0.81,-0.35,-0.44,-0.13,42.09,40.48,7.86,0.65,0.67,0.36,-0.34,1.05,0.96
892,1900-01-01 12:05:01.494,30.47,18.45,25.73,0.32,0.51,0.81,-0.89,-0.03,-0.9,42.42,40.64,7.99,0.64,0.67,0.34,-0.77,0.92,0.77
893,1900-01-01 12:05:01.590,30.0,18.35,25.75,0.32,0.5,0.81,-1.19,-0.56,-0.35,41.7,40.98,8.1,0.65,0.66,0.35,-1.02,1.6,0.31
894,1900-01-01 12:05:01.681,30.06,18.32,25.85,0.32,0.51,0.81,-0.5,-0.44,-0.61,42.08,40.53,8.14,0.65,0.67,0.36,-0.96,1.11,0.07
895,1900-01-01 12:05:01.727,29.98,18.8,25.92,0.33,0.5,0.81,-0.51,-0.47,-0.86,42.03,40.81,8.14,0.65,0.67,0.35,-1.11,1.31,-0.09
896,1900-01-01 12:05:01.820,30.94,18.27,25.95,0.31,0.51,0.79,0.27,-0.98,-1.09,42.79,39.79,8.12,0.63,0.67,0.35,-0.58,0.92,-0.56
897,1900-01-01 12:05:01.867,30.1,19.55,25.94,0.34,0.51,0.8,1.56,-1.54,-1.34,42.24,41.22,8.03,0.65,0.67,0.33,-0.05,0.18,-1.08
898,1900-01-01 12:05:01.959,30.93,18.59,25.89,0.32,0.52,0.81,0.65,-1.01,-1.2,42.79,40.32,7.86,0.65,0.68,0.35,-1.02,0.54,0.27
899,1900-01-01 12:05:02.054,30.53,18.18,25.87,0.31,0.5,0.8,-0.04,0.58,-1.48,42.22,40.66,7.89,0.63,0.65,0.34,-2.39,2.15,0.51
900,1900-01-01 12:05:02.101,29.24,18.52,25.8,0.32,0.5,0.83,-4.21,2.08,-2.44,40.55,41.82,7.96,0.66,0.65,0.36,-6.05,4.44,2.79
901,1900-01-01 12:05:02.195,30.58,17.07,25.59,0.32,0.55,0.88,-5.38,0.76,-0.73,40.85,41.69,8.37,0.71,0.7,0.39,-8.67,9.05,-2.01
902,1900-01-01 12:05:02.290,29.47,18.74,25.64,0.33,0.5,0.82,-0.75,0.37,-0.21,41.47,39.89,8.06,0.64,0.66,0.38,-5.3,8.39,-3.79
903,1900-01-01 12:05:02.337,29.75,18.24,25.76,0.31,0.49,0.8,-2.11,0.23,-0.11,42.33,38.17,7.47,0.59,0.65,0.39,-5.91,9.78,-4.11
904,1900-01-01 12:05:02.429,28.39,19.43,25.9,0.33,0.47,0.81,-0.53,1.21,-1.32,41.41,37.9,6.84,0.61,0.66,0.43,-5.53,8.16,-3.1
905,1900-01-01 12:05:02.475,30.35,17.76,25.86,0.31,0.52,0.83,-0.87,-0.95,-1.02,43.52,35.61,6.36,0.59,0.7,0.44,-6.85,12.3,-10.18
906,1900-01-01 12:05:02.573,28.05,18.14,25.86,0.31,0.47,0.83,0.56,-1.24,-0.79,41.25,33.09,4.79,0.55,0.66,0.52,-4.56,10.84,-4.42
907,1900-01-01 12:05:02.664,27.62,19.92,25.9,0.34,0.46,0.81,1.26,-2.5,-0.8,42.82,30.76,4.1,0.49,0.65,0.5,-2.01,14.37,-10.87
908,1900-01-01 12:05:02.713,32.03,18.86,25.94,0.32,0.53,0.78,-1.8,-1.73,-0.44,46.4,27.62,2.43,0.44,0.69,0.49,-5.06,7.95,-5.46
909,1900-01-01 12:05:02.804,29.81,18.73,26.03,0.32,0.5,0.81,-1.0,0.05,-1.47,42.82,29.09,1.59,0.47,0.66,0.54,-5.69,5.47,-2.95
910,1900-01-01 12:05:02.899,29.86,19.54,25.96,0.34,0.51,0.81,0.47,0.59,-2.21,44.96,28.25,1.13,0.47,0.7,0.52,-1.7,3.5,-1.78
911,1900-01-01 12:05:02.946,30.13,18.92,25.78,0.33,0.52,0.83,-0.69,-0.41,-0.69,44.02,28.15,0.85,0.47,0.7,0.55,-2.87,3.15,-0.95
912,1900-01-01 12:05:03.042,30.49,18.65,25.84,0.32,0.51,0.8,0.86,-1.98,-0.24,44.02,27.94,0.69,0.45,0.67,0.53,-3.63,5.15,-2.5
913,1900-01-01 12:05:03.087,28.12,19.35,25.96,0.33,0.46,0.8,1.48,-3.34,-0.64,42.6,24.58,0.3,0.41,0.67,0.6,-6.93,3.05,-2.57
914,1900-01-01 12:05:03.181,29.93,20.04,26.02,0.35,0.5,0.8,-0.22,-2.79,0.08,43.52,25.5,-0.1,0.42,0.67,0.56,-2.98,4.25,-1.27
915,1900-01-01 12:05:03.275,30.55,19.83,26.19,0.35,0.52,0.82,-2.41,-1.34,0.5,43.41,25.83,-0.3,0.44,0.69,0.58,-4.91,4.23,0.49
916,1900-01-01 12:05:03.325,29.7,20.44,26.42,0.35,0.5,0.8,-0.06,-1.78,-0.02,42.69,25.98,-0.23,0.43,0.66,0.57,-0.8,3.59,0.25
917,1900-01-01 12:05:03.417,30.16,20.26,26.58,0.35,0.51,0.81,-0.61,-4.1,1.21,41.74,24.7,-0.2,0.41,0.66,0.61,-3.05,4.4,-0.37
918,1900-01-01 12:05:03.484,30.0,21.1,26.92,0.36,0.5,0.79,0.95,-4.5,1.27,41.63,24.94,-0.27,0.4,0.64,0.59,-2.08,3.49,-0.84
919,1900-01-01 12:05:03.558,30.15,20.81,27.28,0.36,0.51,0.8,1.54,-5.47,-0.07,41.67,24.76,-0.4,0.41,0.65,0.6,0.66,3.21,-1.49
920,1900-01-01 12:05:03.651,30.92,23.19,27.43,0.39,0.51,0.76,4.18,-8.6,-1.51,43.74,23.65,-0.64,0.39,0.67,0.58,3.11,2.27,-2.99
921,1900-01-01 12:05:03.699,31.72,23.56,27.35,0.41,0.53,0.76,2.55,-6.18,-1.27,44.49,23.31,-1.1,0.38,0.68,0.58,0.94,0.16,-1.5
922,1900-01-01 12:05:03.792,30.22,23.97,27.32,0.41,0.51,0.78,2.15,-5.34,-0.71,44.07,23.9,-1.34,0.4,0.68,0.58,2.65,-0.52,-2.11
923,1900-01-01 12:05:03.886,31.61,24.65,27.37,0.43,0.54,0.77,-0.54,-1.91,-1.18,45.93,23.83,-1.67,0.4,0.71,0.56,-1.23,0.94,-0.6
924,1900-01-01 12:05:03.932,31.72,24.24,27.34,0.42,0.54,0.76,-0.76,-1.37,0.54,45.06,23.46,-1.77,0.39,0.7,0.57,-0.68,0.71,0.46
925,1900-01-01 12:05:04.025,31.24,25.3,27.59,0.43,0.52,0.74,-0.37,-1.47,-0.03,44.77,23.58,-1.71,0.38,0.68,0.56,0.02,0.53,0.67
926,1900-01-01 12:05:04.119,32.1,25.02,27.74,0.42,0.53,0.73,-0.01,-0.41,-0.49,45.62,23.14,-1.62,0.38,0.68,0.55,0.5,-1.81,0.56
927,1900-01-01 12:05:04.164,30.91,26.27,27.82,0.43,0.49,0.71,1.27,1.67,-1.25,46.44,23.21,-1.54,0.37,0.68,0.53,5.01,-9.13,6.91
928,1900-01-01 12:05:04.259,31.64,25.01,27.79,0.43,0.53,0.75,-0.92,2.95,-1.71,44.75,27.55,-0.5,0.45,0.68,0.52,4.6,-10.67,4.11
929,1900-01-01 12:05:04.305,32.97,23.81,27.69,0.42,0.56,0.76,-2.49,3.04,-1.04,45.92,29.74,0.12,0.5,0.72,0.49,2.58,-16.02,7.33
930,1900-01-01 12:05:04.398,30.85,23.09,27.69,0.4,0.53,0.78,0.67,1.28,-2.09,44.57,30.97,1.23,0.51,0.7,0.49,5.58,-10.11,3.73
931,1900-01-01 12:05:04.492,31.19,23.2,27.53,0.4,0.53,0.77,-0.82,-0.27,-1.65,44.39,33.74,1.79,0.54,0.69,0.44,4.38,-9.07,2.16
932,1900-01-01 12:05:04.541,32.1,23.71,27.44,0.41,0.54,0.75,-0.21,-0.87,-2.22,47.39,32.38,2.11,0.53,0.73,0.41,2.29,-6.27,0.85
933,1900-01-01 12:05:04.633,31.69,23.94,27.26,0.42,0.54,0.77,-1.02,-0.57,-1.07,45.63,35.08,2.23,0.57,0.71,0.4,0.83,-4.21,1.33
934,1900-01-01 12:05:04.727,31.1,23.82,27.25,0.41,0.53,0.77,-1.28,-0.79,-0.92,45.79,34.84,2.43,0.57,0.72,0.4,-0.3,-2.56,2.27
935,1900-01-01 12:05:04.774,31.39,23.65,27.27,0.41,0.53,0.76,-1.57,-1.51,-0.69,45.58,35.42,2.77,0.57,0.7,0.38,-1.0,-0.07,-0.02
936,1900-01-01 12:05:04.868,32.3,23.11,27.32,0.39,0.54,0.75,-1.42,-0.31,-0.73,46.02,34.84,2.76,0.56,0.7,0.39,-1.32,-1.11,0.88
937,1900-01-01 12:05:04.915,31.28,23.53,27.37,0.4,0.52,0.76,-1.27,-0.23,-1.85,45.32,35.32,2.88,0.57,0.7,0.39,-0.65,-0.72,0.11
938,1900-01-01 12:05:05.010,31.66,23.78,27.24,0.41,0.53,0.76,-1.25,-0.48,-1.85,45.99,35.76,2.89,0.58,0.72,0.37,-0.86,-0.5,-0.08
939,1900-01-01 12:05:05.103,31.52,24.01,27.12,0.41,0.53,0.76,-1.15,-0.36,-1.58,46.03,35.45,2.87,0.58,0.72,0.38,-1.0,-0.05,-0.63
940,1900-01-01 12:05:05.150,31.8,23.8,27.04,0.41,0.53,0.76,-0.98,-0.71,-1.5,46.08,36.0,2.77,0.58,0.71,0.36,-1.07,-0.53,-0.27
941,1900-01-01 12:05:05.242,31.49,23.55,26.96,0.4,0.53,0.76,-0.63,-1.03,-1.34,45.91,35.68,2.72,0.57,0.7,0.37,-1.21,0.24,0.17
942,1900-01-01 12:05:05.337,31.11,23.61,26.92,0.4,0.51,0.75,-0.79,-0.41,-2.55,45.46,36.87,2.73,0.58,0.69,0.35,-0.92,0.62,-0.23
943,1900-01-01 12:05:05.384,31.73,23.21,26.69,0.4,0.53,0.76,-0.87,-0.01,-3.7,44.86,36.67,2.69,0.57,0.68,0.37,-0.25,1.55,-1.0
944,1900-01-01 12:05:05.476,31.16,21.92,26.28,0.38,0.52,0.78,-2.09,0.24,-4.68,43.33,37.24,2.53,0.58,0.66,0.39,-2.79,2.8,-2.39
945,1900-01-01 12:05:05.571,31.12,22.79,25.73,0.39,0.52,0.77,-1.02,1.24,-6.56,46.86,34.77,2.16,0.58,0.74,0.38,1.8,2.27,0.53
946,1900-01-01 12:05:05.617,32.2,23.25,24.89,0.4,0.54,0.76,0.53,-0.52,-5.93,39.52,41.86,2.23,0.61,0.59,0.36,12.02,-4.91,-7.74
947,1900-01-01 12:05:05.727,35.06,20.94,24.14,0.37,0.59,0.76,-2.11,-2.82,-2.85,48.27,34.73,1.04,0.56,0.73,0.34,-1.9,-2.46,-1.84
948,1900-01-01 12:05:05.759,33.0,22.17,23.86,0.38,0.55,0.75,0.3,-0.47,-2.73,48.69,35.21,0.75,0.57,0.74,0.31,0.96,-4.7,-2.95
949,1900-01-01 12:05:05.851,32.97,21.2,23.61,0.37,0.56,0.77,-1.94,-1.76,-2.79,48.54,34.61,0.29,0.57,0.75,0.34,-2.02,-2.81,-0.19
950,1900-01-01 12:05:05.946,33.59,22.04,23.34,0.38,0.56,0.75,0.46,-3.59,-2.47,48.97,35.34,0.25,0.56,0.74,0.3,-0.4,-3.82,-2.52
951,1900-01-01 12:05:05.993,34.63,21.62,23.12,0.38,0.59,0.76,-1.11,-2.64,-2.34,50.25,34.68,-0.14,0.57,0.77,0.29,-1.85,-1.94,-1.73
952,1900-01-01 12:05:06.086,33.45,21.97,22.92,0.38,0.56,0.75,0.95,-1.85,-1.76,49.85,35.13,-0.42,0.58,0.77,0.29,-0.27,-3.35,-1.13
953,1900-01-01 12:05:06.179,33.95,23.19,22.81,0.4,0.56,0.73,0.16,-2.61,-2.02,50.73,34.22,-0.6,0.56,0.77,0.29,0.6,-2.2,-0.76
954,1900-01-01 12:05:06.225,34.08,21.3,22.66,0.37,0.57,0.76,-0.81,-2.82,-0.96,50.09,34.98,-0.72,0.57,0.77,0.29,-1.21,-0.37,-1.02
955,1900-01-01 12:05:06.320,33.42,22.13,22.67,0.38,0.55,0.74,-1.34,-1.91,-1.14,50.43,34.97,-0.89,0.57,0.77,0.28,-1.6,-0.5,-0.63
956,1900-01-01 12:05:06.415,33.83,22.18,22.65,0.38,0.56,0.74,-0.9,-1.01,-0.97,50.57,34.62,-0.99,0.56,0.76,0.28,-1.54,2.24,0.48
957,1900-01-01 12:05:06.459,34.85,22.57,22.66,0.38,0.57,0.72,-0.02,-0.32,-0.82,50.9,33.84,-0.93,0.54,0.76,0.29,-2.02,2.51,0.28
958,1900-01-01 12:05:06.553,33.53,23.18,22.69,0.4,0.56,0.74,-0.43,-0.45,-1.29,50.6,34.67,-0.89,0.57,0.77,0.28,-1.06,2.08,-0.4
959,1900-01-01 12:05:06.600,33.35,23.12,22.65,0.4,0.56,0.75,-1.5,0.29,-1.4,49.65,35.1,-0.96,0.58,0.76,0.3,-2.11,2.53,0.82
960,1900-01-01 12:05:06.693,33.18,22.97,22.6,0.39,0.55,0.75,-2.02,-0.86,-1.97,49.22,35.54,-0.85,0.57,0.75,0.29,-2.05,2.18,-0.6
961,1900-01-01 12:05:06.788,34.66,21.96,22.46,0.37,0.56,0.72,0.95,0.37,-2.73,50.95,33.43,-0.95,0.53,0.74,0.29,-1.58,2.07,-2.27
962,1900-01-01 12:05:06.834,33.71,21.93,22.2,0.38,0.56,0.75,-0.08,-0.37,-4.07,49.4,35.0,-1.3,0.58,0.76,0.31,-0.85,1.7,-2.03
963,1900-01-01 12:05:06.928,34.33,23.28,21.73,0.41,0.59,0.76,1.49,-1.56,-4.18,51.57,33.63,-1.62,0.58,0.82,0.29,-0.27,0.45,-3.86
