Time,Roll2,Pitch2,Yaw2,AccX2,AccY2,AccZ2,RotX2,RotY2,RotZ2,Roll1,Pitch1,Yaw1,AccX1,AccY1,AccZ1,RotX1,RotY1,RotZ1
1900-01-01 17:46:51.430,28.34,14.51,-1.15,0.25,0.48,0.85,-0.35,-0.28,-0.81,39.82,17.3,-0.73,0.29,0.62,0.69,-1.31,1.15,0.04
1900-01-01 17:46:51.470,28.27,14.46,-1.12,0.25,0.48,0.85,-0.36,-0.28,-0.69,39.93,17.4,-0.73,0.29,0.62,0.68,-1.24,1.21,0.12
1900-01-01 17:46:51.564,28.24,14.72,-1.06,0.26,0.48,0.86,-0.44,-0.53,-0.86,40.14,17.53,-0.72,0.29,0.63,0.68,-1.34,1.36,-0.03
1900-01-01 17:46:51.611,28.13,14.5,-1.04,0.25,0.48,0.85,-0.33,-0.44,-0.78,39.89,17.47,-0.74,0.29,0.62,0.68,-1.08,1.31,0.01
1900-01-01 17:46:51.707,27.94,14.65,-1.0,0.26,0.47,0.85,-0.74,-0.4,-0.99,39.7,17.66,-0.74,0.29,0.62,0.69,-1.24,1.19,-0.05
1900-01-01 17:46:51.801,28.07,14.52,-0.99,0.25,0.47,0.85,-0.74,-0.16,-0.75,39.71,17.44,-0.76,0.29,0.62,0.68,-1.33,1.34,0.08
1900-01-01 17:46:51.847,28.23,14.61,-0.95,0.25,0.48,0.85,-0.44,-0.26,-0.82,39.65,17.5,-0.76,0.29,0.62,0.69,-1.31,1.24,0.03
1900-01-01 17:46:51.940,28.42,14.56,-0.91,0.25,0.48,0.85,-0.41,-0.25,-0.79,39.88,17.56,-0.76,0.29,0.62,0.68,-1.24,1.27,0.08
1900-01-01 17:46:52.034,28.15,14.42,-0.88,0.25,0.48,0.85,-0.58,-0.27,-0.9,39.85,17.25,-0.76,0.29,0.62,0.69,-1.33,1.31,0.02
1900-01-01 17:46:52.082,28.22,14.72,-0.85,0.26,0.48,0.85,-0.65,-0.24,-0.88,39.79,17.62,-0.76,0.29,0.62,0.69,-1.4,1.32,-0.02
1900-01-01 17:46:52.176,28.0,14.72,-0.83,0.26,0.47,0.86,-0.5,-0.4,-0.86,39.49,17.67,-0.77,0.29,0.62,0.69,-1.33,1.21,0.03
1900-01-01 17:46:52.222,28.36,14.5,-0.8,0.25,0.48,0.85,-0.73,-0.45,-0.92,40.17,17.26,-0.78,0.29,0.62,0.68,-1.47,1.31,-0.01
1900-01-01 17:46:52.330,28.4,14.05,-0.79,0.24,0.48,0.85,-0.08,-0.13,-0.64,40.01,17.12,-0.79,0.29,0.63,0.69,-1.23,1.16,0.29
1900-01-01 17:46:52.417,28.52,14.7,-0.72,0.26,0.48,0.85,-0.23,-0.63,-0.95,40.26,17.39,-0.75,0.29,0.63,0.68,-1.19,1.24,-0.17
1900-01-01 17:46:52.459,27.91,14.43,-0.71,0.25,0.47,0.85,-0.47,-0.23,-0.66,39.5,17.3,-0.78,0.29,0.61,0.69,-0.98,1.3,0.06
1900-01-01 17:46:52.552,28.69,14.83,-0.66,0.26,0.49,0.85,-0.53,-0.24,-0.86,40.09,17.71,-0.78,0.3,0.63,0.68,-1.27,1.34,0.03
1900-01-01 17:46:52.647,28.07,14.44,-0.63,0.25,0.47,0.85,-0.66,-0.37,-0.93,39.76,17.23,-0.79,0.29,0.62,0.68,-1.37,1.28,0.0
1900-01-01 17:46:52.696,28.14,14.86,-0.61,0.26,0.48,0.85,-0.24,-0.34,-0.98,40.03,17.6,-0.8,0.3,0.63,0.69,-0.91,1.33,-0.15
1900-01-01 17:46:52.786,28.13,14.63,-0.6,0.25,0.47,0.85,-0.07,-0.21,-0.82,39.74,17.34,-0.83,0.29,0.62,0.69,-0.83,1.3,-0.15
1900-01-01 17:46:52.833,28.11,14.73,-0.57,0.26,0.48,0.85,-0.71,-0.27,-0.97,39.6,17.61,-0.86,0.29,0.62,0.69,-1.29,1.24,-0.08
1900-01-01 17:46:52.930,28.21,14.65,-0.56,0.25,0.48,0.85,-0.66,0.02,-0.76,39.49,17.62,-0.88,0.29,0.62,0.69,-1.32,1.32,0.02
1900-01-01 17:46:53.026,28.13,14.53,-0.52,0.25,0.48,0.85,-0.93,-0.14,-0.79,39.42,17.64,-0.88,0.29,0.61,0.69,-1.55,1.27,0.08
1900-01-01 17:46:53.071,28.18,14.5,-0.48,0.25,0.48,0.85,-0.73,-0.11,-0.66,39.57,17.48,-0.88,0.29,0.62,0.69,-1.47,1.29,0.16
1900-01-01 17:46:53.164,28.5,14.45,-0.42,0.25,0.48,0.85,-0.8,-0.11,-0.67,39.78,17.32,-0.86,0.29,0.62,0.69,-1.57,1.23,0.21
1900-01-01 17:46:53.255,28.36,14.22,-0.37,0.25,0.48,0.85,-0.49,-0.19,-0.67,39.96,17.42,-0.84,0.29,0.62,0.68,-1.36,1.24,0.17
1900-01-01 17:46:53.303,28.45,14.33,-0.31,0.25,0.48,0.85,-0.54,-0.37,-0.79,39.95,17.42,-0.82,0.29,0.62,0.68,-1.37,1.26,0.07
1900-01-01 17:46:53.399,28.38,14.37,-0.27,0.25,0.48,0.85,-0.58,-0.27,-0.57,39.88,17.37,-0.82,0.29,0.62,0.69,-1.42,1.25,0.2
1900-01-01 17:46:53.456,28.46,14.21,-0.2,0.25,0.48,0.85,-0.69,-0.15,-0.89,39.94,17.21,-0.8,0.29,0.62,0.69,-1.4,1.31,0.03
1900-01-01 17:46:53.573,28.06,14.59,-0.18,0.25,0.48,0.85,-0.6,-0.27,-0.85,39.72,17.48,-0.8,0.29,0.62,0.69,-1.37,1.28,0.05
1900-01-01 17:46:53.647,28.34,14.43,-0.15,0.25,0.48,0.85,-0.56,-0.44,-0.75,39.92,17.45,-0.8,0.29,0.62,0.68,-1.4,1.2,0.11
1900-01-01 17:46:53.681,28.45,14.45,-0.11,0.25,0.48,0.85,-0.26,-0.53,-1.01,40.06,17.5,-0.79,0.29,0.63,0.69,-1.11,1.24,-0.05
1900-01-01 17:46:53.771,28.2,14.27,-0.1,0.25,0.48,0.85,-0.58,-0.36,-1.02,40.01,17.08,-0.81,0.28,0.62,0.69,-1.28,1.3,-0.07
1900-01-01 17:46:53.863,28.12,14.67,-0.1,0.26,0.48,0.86,-0.57,-0.3,-0.9,39.73,17.62,-0.83,0.29,0.62,0.69,-1.14,1.37,-0.08
1900-01-01 17:46:53.911,28.16,14.42,-0.08,0.25,0.48,0.85,-0.61,-0.32,-0.83,39.78,17.41,-0.85,0.29,0.62,0.69,-1.32,1.23,0.09
1900-01-01 17:46:54.006,28.28,14.46,-0.05,0.25,0.48,0.85,-0.51,-0.44,-0.92,39.94,17.34,-0.84,0.29,0.62,0.69,-1.2,1.26,0.0
1900-01-01 17:46:54.108,28.17,14.64,-0.03,0.25,0.48,0.85,-0.58,-0.51,-0.79,39.58,17.5,-0.85,0.29,0.62,0.69,-1.27,1.22,0.05
1900-01-01 17:46:54.145,28.27,14.38,0.01,0.25,0.48,0.85,-0.5,-0.66,-0.89,39.91,17.37,-0.85,0.29,0.62,0.69,-1.24,1.19,0.01
1900-01-01 17:46:54.242,27.9,14.7,0.03,0.26,0.47,0.85,-0.58,-0.54,-0.72,39.43,17.56,-0.86,0.29,0.61,0.69,-1.13,1.23,0.05
1900-01-01 17:46:54.287,28.19,14.54,0.08,0.25,0.48,0.85,-0.94,-0.31,-0.89,39.73,17.38,-0.86,0.29,0.62,0.69,-1.48,1.24,0.07
1900-01-01 17:46:54.380,28.15,14.68,0.1,0.26,0.48,0.85,-0.88,-0.27,-0.84,39.63,17.46,-0.86,0.29,0.62,0.69,-1.5,1.26,0.05
1900-01-01 17:46:54.471,28.27,14.6,0.13,0.25,0.48,0.85,-0.6,-0.4,-0.85,39.81,17.33,-0.86,0.29,0.62,0.69,-1.45,1.15,0.09
1900-01-01 17:46:54.518,28.41,14.48,0.16,0.25,0.48,0.85,-0.24,-0.51,-0.92,40.09,17.38,-0.86,0.29,0.63,0.68,-1.08,1.21,-0.05
1900-01-01 17:46:54.613,28.09,14.48,0.18,0.25,0.47,0.85,-0.38,-0.47,-0.89,39.77,17.5,-0.87,0.29,0.62,0.69,-1.24,1.15,0.09
1900-01-01 17:46:54.718,28.2,14.57,0.2,0.25,0.48,0.85,-0.56,-0.34,-0.88,39.85,17.34,-0.87,0.29,0.62,0.69,-1.29,1.28,0.01
1900-01-01 17:46:54.752,28.16,14.52,0.23,0.25,0.48,0.85,-0.66,-0.31,-0.93,39.7,17.46,-0.87,0.29,0.62,0.69,-1.25,1.28,-0.01
1900-01-01 17:46:54.847,28.15,14.64,0.24,0.26,0.48,0.86,-0.52,-0.38,-0.93,39.73,17.4,-0.88,0.29,0.62,0.69,-1.2,1.16,-0.21
1900-01-01 17:46:54.941,28.17,14.41,0.26,0.25,0.47,0.85,-0.42,-0.53,-0.98,39.79,17.26,-0.92,0.29,0.62,0.69,-0.86,1.31,0.04
1900-01-01 17:46:54.989,28.46,14.75,0.27,0.26,0.48,0.85,-0.79,-0.31,-0.21,39.8,17.64,-0.93,0.29,0.62,0.69,-2.01,0.85,0.23
1900-01-01 17:46:55.086,28.12,14.35,0.39,0.25,0.47,0.85,-0.84,-0.57,-1.4,39.66,17.23,-0.9,0.29,0.62,0.69,-1.6,1.14,-0.21
1900-01-01 17:46:55.128,27.81,15.13,0.34,0.26,0.47,0.85,-0.81,0.23,-0.8,39.51,17.7,-0.94,0.3,0.62,0.69,-1.19,1.63,0.13
1900-01-01 17:46:55.220,28.61,14.5,0.38,0.25,0.48,0.85,-0.41,-0.39,-0.79,40.0,17.43,-0.93,0.29,0.62,0.68,-1.36,1.12,-0.01
1900-01-01 17:46:55.314,28.01,14.5,0.41,0.25,0.47,0.85,-0.27,-0.89,-1.03,39.64,17.46,-0.94,0.29,0.62,0.69,-1.16,0.96,-0.07
1900-01-01 17:46:55.361,27.93,14.71,0.41,0.26,0.47,0.85,-0.11,-0.15,-0.6,39.75,17.36,-0.96,0.29,0.62,0.69,-0.77,1.5,0.08
1900-01-01 17:46:55.455,28.41,14.8,0.48,0.26,0.48,0.85,0.16,-0.43,-0.76,39.71,17.6,-0.95,0.29,0.62,0.69,-0.89,1.34,-0.06
1900-01-01 17:46:55.512,28.12,14.76,0.52,0.26,0.48,0.85,-0.44,-0.44,-0.8,39.77,17.51,-0.97,0.29,0.62,0.69,-1.27,1.31,0.11
1900-01-01 17:46:55.593,28.53,14.57,0.56,0.25,0.48,0.85,-0.01,-0.11,-0.79,40.27,17.3,-0.96,0.29,0.63,0.68,-1.14,1.37,0.13
1900-01-01 17:46:55.686,28.51,15.07,0.6,0.27,0.49,0.86,-1.54,0.85,0.18,39.79,17.85,-0.95,0.3,0.62,0.69,-3.63,1.48,0.5
1900-01-01 17:46:55.733,27.62,13.95,0.78,0.24,0.47,0.86,-1.92,2.51,-0.18,40.21,16.79,-0.88,0.28,0.63,0.69,-2.25,2.95,0.85
1900-01-01 17:46:55.825,27.69,14.68,0.91,0.25,0.47,0.85,-2.45,1.3,3.05,39.03,17.71,-0.76,0.3,0.61,0.69,-2.82,2.6,2.68
1900-01-01 17:46:55.919,29.35,13.15,1.54,0.23,0.51,0.87,-8.21,-0.99,4.15,41.44,16.57,-0.36,0.28,0.66,0.69,-5.05,1.5,2.54
1900-01-01 17:46:55.966,23.61,16.86,2.33,0.31,0.42,0.91,-22.53,-8.47,8.23,39.08,18.01,0.01,0.32,0.66,0.75,-13.6,10.2,3.45
1900-01-01 17:46:56.058,20.7,19.51,3.74,0.35,0.37,0.91,4.33,-9.04,6.59,34.82,18.65,0.53,0.34,0.6,0.79,13.18,12.11,-0.08
1900-01-01 17:46:56.152,26.17,20.14,4.9,0.37,0.48,0.9,15.11,-12.92,8.21,42.08,13.95,0.51,0.27,0.76,0.8,16.26,-3.3,7.54
1900-01-01 17:46:56.199,24.24,21.7,6.31,0.35,0.39,0.79,15.92,-13.81,10.31,38.77,18.01,1.65,0.27,0.54,0.62,17.63,-7.96,11.95
1900-01-01 17:46:56.292,26.48,19.75,8.05,0.28,0.37,0.7,8.61,-5.08,3.43,42.45,18.01,3.47,0.22,0.48,0.47,6.92,1.95,2.65
1900-01-01 17:46:56.384,27.59,20.02,8.73,0.31,0.42,0.73,-0.19,7.32,-3.98,42.45,18.64,3.87,0.25,0.53,0.52,-4.96,11.29,-8.64
1900-01-01 17:46:56.431,27.99,19.85,8.28,0.34,0.48,0.83,-10.38,15.11,-8.36,42.64,14.31,2.54,0.24,0.65,0.66,-23.98,24.92,-16.02
1900-01-01 17:46:56.526,30.51,15.49,7.15,0.31,0.6,0.96,-5.01,10.77,-3.76,40.95,7.54,0.07,0.17,0.83,0.95,-28.8,19.47,-5.15
1900-01-01 17:46:56.571,27.42,22.4,6.74,0.38,0.46,0.8,2.02,2.69,-2.42,39.55,13.08,-0.73,0.22,0.63,0.72,-3.66,6.44,-0.7
1900-01-01 17:46:56.667,25.08,18.47,6.53,0.32,0.43,0.86,-6.92,1.02,-1.56,36.94,10.22,-0.84,0.17,0.58,0.75,-7.03,-0.47,3.02
1900-01-01 17:46:56.760,26.32,17.52,6.45,0.31,0.45,0.86,-1.0,0.73,-0.85,36.7,10.8,-0.39,0.18,0.58,0.76,-5.21,-2.21,2.04
1900-01-01 17:46:56.806,26.36,16.93,6.47,0.3,0.46,0.87,-2.05,0.7,-1.98,36.78,11.13,-0.09,0.19,0.58,0.75,-2.08,-1.34,-0.09
1900-01-01 17:46:56.901,24.98,17.6,6.33,0.31,0.43,0.86,-2.59,1.8,-2.33,35.85,11.24,-0.11,0.19,0.56,0.76,-2.23,0.94,-0.45
1900-01-01 17:46:56.994,25.39,16.55,6.13,0.29,0.43,0.86,-1.6,1.08,-0.95,36.24,10.94,-0.19,0.18,0.57,0.76,-2.15,-0.15,0.67
1900-01-01 17:46:57.042,22.77,16.88,6.15,0.3,0.4,0.91,-2.5,1.59,-0.62,35.09,10.04,-0.1,0.18,0.59,0.82,6.99,0.43,6.75
1900-01-01 17:46:57.137,25.24,16.22,6.21,0.28,0.42,0.86,-4.47,2.5,0.49,35.78,4.3,0.92,0.09,0.72,0.99,21.91,-41.31,38.82
1900-01-01 17:46:57.184,17.25,18.19,6.44,0.37,0.35,1.08,-2.6,-18.4,-3.23,30.63,34.37,6.82,0.59,0.53,0.68,23.76,-78.69,26.45
1900-01-01 17:46:57.277,19.44,24.03,6.11,0.46,0.37,0.95,-2.84,-28.12,-10.75,30.57,42.58,10.87,0.7,0.53,0.55,7.41,-79.97,7.6
1900-01-01 17:46:57.372,23.03,27.3,4.62,0.46,0.39,0.8,-4.04,-27.27,-15.7,39.31,45.52,12.03,0.65,0.58,0.27,-1.09,-77.93,4.7
1900-01-01 17:46:57.418,29.16,20.52,2.36,0.35,0.49,0.8,-21.35,-16.39,-11.27,50.44,39.41,12.74,0.66,0.8,-0.05,-35.44,-47.27,7.61
1900-01-01 17:46:57.511,27.58,25.93,0.77,0.42,0.44,0.74,-16.11,-14.97,-5.27,38.82,47.83,13.91,0.67,0.57,0.22,-25.82,-11.55,2.6
1900-01-01 17:46:57.578,21.77,27.38,0.12,0.44,0.36,0.78,-9.64,-10.25,-1.81,32.75,53.25,14.31,0.68,0.46,0.22,-28.01,34.95,-32.17
1900-01-01 17:46:57.652,17.92,26.36,0.0,0.44,0.3,0.83,-15.11,-7.26,-3.4,34.03,44.21,9.34,0.66,0.53,0.42,-39.08,42.84,-35.12
1900-01-01 17:46:57.745,25.29,26.71,-0.37,0.44,0.42,0.77,1.5,3.11,-1.4,47.22,26.26,3.92,0.49,0.81,0.57,5.34,-0.47,7.46
1900-01-01 17:46:57.794,18.01,32.49,-0.42,0.54,0.31,0.78,-5.31,3.3,2.27,38.21,37.55,5.04,0.59,0.6,0.48,-3.39,1.69,17.7
1900-01-01 17:46:57.895,13.45,29.71,0.08,0.52,0.24,0.88,-14.27,0.95,0.63,31.12,42.73,7.72,0.68,0.52,0.53,-14.13,-0.74,8.22
1900-01-01 17:46:57.981,13.25,31.4,0.34,0.53,0.24,0.84,3.98,-2.63,-3.02,29.75,45.28,8.97,0.69,0.48,0.48,3.49,2.49,-2.77
1900-01-01 17:46:58.025,18.83,28.32,0.04,0.48,0.33,0.83,1.25,0.1,-4.85,40.34,36.63,8.54,0.6,0.65,0.48,0.02,-1.67,-0.05
1900-01-01 17:46:58.120,16.04,29.67,-0.54,0.51,0.28,0.84,4.2,0.43,-2.71,33.6,41.44,8.52,0.67,0.56,0.51,5.44,-4.73,-1.08
1900-01-01 17:46:58.214,14.93,29.52,-0.79,0.53,0.28,0.89,2.58,-4.26,-6.8,33.49,44.07,8.35,0.71,0.57,0.47,5.7,-4.19,-5.94
1900-01-01 17:46:58.273,18.86,28.61,-1.67,0.49,0.33,0.84,-0.89,-5.71,-7.05,39.01,40.88,7.44,0.66,0.63,0.42,-1.18,-1.61,-5.01
1900-01-01 17:46:58.354,20.22,29.32,-2.59,0.5,0.35,0.81,-4.57,-3.84,-5.49,41.54,38.35,6.66,0.61,0.65,0.41,-9.43,0.78,-2.75
1900-01-01 17:46:58.401,17.76,29.95,-3.27,0.5,0.3,0.8,-6.56,-0.85,-2.03,36.96,39.08,6.23,0.61,0.58,0.48,-10.31,-0.56,-3.58
1900-01-01 17:46:58.495,15.87,29.69,-3.43,0.51,0.28,0.85,-9.24,-1.05,-3.41,35.26,42.45,5.67,0.67,0.58,0.46,-8.66,-3.23,-6.24
1900-01-01 17:46:58.587,18.28,31.88,-3.79,0.55,0.33,0.82,3.05,-1.79,-4.08,42.31,38.33,4.71,0.64,0.69,0.41,3.09,6.03,-5.71
1900-01-01 17:46:58.635,17.4,30.84,-4.25,0.53,0.31,0.83,3.58,-0.2,1.5,38.06,38.71,3.83,0.61,0.61,0.47,5.1,7.92,0.49
1900-01-01 17:46:58.727,18.54,30.5,-3.87,0.5,0.31,0.79,5.76,0.44,1.78,41.25,36.84,3.9,0.58,0.64,0.44,4.11,4.15,0.58
1900-01-01 17:46:58.821,18.61,30.06,-3.44,0.5,0.32,0.81,-0.31,3.74,3.51,40.1,38.16,3.98,0.61,0.64,0.44,0.33,2.1,3.96
1900-01-01 17:46:58.867,16.73,29.77,-2.75,0.51,0.3,0.85,0.0,1.92,2.31,37.5,39.86,4.57,0.64,0.61,0.47,-0.84,2.48,3.76
1900-01-01 17:46:58.961,17.81,30.74,-2.24,0.52,0.31,0.82,1.26,2.05,1.55,38.54,39.73,5.13,0.63,0.61,0.44,-1.31,4.47,1.68
1900-01-01 17:46:59.010,16.25,30.41,-1.85,0.52,0.29,0.83,-0.83,1.66,2.34,36.19,39.86,5.38,0.63,0.58,0.48,-2.3,7.31,1.59
1900-01-01 17:46:59.101,16.78,29.53,-1.34,0.51,0.3,0.85,-2.33,0.98,1.34,37.13,38.62,5.61,0.63,0.61,0.5,-1.92,5.4,1.57
1900-01-01 17:46:59.195,18.71,28.61,-0.97,0.49,0.33,0.83,-0.45,1.46,1.64,39.56,36.91,5.84,0.6,0.63,0.48,-2.41,3.21,2.65
1900-01-01 17:46:59.240,16.25,29.92,-0.56,0.5,0.28,0.83,-1.7,0.56,1.72,35.62,38.78,6.23,0.62,0.58,0.51,-3.96,4.17,4.1
1900-01-01 17:46:59.334,15.91,30.44,-0.15,0.51,0.28,0.83,0.6,0.15,-0.37,35.28,39.61,6.85,0.63,0.57,0.51,0.81,4.72,1.69
1900-01-01 17:46:59.427,16.97,29.49,-0.04,0.51,0.3,0.85,0.16,-0.81,-1.66,37.38,38.13,7.09,0.61,0.6,0.49,-0.57,3.34,0.02
1900-01-01 17:46:59.474,16.46,28.41,-0.14,0.49,0.29,0.86,-0.82,-0.88,-0.79,36.35,37.5,7.09,0.6,0.59,0.52,-2.46,3.88,-0.98
1900-01-01 17:46:59.568,16.09,30.39,-0.1,0.51,0.28,0.82,-0.29,-0.09,-0.47,34.25,39.33,6.93,0.62,0.55,0.52,-1.76,4.24,-1.24
1900-01-01 17:46:59.660,17.17,29.65,-0.01,0.51,0.3,0.84,0.11,-0.76,-2.34,37.54,36.76,6.73,0.59,0.6,0.51,-1.83,2.66,-2.71
1900-01-01 17:46:59.707,16.0,30.23,-0.21,0.52,0.28,0.84,-0.47,-0.72,-2.54,35.91,37.54,6.31,0.61,0.58,0.53,-1.54,1.84,-2.76
1900-01-01 17:46:59.802,16.78,29.69,-0.44,0.51,0.3,0.84,-0.53,-1.18,-2.48,37.42,36.06,5.88,0.59,0.61,0.53,-1.85,2.6,-2.78
1900-01-01 17:46:59.848,17.26,29.39,-0.66,0.5,0.3,0.84,-0.5,-1.02,-1.56,38.34,35.41,5.45,0.58,0.62,0.53,-2.15,2.75,-0.88
1900-01-01 17:46:59.941,17.22,30.21,-0.74,0.51,0.3,0.82,0.25,-0.59,-1.47,37.76,35.83,5.31,0.57,0.6,0.52,-1.62,1.73,-0.85
1900-01-01 17:47:00.036,17.28,30.01,-0.81,0.51,0.31,0.84,0.29,-1.08,-1.55,36.2,36.59,5.17,0.59,0.58,0.54,-1.73,2.18,-2.88
1900-01-01 17:47:00.081,18.13,29.25,-0.88,0.5,0.32,0.83,-0.06,-0.26,-1.27,38.88,34.32,4.72,0.55,0.61,0.52,-1.65,1.54,-0.61
1900-01-01 17:47:00.175,17.37,29.3,-0.92,0.49,0.3,0.82,2.88,0.99,-1.14,35.33,34.73,4.62,0.55,0.56,0.57,9.31,-1.66,-2.41
1900-01-01 17:47:00.268,16.86,31.4,-0.93,0.51,0.28,0.79,20.88,3.39,-4.33,38.51,37.57,4.24,0.56,0.58,0.45,38.26,-5.22,-10.07
1900-01-01 17:47:00.316,22.91,28.68,-1.44,0.49,0.4,0.81,21.29,4.31,-4.11,45.19,37.53,2.69,0.59,0.68,0.34,34.76,-6.87,-9.37
1900-01-01 17:47:00.411,27.35,27.72,-1.91,0.49,0.48,0.79,10.69,2.95,-2.18,51.06,33.31,1.25,0.57,0.81,0.32,12.82,-5.69,1.23
1900-01-01 17:47:00.456,26.08,28.04,-2.08,0.47,0.44,0.77,10.06,1.98,-1.06,50.16,34.46,1.43,0.57,0.77,0.3,13.67,-4.0,-0.35
1900-01-01 17:47:00.550,27.53,27.64,-2.09,0.46,0.46,0.76,3.89,0.06,0.05,50.2,36.16,1.37,0.57,0.75,0.24,12.24,-6.11,0.66
1900-01-01 17:47:00.643,29.36,26.7,-1.92,0.46,0.5,0.77,4.6,-0.74,0.67,51.87,35.86,1.46,0.58,0.78,0.19,10.01,-5.4,-0.03
1900-01-01 17:47:00.690,29.73,27.73,-1.66,0.47,0.5,0.74,10.65,-1.68,2.07,51.71,36.49,1.45,0.59,0.77,0.17,12.65,-3.39,-2.05
1900-01-01 17:47:00.783,31.28,27.77,-1.19,0.46,0.51,0.71,19.4,0.05,4.08,56.21,32.9,1.13,0.55,0.84,0.12,19.49,-3.2,-5.87
1900-01-01 17:47:00.877,33.37,30.79,-0.41,0.5,0.54,0.65,25.92,-0.45,6.18,53.25,36.53,0.22,0.57,0.77,0.06,26.02,-5.67,-6.23
1900-01-01 17:47:00.923,35.14,30.51,0.7,0.52,0.59,0.65,18.82,-6.24,5.71,54.85,35.13,-0.74,0.59,0.84,0.02,14.98,-8.08,1.15
1900-01-01 17:47:01.017,36.76,30.99,1.73,0.53,0.61,0.63,10.62,-9.23,8.03,55.58,34.41,-0.57,0.58,0.84,-0.01,8.79,-5.66,7.69
1900-01-01 17:47:01.064,35.86,31.48,3.11,0.54,0.6,0.64,4.73,-1.64,7.27,54.1,35.8,0.6,0.6,0.84,-0.04,5.15,-4.31,9.15
1900-01-01 17:47:01.157,34.95,33.05,4.37,0.56,0.59,0.63,1.41,-2.48,8.08,50.31,39.46,1.97,0.64,0.77,-0.06,0.3,-1.47,9.02
1900-01-01 17:47:01.253,35.49,36.99,5.76,0.63,0.6,0.57,-2.63,17.25,10.74,50.88,38.67,3.34,0.63,0.78,-0.09,-4.95,-3.28,10.44
1900-01-01 17:47:01.300,35.01,33.85,7.56,0.57,0.59,0.62,6.79,-4.2,4.41,48.5,41.27,4.93,0.67,0.76,-0.06,4.05,-0.19,2.2
1900-01-01 17:47:01.392,35.96,34.74,8.39,0.59,0.61,0.59,5.67,-3.21,2.05,49.59,39.97,5.25,0.66,0.78,-0.09,2.44,0.72,-0.47
1900-01-01 17:47:01.485,35.85,35.2,8.86,0.59,0.6,0.59,0.82,-3.47,-0.11,49.59,40.03,5.17,0.67,0.79,-0.08,-1.5,2.44,-1.08
1900-01-01 17:47:01.531,34.71,36.55,9.0,0.61,0.58,0.58,-4.08,-2.58,-1.02,48.65,40.84,5.0,0.67,0.77,-0.09,-5.82,4.34,-0.38
1900-01-01 17:47:01.625,34.97,35.94,9.0,0.61,0.59,0.59,-10.47,-4.2,-2.39,49.14,40.59,4.93,0.67,0.78,-0.07,-11.59,4.65,3.05
1900-01-01 17:47:01.718,34.51,36.1,8.79,0.6,0.58,0.59,-11.87,-3.37,-4.73,50.29,39.61,5.39,0.65,0.78,-0.04,-11.76,5.33,-0.09
1900-01-01 17:47:01.765,33.23,36.21,8.23,0.6,0.56,0.6,-11.54,3.03,-5.94,50.06,39.93,5.37,0.65,0.77,-0.01,-12.64,5.44,-1.65
1900-01-01 17:47:01.857,32.57,35.21,7.48,0.58,0.55,0.62,-11.67,2.6,-7.73,49.78,40.16,5.11,0.64,0.76,0.03,-12.75,6.86,-3.4
1900-01-01 17:47:01.905,32.14,34.15,6.45,0.58,0.55,0.66,-9.69,3.44,-7.56,50.38,39.36,4.58,0.65,0.79,0.07,-12.03,8.32,-4.57
1900-01-01 17:47:01.999,32.03,33.6,5.46,0.56,0.54,0.65,-10.7,2.82,-6.55,50.92,38.63,3.87,0.63,0.78,0.09,-10.66,8.56,-5.37
1900-01-01 17:47:02.094,28.53,34.28,4.62,0.56,0.48,0.68,-10.22,2.5,-7.04,49.73,38.93,3.04,0.63,0.76,0.15,-12.1,5.6,-2.5
1900-01-01 17:47:02.140,30.35,31.97,3.7,0.53,0.51,0.69,-4.57,-0.43,-7.08,51.55,36.97,2.65,0.6,0.78,0.16,-6.82,4.69,-4.26
1900-01-01 17:47:02.234,30.78,32.35,2.78,0.53,0.51,0.67,-2.55,-1.14,-6.17,51.78,36.87,2.0,0.59,0.77,0.15,-5.77,5.69,-5.12
1900-01-01 17:47:02.327,31.3,31.38,2.0,0.53,0.52,0.68,-1.6,1.76,-4.78,52.74,35.39,1.21,0.58,0.8,0.18,-3.35,3.1,-4.53
1900-01-01 17:47:02.373,30.4,32.5,1.43,0.53,0.5,0.66,2.31,-1.01,-7.73,51.76,36.04,0.51,0.57,0.77,0.19,0.32,0.8,-5.82
1900-01-01 17:47:02.469,31.93,28.51,0.41,0.49,0.55,0.72,0.43,-1.79,-6.68,56.27,31.94,-0.38,0.54,0.85,0.17,-2.4,1.16,-5.59
1900-01-01 17:47:02.515,31.52,29.74,-0.45,0.5,0.53,0.7,-1.75,1.68,-1.85,54.34,33.46,-1.24,0.55,0.8,0.19,-4.37,3.36,-3.5
1900-01-01 17:47:02.608,30.74,30.18,-0.57,0.51,0.52,0.71,-5.94,0.09,-1.29,53.09,34.24,-1.79,0.56,0.79,0.21,-6.51,1.88,-2.87
1900-01-01 17:47:02.701,31.37,29.58,-0.61,0.49,0.52,0.69,-3.66,0.28,-0.64,54.31,32.94,-2.24,0.53,0.8,0.21,-1.4,0.14,-1.18
1900-01-01 17:47:02.749,29.14,30.69,-0.55,0.51,0.49,0.71,1.15,-3.73,-3.04,52.52,35.22,-2.42,0.56,0.77,0.19,1.07,1.14,-4.27
1900-01-01 17:47:02.842,33.23,27.53,-0.85,0.47,0.55,0.7,-2.33,0.92,-1.63,57.86,29.8,-3.08,0.49,0.83,0.19,-5.91,0.8,0.28
1900-01-01 17:47:02.934,28.57,29.4,-0.94,0.49,0.48,0.73,-2.0,2.89,-0.43,51.24,34.26,-3.05,0.54,0.75,0.26,-3.77,2.99,-1.63
1900-01-01 17:47:02.983,29.24,29.98,-0.85,0.51,0.5,0.73,0.42,1.11,-2.82,52.79,33.27,-3.31,0.55,0.79,0.25,0.07,2.76,-3.03
1900-01-01 17:47:03.075,31.7,28.42,-1.12,0.49,0.54,0.72,-1.88,1.44,-1.8,55.96,31.06,-3.78,0.52,0.84,0.22,-3.06,3.68,-1.4
1900-01-01 17:47:03.168,30.55,28.52,-1.24,0.49,0.52,0.73,-0.71,0.69,-1.11,54.93,31.54,-4.0,0.52,0.82,0.24,-2.06,3.33,-1.12
1900-01-01 17:47:03.215,30.59,28.4,-1.25,0.48,0.51,0.72,-1.06,0.73,-0.87,54.82,31.26,-4.18,0.52,0.82,0.25,-2.24,2.45,-0.71
1900-01-01 17:47:03.308,29.73,28.31,-1.22,0.48,0.5,0.74,-0.97,-0.47,-1.11,54.33,31.51,-4.29,0.52,0.8,0.25,-2.08,2.31,-0.49
1900-01-01 17:47:03.356,30.83,27.31,-1.24,0.47,0.52,0.74,-1.62,-0.04,-0.75,55.5,30.67,-4.38,0.51,0.82,0.24,-2.69,2.0,0.88
1900-01-01 17:47:03.449,30.25,27.79,-1.19,0.47,0.51,0.73,-2.88,0.75,-0.5,54.26,31.39,-4.25,0.51,0.79,0.26,-5.46,3.82,1.5
1900-01-01 17:47:03.543,29.42,27.86,-1.11,0.47,0.5,0.75,-0.98,0.57,-1.04,53.6,31.6,-4.03,0.52,0.8,0.28,-4.01,3.51,0.96
1900-01-01 17:47:03.591,29.85,27.85,-1.11,0.47,0.51,0.74,0.67,0.54,-0.8,53.91,31.18,-3.89,0.51,0.8,0.28,-0.79,2.71,-0.18
1900-01-01 17:47:03.683,28.7,27.91,-1.07,0.47,0.48,0.74,-0.48,0.88,-1.49,52.25,32.25,-3.93,0.52,0.77,0.29,0.21,2.25,0.39
1900-01-01 17:47:03.781,30.46,27.67,-1.14,0.47,0.51,0.74,0.42,0.71,-2.39,54.2,31.37,-3.88,0.52,0.8,0.26,1.95,0.11,0.56
1900-01-01 17:47:03.822,31.16,27.5,-1.35,0.47,0.52,0.73,1.69,1.42,-1.95,54.51,31.35,-3.8,0.51,0.8,0.25,3.96,0.15,1.19
1900-01-01 17:47:03.917,31.04,26.57,-1.48,0.46,0.53,0.75,-0.02,0.44,-1.15,54.75,31.41,-3.63,0.52,0.82,0.25,0.11,0.71,1.5
1900-01-01 17:47:03.965,30.65,26.9,-1.5,0.46,0.52,0.74,-5.69,1.46,-0.67,54.27,31.87,-3.41,0.53,0.81,0.25,-4.58,0.12,4.79
1900-01-01 17:47:04.056,29.59,26.54,-1.44,0.46,0.5,0.76,-0.95,-0.65,-0.83,53.14,32.57,-2.69,0.54,0.8,0.26,-2.47,2.2,1.46
1900-01-01 17:47:04.149,30.15,26.85,-1.41,0.46,0.51,0.74,-0.15,-0.31,-0.44,53.2,32.83,-2.48,0.54,0.79,0.25,-0.63,1.49,0.76
1900-01-01 17:47:04.195,30.47,26.96,-1.32,0.46,0.51,0.74,-2.02,0.35,-0.47,53.43,32.72,-2.37,0.54,0.8,0.25,-2.92,0.9,3.15
1900-01-01 17:47:04.290,30.31,26.2,-1.23,0.45,0.51,0.75,-6.5,0.05,-2.38,53.57,32.03,-1.89,0.53,0.81,0.27,-7.81,-1.01,5.27
1900-01-01 17:47:04.381,27.87,25.95,-1.44,0.45,0.48,0.79,-5.54,0.79,-0.84,47.93,37.35,-1.1,0.59,0.72,0.28,-4.25,-0.48,2.85
1900-01-01 17:47:04.429,28.46,26.97,-1.41,0.45,0.48,0.75,-8.31,0.37,-3.39,50.98,34.58,-0.67,0.56,0.77,0.27,-8.49,-1.24,7.69
1900-01-01 17:47:04.522,26.95,25.74,-1.77,0.44,0.46,0.79,-12.09,1.02,-2.43,48.39,36.34,0.5,0.59,0.75,0.3,-9.79,-2.44,8.05
1900-01-01 17:47:04.568,28.67,23.85,-1.98,0.43,0.51,0.83,-21.18,-1.34,-0.63,44.11,41.41,1.72,0.64,0.67,0.27,-25.45,-8.08,18.95
1900-01-01 17:47:04.667,23.76,24.76,-1.92,0.43,0.41,0.84,2.28,-0.5,-0.47,44.7,39.02,4.62,0.64,0.72,0.34,1.45,-1.42,3.46
1900-01-01 17:47:04.756,24.65,25.62,-1.83,0.44,0.43,0.82,6.02,-1.47,-0.04,44.14,40.71,5.14,0.66,0.7,0.3,2.26,1.63,-0.85
1900-01-01 17:47:04.803,25.2,26.18,-1.68,0.45,0.44,0.81,3.16,-1.56,-0.66,43.43,41.23,5.0,0.67,0.7,0.31,-2.73,2.29,0.62
1900-01-01 17:47:04.883,26.16,26.71,-1.62,0.45,0.44,0.77,1.92,-0.8,-0.2,43.72,40.77,5.09,0.63,0.66,0.3,-0.73,1.82,-0.37
1900-01-01 17:47:04.973,26.33,26.55,-1.49,0.45,0.45,0.79,-0.89,0.02,-0.83,44.26,40.53,5.02,0.65,0.7,0.3,-2.55,1.86,0.02
1900-01-01 17:47:05.068,26.46,26.59,-1.46,0.45,0.45,0.79,1.59,-0.98,-0.36,44.54,40.29,5.02,0.64,0.69,0.3,-0.79,1.66,-1.08
1900-01-01 17:47:05.113,25.72,26.06,-1.36,0.45,0.44,0.8,-1.11,0.1,-0.66,43.95,40.45,4.85,0.64,0.69,0.31,-1.43,1.49,0.22
1900-01-01 17:47:05.209,26.15,26.56,-1.3,0.46,0.45,0.79,-1.7,0.34,-0.05,44.08,40.25,4.87,0.65,0.7,0.31,-3.63,2.16,0.16
1900-01-01 17:47:05.256,25.18,26.46,-1.15,0.45,0.43,0.8,0.98,-0.5,-0.11,43.83,40.36,4.89,0.65,0.69,0.32,-0.73,1.69,-0.85
1900-01-01 17:47:05.350,25.43,26.55,-1.01,0.45,0.43,0.79,-0.66,-0.11,-0.54,43.56,40.64,4.75,0.64,0.68,0.31,-1.39,2.02,0.16
1900-01-01 17:47:05.408,25.41,26.34,-0.93,0.45,0.44,0.8,-0.64,0.01,-0.66,43.6,40.32,4.76,0.65,0.69,0.32,-1.34,1.96,-0.45
1900-01-01 17:47:05.489,25.81,26.53,-0.87,0.45,0.44,0.79,-0.09,-0.34,-0.79,43.97,40.2,4.69,0.64,0.69,0.32,-1.27,2.25,-0.31
1900-01-01 17:47:05.584,25.76,26.17,-0.84,0.45,0.44,0.8,-1.11,0.52,-0.85,44.02,40.02,4.63,0.64,0.69,0.32,-1.07,1.59,-0.47
1900-01-01 17:47:05.676,25.03,26.38,-0.81,0.45,0.43,0.81,-0.91,0.25,-0.66,43.37,40.34,4.55,0.65,0.68,0.33,-1.63,2.64,0.01
1900-01-01 17:47:05.723,24.66,26.79,-0.75,0.46,0.42,0.8,-0.13,-0.24,-0.62,43.01,40.62,4.54,0.65,0.68,0.33,-0.56,2.01,-0.57
1900-01-01 17:47:05.817,24.57,27.04,-0.69,0.47,0.43,0.82,0.89,-2.36,-0.11,41.67,41.28,4.45,0.67,0.68,0.36,-0.34,1.14,-1.18
1900-01-01 17:47:05.864,25.51,27.81,-0.54,0.48,0.44,0.79,1.68,-4.91,-2.29,44.5,40.15,4.26,0.64,0.69,0.3,-0.18,1.38,-3.4
1900-01-01 17:47:05.957,26.91,25.7,-0.73,0.43,0.45,0.78,-1.68,-1.75,-1.31,45.87,37.93,3.73,0.6,0.7,0.32,-3.17,1.97,-1.6
1900-01-01 17:47:06.051,26.13,27.94,-0.78,0.47,0.44,0.77,0.83,-0.85,-2.04,45.13,38.72,3.48,0.61,0.7,0.32,-0.49,1.52,-2.89
1900-01-01 17:47:06.097,26.12,27.36,-0.93,0.47,0.45,0.79,-0.06,-0.89,-1.39,45.0,38.79,3.03,0.62,0.7,0.33,-0.66,1.84,-1.31
1900-01-01 17:47:06.190,26.2,27.29,-0.98,0.47,0.45,0.78,-0.63,-0.94,-2.29,45.11,38.42,2.82,0.62,0.7,0.33,-1.23,1.21,-1.67
1900-01-01 17:47:06.283,26.74,27.14,-1.17,0.46,0.46,0.78,-0.11,-0.6,-2.02,46.64,37.35,2.56,0.6,0.72,0.32,-0.65,1.21,-1.02
1900-01-01 17:47:06.330,26.75,26.83,-1.32,0.46,0.46,0.79,-0.95,-0.15,-1.47,46.25,37.46,2.39,0.61,0.72,0.33,-1.49,1.38,-0.43
1900-01-01 17:47:06.424,26.36,27.46,-1.39,0.47,0.45,0.78,-0.26,-1.24,-1.35,45.11,38.45,2.32,0.61,0.7,0.33,-1.02,2.29,-1.55
1900-01-01 17:47:06.519,27.68,26.84,-1.44,0.45,0.47,0.77,-2.93,0.19,-1.07,47.42,36.87,2.07,0.59,0.72,0.31,-4.99,1.61,-0.31
1900-01-01 17:47:06.564,25.12,26.87,-1.44,0.45,0.43,0.79,-7.24,2.81,-0.4,45.2,37.56,2.02,0.6,0.7,0.35,-6.21,1.02,3.07
1900-01-01 17:47:06.659,24.83,26.46,-1.34,0.46,0.44,0.82,-2.77,0.74,-0.94,44.87,38.0,2.48,0.63,0.72,0.36,-2.88,2.34,1.56
1900-01-01 17:47:06.705,25.01,26.97,-1.33,0.46,0.43,0.79,-1.65,0.17,0.14,44.39,38.29,2.71,0.61,0.69,0.35,0.08,1.05,1.5
1900-01-01 17:47:06.800,24.85,26.74,-1.15,0.45,0.42,0.79,-1.59,-0.08,-0.5,43.78,38.91,2.93,0.62,0.68,0.35,0.31,0.76,2.24
1900-01-01 17:47:06.894,25.44,26.04,-1.07,0.45,0.44,0.81,-0.97,-0.3,-1.25,45.94,37.79,3.26,0.62,0.72,0.33,-0.45,1.47,0.82
1900-01-01 17:47:06.939,24.27,26.72,-1.1,0.46,0.42,0.81,0.34,-0.5,-1.03,44.75,38.66,3.37,0.63,0.71,0.34,0.43,1.56,0.4
1900-01-01 17:47:07.034,24.41,26.85,-1.1,0.46,0.42,0.8,0.28,-0.69,-0.79,43.94,39.44,3.43,0.63,0.69,0.34,-0.14,1.22,0.76
1900-01-01 17:47:07.127,25.65,26.96,-1.06,0.46,0.44,0.79,1.1,-1.44,-0.4,44.92,38.65,3.53,0.62,0.7,0.33,-1.21,0.55,0.34
1900-01-01 17:47:07.174,25.15,27.04,-0.96,0.46,0.43,0.79,-0.12,-1.4,-0.81,44.33,39.02,3.58,0.62,0.69,0.33,-1.21,0.11,-0.36
1900-01-01 17:47:07.267,25.25,26.97,-0.93,0.46,0.43,0.79,0.4,-0.98,-1.66,44.73,38.8,3.51,0.62,0.7,0.33,-1.02,0.92,-1.47
1900-01-01 17:47:07.315,25.27,27.09,-1.02,0.46,0.43,0.79,1.03,-0.9,-2.15,45.23,38.34,3.28,0.62,0.71,0.33,0.12,1.28,-2.05
1900-01-01 17:47:07.407,25.35,27.5,-1.19,0.47,0.43,0.79,1.52,-1.6,-2.83,45.16,38.59,2.96,0.62,0.7,0.32,0.21,1.01,-2.89
1900-01-01 17:47:07.500,26.96,26.27,-1.46,0.45,0.46,0.79,-0.74,-0.52,-1.86,47.27,36.75,2.51,0.6,0.74,0.32,-1.91,1.33,-0.98
1900-01-01 17:47:07.547,25.67,26.92,-1.59,0.46,0.44,0.79,-3.43,1.02,-0.08,44.9,38.32,2.36,0.61,0.69,0.34,-5.14,1.66,1.01
1900-01-01 17:47:07.641,25.93,26.51,-1.44,0.46,0.45,0.8,0.61,0.18,-0.34,46.92,36.9,2.5,0.61,0.74,0.33,-1.3,2.08,-0.32
1900-01-01 17:47:07.689,27.01,26.23,-1.34,0.45,0.46,0.79,-1.88,2.21,2.51,47.09,36.49,2.44,0.6,0.73,0.33,-5.09,1.67,3.66
1900-01-01 17:47:07.781,25.28,26.39,-0.8,0.45,0.44,0.8,-2.68,1.96,2.89,43.15,39.24,2.99,0.63,0.68,0.36,-4.73,0.77,3.49
1900-01-01 17:47:07.873,23.84,27.1,-0.2,0.47,0.41,0.81,-0.2,0.1,1.59,43.0,39.62,3.51,0.64,0.68,0.36,-2.73,1.99,0.78
1900-01-01 17:47:07.924,24.26,27.32,0.2,0.46,0.41,0.79,0.13,0.12,1.92,42.6,39.41,3.62,0.62,0.66,0.36,-1.83,2.27,1.27
1900-01-01 17:47:08.015,23.97,27.04,0.65,0.46,0.41,0.8,-0.91,0.21,0.36,42.53,39.45,3.8,0.63,0.67,0.37,-1.57,2.64,0.82
1900-01-01 17:47:08.108,24.21,26.87,0.86,0.47,0.42,0.82,-0.94,-0.5,-0.02,42.46,39.25,3.92,0.64,0.68,0.38,-1.38,1.66,0.98
1900-01-01 17:47:08.156,21.82,27.96,1.02,0.48,0.38,0.81,2.08,-2.66,-2.25,38.97,41.67,4.06,0.65,0.62,0.4,4.64,3.0,-1.05
1900-01-01 17:47:08.248,22.33,28.21,0.83,0.48,0.39,0.81,1.34,-4.22,-7.98,42.16,40.22,3.89,0.64,0.66,0.36,6.47,0.86,-3.75
1900-01-01 17:47:08.343,27.62,26.58,-0.22,0.46,0.48,0.78,-2.04,-0.64,-4.0,49.25,35.33,3.31,0.59,0.78,0.31,0.57,2.06,-0.14
1900-01-01 17:47:08.389,23.82,28.04,-0.67,0.48,0.41,0.8,-4.66,-2.08,-2.21,40.16,41.49,3.28,0.64,0.62,0.36,-2.92,3.03,-1.88
1900-01-01 17:47:08.484,27.15,26.02,-0.85,0.45,0.47,0.79,-1.44,0.27,-5.02,47.07,36.72,2.99,0.61,0.74,0.33,-1.75,0.47,-2.85
1900-01-01 17:47:08.530,25.82,26.44,-1.46,0.46,0.45,0.8,-0.49,-2.69,-5.34,44.18,38.19,2.55,0.62,0.7,0.36,-0.37,-2.24,-1.94
1900-01-01 17:47:08.622,28.89,25.77,-2.12,0.44,0.49,0.77,2.4,-2.23,-7.49,51.4,32.58,2.24,0.56,0.81,0.33,2.29,-1.77,-3.54
1900-01-01 17:47:08.715,27.17,24.69,-3.1,0.43,0.47,0.81,1.86,-5.25,-6.31,48.36,34.3,1.69,0.57,0.76,0.36,1.95,-1.51,-1.73
1900-01-01 17:47:08.762,27.95,25.68,-3.9,0.44,0.47,0.78,1.95,-5.35,-6.53,49.17,35.37,1.42,0.58,0.75,0.3,1.53,-2.89,-3.34
1900-01-01 17:47:08.854,29.31,27.56,-4.74,0.47,0.49,0.74,-0.45,-2.68,-5.67,50.18,36.36,0.9,0.58,0.75,0.24,-1.36,-2.06,-1.98
1900-01-01 17:47:08.947,31.1,24.55,-5.45,0.43,0.53,0.77,-0.48,3.37,-0.49,51.5,34.61,0.59,0.58,0.8,0.26,-3.69,3.6,-1.18
1900-01-01 17:47:08.994,29.02,27.0,-5.37,0.46,0.49,0.75,-0.08,0.97,-0.82,50.34,35.17,0.4,0.57,0.76,0.27,-1.87,3.4,-1.32
1900-01-01 17:47:09.088,29.82,24.98,-5.33,0.42,0.5,0.76,-3.5,2.97,1.09,51.44,33.4,0.19,0.55,0.78,0.29,-3.7,0.96,2.26
1900-01-01 17:47:09.181,27.38,25.84,-5.01,0.44,0.46,0.78,-3.02,2.11,1.21,47.74,35.98,0.53,0.58,0.72,0.32,-1.21,0.02,1.5
1900-01-01 17:47:09.228,27.12,27.08,-4.67,0.47,0.47,0.78,1.06,1.22,0.91,47.08,37.53,0.75,0.61,0.73,0.3,1.85,-3.18,-2.29
1900-01-01 17:47:09.322,26.67,27.13,-4.37,0.46,0.45,0.78,-2.98,0.57,0.38,46.81,38.31,0.39,0.6,0.71,0.28,-5.12,-0.79,0.42
1900-01-01 17:47:09.367,27.86,24.41,-4.15,0.42,0.48,0.8,-3.95,0.45,0.21,50.0,34.85,0.45,0.58,0.77,0.3,-6.62,0.11,2.98
1900-01-01 17:47:09.461,28.72,22.75,-3.96,0.39,0.48,0.79,-7.08,4.51,3.93,51.89,32.36,0.89,0.54,0.8,0.31,-9.74,1.46,8.55
1900-01-01 17:47:09.555,22.75,25.74,-3.21,0.44,0.39,0.83,-7.11,2.89,6.56,42.31,40.92,2.18,0.65,0.67,0.34,-7.37,3.98,6.66
1900-01-01 17:47:09.602,24.26,28.82,-2.05,0.48,0.41,0.77,-0.12,5.01,4.45,46.03,39.06,3.18,0.63,0.71,0.29,-1.18,4.73,3.91
1900-01-01 17:47:09.694,25.82,27.7,-1.22,0.46,0.43,0.77,-0.55,7.87,8.67,47.06,36.89,3.77,0.6,0.73,0.32,-5.24,6.52,5.82
1900-01-01 17:47:09.742,22.24,23.88,0.25,0.42,0.39,0.86,-4.55,6.33,10.89,42.32,39.44,4.64,0.63,0.67,0.37,-4.85,7.34,7.04
1900-01-01 17:47:09.837,18.38,24.66,2.07,0.42,0.32,0.87,-4.34,6.6,14.13,37.51,44.55,5.7,0.69,0.6,0.36,-0.6,6.76,8.09
1900-01-01 17:47:09.930,12.47,25.81,4.37,0.45,0.22,0.9,-2.48,0.78,4.63,31.52,45.87,6.92,0.72,0.52,0.46,6.14,0.79,-0.14
1900-01-01 17:47:09.976,22.01,24.51,5.23,0.42,0.38,0.84,1.76,0.21,2.24,44.3,38.74,6.89,0.61,0.69,0.34,0.66,4.15,0.37
1900-01-01 17:47:10.069,21.43,24.26,5.72,0.42,0.37,0.85,-4.69,5.44,12.45,43.17,39.61,6.94,0.65,0.69,0.36,-6.47,3.13,10.12
1900-01-01 17:47:10.163,11.27,25.35,7.78,0.44,0.2,0.91,-3.56,3.08,10.84,29.32,47.36,8.47,0.74,0.49,0.47,2.69,6.19,4.49
1900-01-01 17:47:10.214,13.84,24.54,9.58,0.42,0.24,0.88,2.66,-2.24,-1.91,36.48,43.21,9.14,0.68,0.59,0.42,6.13,2.3,-2.88
1900-01-01 17:47:10.303,19.38,25.26,9.45,0.43,0.33,0.84,2.38,-1.63,-3.02,40.45,41.32,8.7,0.66,0.64,0.38,-0.53,-0.66,-1.63
1900-01-01 17:47:10.351,18.92,25.38,9.14,0.44,0.34,0.87,5.82,0.4,-1.57,41.75,39.41,8.44,0.65,0.69,0.4,1.28,-2.84,0.65
1900-01-01 17:47:10.445,18.75,25.47,9.06,0.44,0.33,0.87,0.81,-0.53,1.05,40.04,42.16,8.53,0.67,0.64,0.36,-1.18,1.41,3.1
1900-01-01 17:47:10.537,17.88,26.0,9.38,0.45,0.31,0.86,-0.5,0.62,2.5,37.57,43.97,8.99,0.68,0.6,0.38,-1.41,3.43,2.37
1900-01-01 17:47:10.586,17.98,25.05,9.92,0.44,0.32,0.88,0.55,-0.24,1.6,38.28,42.91,9.34,0.68,0.62,0.39,-0.17,3.02,0.91
1900-01-01 17:47:10.678,17.89,25.4,10.32,0.43,0.31,0.86,1.27,-0.41,0.95,38.08,42.62,9.47,0.67,0.61,0.4,-0.57,2.6,0.09
1900-01-01 17:47:10.772,17.77,25.7,10.62,0.44,0.31,0.86,-0.01,-0.21,0.42,38.09,42.54,9.47,0.67,0.61,0.4,-1.86,2.69,0.29
1900-01-01 17:47:10.818,19.34,25.87,10.85,0.44,0.34,0.85,-0.27,0.62,0.65,39.52,41.91,9.51,0.67,0.63,0.38,-0.9,2.21,0.79
1900-01-01 17:47:10.911,18.37,25.44,11.1,0.44,0.32,0.86,-1.22,0.43,1.21,38.42,42.25,9.62,0.67,0.62,0.4,-1.79,2.05,0.85
1900-01-01 17:47:10.961,17.02,25.75,11.45,0.44,0.3,0.86,-0.11,-0.75,-0.1,36.51,43.15,9.74,0.68,0.59,0.42,-1.24,2.48,-0.42
1900-01-01 17:47:11.052,17.29,25.71,11.59,0.44,0.3,0.87,-0.47,-1.13,-1.34,37.75,42.27,9.67,0.67,0.61,0.42,-1.45,2.24,-0.66
1900-01-01 17:47:11.147,18.28,25.58,11.54,0.44,0.32,0.86,-0.82,-0.51,-1.33,38.51,42.12,9.56,0.67,0.62,0.4,-1.55,1.89,0.23
1900-01-01 17:47:11.193,18.73,25.97,11.5,0.45,0.33,0.86,0.08,-0.59,-1.08,39.33,41.65,9.59,0.67,0.64,0.4,-0.82,1.57,-0.22
1900-01-01 17:47:11.285,18.08,26.2,11.49,0.45,0.31,0.85,0.77,-0.86,-1.2,38.62,42.12,9.54,0.67,0.62,0.4,-0.56,1.47,-0.56
1900-01-01 17:47:11.379,18.7,25.92,11.47,0.45,0.33,0.86,0.32,-0.73,-1.21,39.18,41.6,9.45,0.66,0.63,0.4,-0.79,1.51,-0.38
1900-01-01 17:47:11.425,18.32,25.97,11.44,0.45,0.32,0.86,0.01,-0.7,-1.14,38.46,42.04,9.38,0.67,0.62,0.41,-1.32,1.45,-0.05
1900-01-01 17:47:11.519,18.82,25.98,11.43,0.45,0.33,0.85,-0.15,-0.53,-1.12,39.04,41.79,9.37,0.66,0.62,0.39,-1.18,1.45,-0.21
1900-01-01 17:47:11.566,18.95,26.44,11.41,0.45,0.33,0.85,0.12,-0.56,-1.05,38.92,42.0,9.33,0.66,0.62,0.39,-0.74,1.42,-0.53
1900-01-01 17:47:11.658,18.55,26.05,11.41,0.45,0.32,0.85,-0.31,-0.7,-1.08,38.33,42.11,9.24,0.66,0.61,0.4,-0.97,1.27,-0.42
1900-01-01 17:47:11.752,19.24,25.79,11.41,0.45,0.34,0.86,-0.89,-0.43,-0.96,39.39,41.39,9.17,0.66,0.64,0.4,-1.8,1.36,-0.09
1900-01-01 17:47:11.799,19.12,26.09,11.42,0.45,0.33,0.85,0.07,-0.47,-1.2,39.56,41.17,9.14,0.66,0.64,0.4,-1.19,1.42,0.03
1900-01-01 17:47:11.895,19.15,25.91,11.39,0.45,0.34,0.86,-0.51,-0.35,-1.02,39.4,41.17,9.14,0.66,0.64,0.41,-1.34,1.44,-0.11
1900-01-01 17:47:11.987,18.61,26.31,11.4,0.45,0.32,0.85,-0.75,-0.77,-1.1,38.75,41.69,9.11,0.66,0.62,0.4,-0.77,2.52,-0.53
1900-01-01 17:47:12.034,18.38,26.29,11.39,0.44,0.32,0.84,-1.77,0.24,-1.62,38.86,41.45,9.02,0.65,0.61,0.4,0.82,2.2,-0.2
1900-01-01 17:47:12.127,18.17,26.37,11.3,0.45,0.31,0.85,-3.73,0.11,-2.15,38.55,42.25,8.99,0.65,0.61,0.39,-0.58,0.98,0.5
1900-01-01 17:47:12.175,17.48,25.61,11.13,0.45,0.31,0.88,-2.38,-0.31,-3.37,37.9,42.26,9.05,0.68,0.62,0.42,-0.25,1.05,1.27
1900-01-01 17:47:12.269,17.83,26.04,10.78,0.45,0.31,0.86,0.85,-3.24,-5.5,38.67,41.97,9.24,0.67,0.62,0.4,1.82,0.74,-0.21
1900-01-01 17:47:12.363,18.5,26.2,10.1,0.45,0.32,0.86,0.02,-3.6,-6.26,39.47,41.86,9.2,0.66,0.63,0.39,1.06,-0.14,-2.37
1900-01-01 17:47:12.411,18.81,26.19,9.3,0.45,0.33,0.86,-1.02,-2.74,-5.04,39.47,42.37,8.83,0.67,0.63,0.38,-0.91,-1.26,-1.33
1900-01-01 17:47:12.504,19.25,25.42,8.69,0.44,0.34,0.86,0.2,-2.71,-5.64,39.91,40.63,8.62,0.65,0.64,0.41,-2.0,-1.31,-2.73
1900-01-01 17:47:12.598,21.73,24.6,7.99,0.42,0.37,0.83,0.75,-1.5,-4.47,43.97,39.14,8.19,0.62,0.68,0.34,-4.64,0.84,-2.71
1900-01-01 17:47:12.646,19.57,25.92,7.47,0.45,0.34,0.85,-4.5,2.15,-0.59,38.85,42.52,7.77,0.67,0.62,0.38,-5.44,2.17,0.92
1900-01-01 17:47:12.740,19.4,26.63,7.54,0.46,0.34,0.86,-1.47,0.49,-3.27,39.66,42.19,7.9,0.69,0.65,0.38,-3.34,0.36,-1.8
1900-01-01 17:47:12.786,21.6,27.27,7.2,0.47,0.38,0.82,0.08,-1.05,-4.61,42.87,40.05,7.62,0.64,0.68,0.35,-1.76,-0.03,-3.31
1900-01-01 17:47:12.879,19.75,24.47,6.65,0.42,0.34,0.86,-0.4,-0.15,-4.22,39.31,40.76,7.11,0.63,0.62,0.4,-3.55,-0.11,-3.08
1900-01-01 17:47:12.972,20.84,23.56,6.17,0.4,0.35,0.84,-0.31,2.14,-5.28,42.5,38.26,6.63,0.6,0.65,0.38,-3.61,0.92,-4.08
1900-01-01 17:47:13.018,20.11,24.17,5.52,0.42,0.35,0.86,-2.06,3.22,-2.95,40.11,40.59,6.0,0.65,0.64,0.4,-3.46,0.44,-1.26
1900-01-01 17:47:13.111,20.24,25.71,5.23,0.45,0.36,0.87,-2.4,1.98,-3.69,40.89,41.62,5.8,0.68,0.67,0.37,-3.37,1.62,-1.85
1900-01-01 17:47:13.205,21.33,23.89,4.83,0.41,0.37,0.85,-0.98,1.4,-2.98,41.28,39.33,5.51,0.62,0.65,0.4,-3.5,1.69,-1.85
1900-01-01 17:47:13.251,21.0,23.09,4.53,0.39,0.36,0.84,-0.29,2.08,-4.86,42.27,38.81,5.22,0.61,0.66,0.38,-1.9,1.25,-3.95
1900-01-01 17:47:13.345,20.67,22.88,3.95,0.41,0.37,0.9,-1.16,1.85,-2.53,41.59,39.2,4.61,0.66,0.69,0.41,-2.86,0.76,-0.84
1900-01-01 17:47:13.392,21.12,21.74,3.73,0.38,0.37,0.87,-1.31,0.74,-1.74,42.61,37.59,4.47,0.6,0.67,0.41,-2.32,1.31,-0.3
1900-01-01 17:47:13.484,21.46,21.43,3.62,0.36,0.36,0.85,-1.02,1.47,-1.64,43.23,36.84,4.42,0.58,0.66,0.4,-2.48,1.66,0.08
1900-01-01 17:47:13.578,20.35,22.29,3.53,0.39,0.36,0.88,0.12,2.11,-1.04,41.02,38.64,4.42,0.64,0.67,0.43,-0.86,1.22,-0.78
1900-01-01 17:47:13.625,20.89,21.82,3.53,0.38,0.36,0.87,0.0,0.47,-1.59,42.45,37.91,4.3,0.6,0.66,0.4,-2.45,2.47,-1.15
1900-01-01 17:47:13.718,20.03,20.41,3.45,0.36,0.36,0.9,1.21,0.97,-1.28,40.55,39.01,4.11,0.63,0.65,0.43,-2.47,2.63,-1.41
1900-01-01 17:47:13.813,21.41,21.88,3.41,0.39,0.38,0.89,-0.4,0.89,-1.56,41.99,38.77,3.89,0.65,0.69,0.41,-1.99,-0.7,1.92
1900-01-01 17:47:13.858,21.47,22.96,3.33,0.39,0.37,0.85,1.23,-0.71,-1.61,42.43,37.75,4.17,0.61,0.67,0.41,-1.01,-1.27,1.34
1900-01-01 17:47:13.952,21.34,20.84,3.25,0.36,0.37,0.88,-0.65,-1.11,-0.57,41.87,38.52,4.37,0.62,0.66,0.4,-2.92,2.11,0.11
1900-01-01 17:47:14.046,21.95,18.9,3.32,0.33,0.38,0.88,-0.6,-0.98,0.02,42.18,36.31,4.38,0.58,0.66,0.44,-2.06,1.66,-0.87
1900-01-01 17:47:14.091,20.45,20.33,3.48,0.35,0.35,0.88,-0.31,-0.89,-1.04,40.78,38.17,4.24,0.6,0.64,0.43,-0.65,1.88,-0.79
1900-01-01 17:47:14.185,21.86,21.06,3.48,0.37,0.38,0.88,0.82,-0.5,-0.83,42.27,37.37,4.11,0.61,0.68,0.43,-0.55,1.09,-0.85
1900-01-01 17:47:14.232,21.4,21.66,3.51,0.37,0.37,0.87,1.55,-1.16,-0.86,42.39,37.53,3.97,0.61,0.67,0.42,-0.3,1.34,-0.66
1900-01-01 17:47:14.327,21.66,21.72,3.54,0.37,0.37,0.86,-0.84,-0.74,-1.05,41.47,38.42,3.86,0.61,0.65,0.41,-1.11,0.53,-0.09
1900-01-01 17:47:14.420,21.75,21.35,3.54,0.37,0.38,0.87,-0.05,-0.72,-1.79,42.11,37.83,3.84,0.61,0.67,0.42,-0.85,0.8,-0.71
1900-01-01 17:47:14.469,22.18,21.15,3.42,0.37,0.38,0.87,-0.25,-0.01,-1.12,42.51,37.58,3.72,0.61,0.67,0.41,-1.61,1.48,-0.27
1900-01-01 17:47:14.562,21.94,21.28,3.41,0.37,0.38,0.86,-0.44,0.13,-1.09,42.6,37.02,3.67,0.6,0.67,0.42,-1.1,0.81,-0.22
1900-01-01 17:47:14.609,22.02,21.34,3.4,0.37,0.38,0.87,-0.26,-0.45,-1.21,42.27,37.72,3.63,0.61,0.67,0.41,-1.13,1.24,-0.67
1900-01-01 17:47:14.702,21.76,20.84,3.37,0.36,0.38,0.87,-0.57,0.44,-1.16,42.13,37.75,3.52,0.61,0.67,0.42,-0.82,0.92,-0.26
1900-01-01 17:47:14.797,21.64,21.34,3.36,0.37,0.37,0.87,-0.76,-0.1,-0.99,42.03,37.99,3.47,0.61,0.66,0.41,-1.11,1.36,-0.05
1900-01-01 17:47:14.841,21.66,21.66,3.36,0.37,0.37,0.87,-1.31,-0.76,-1.16,41.79,38.27,3.45,0.61,0.66,0.41,-1.73,1.66,-0.13
1900-01-01 17:47:14.936,22.37,20.76,3.34,0.36,0.39,0.88,-0.89,-0.27,-1.37,42.4,38.0,3.42,0.61,0.67,0.41,-2.27,1.4,-0.47
1900-01-01 17:47:15.029,21.99,21.16,3.3,0.36,0.38,0.86,-0.61,0.77,-0.92,42.42,37.53,3.34,0.6,0.66,0.41,-1.34,0.43,-0.17
1900-01-01 17:47:15.077,22.05,21.42,3.31,0.37,0.38,0.86,-1.08,-0.39,-1.34,42.58,37.66,3.31,0.6,0.66,0.4,-1.02,0.11,-0.02
1900-01-01 17:47:15.170,21.55,20.87,3.27,0.37,0.38,0.89,-0.05,-0.17,-1.19,42.49,37.12,3.3,0.61,0.68,0.43,-1.27,1.94,-0.78
1900-01-01 17:47:15.218,21.51,21.02,3.25,0.36,0.37,0.86,-1.27,-0.62,-0.4,42.43,37.44,3.17,0.6,0.66,0.41,-1.37,1.65,0.89
1900-01-01 17:47:15.312,22.15,21.26,3.34,0.37,0.39,0.87,-1.83,0.26,-0.75,42.92,37.46,3.3,0.61,0.68,0.41,-2.03,0.95,0.06
1900-01-01 17:47:15.406,21.74,20.59,3.39,0.36,0.38,0.87,0.39,0.09,-1.85,42.99,36.02,3.3,0.59,0.68,0.43,-1.18,1.37,-1.55
1900-01-01 17:47:15.454,21.59,21.03,3.27,0.37,0.38,0.87,-0.48,-1.18,-1.44,41.81,37.59,3.05,0.6,0.65,0.42,-2.09,2.73,-1.82
1900-01-01 17:47:15.546,21.64,19.55,3.21,0.33,0.37,0.86,-5.78,-0.66,-0.89,43.53,34.96,2.77,0.56,0.67,0.43,-0.08,-1.85,3.21
1900-01-01 17:47:15.639,20.1,20.66,3.23,0.36,0.36,0.9,-4.32,-0.14,-1.5,41.45,39.43,3.25,0.64,0.66,0.4,0.15,-0.15,3.31
1900-01-01 17:47:15.686,20.35,23.22,3.16,0.4,0.36,0.87,-0.15,-1.41,-1.53,40.81,40.81,3.74,0.65,0.65,0.38,0.37,0.99,1.05
1900-01-01 17:47:15.783,20.83,21.73,3.08,0.38,0.37,0.89,0.73,-1.39,-0.48,43.65,37.83,3.89,0.64,0.72,0.4,-0.19,2.0,2.8
1900-01-01 17:47:15.824,19.74,23.42,3.17,0.41,0.35,0.88,-0.82,-4.07,0.34,40.32,40.76,4.31,0.66,0.65,0.4,-2.18,2.15,2.65
1900-01-01 17:47:15.919,20.44,22.71,3.38,0.4,0.36,0.88,-1.71,-2.95,1.23,40.27,40.12,4.7,0.65,0.65,0.41,-3.27,1.66,2.46
1900-01-01 17:47:16.013,20.18,21.74,3.72,0.38,0.35,0.88,-0.77,-4.56,1.63,40.7,37.54,5.07,0.61,0.65,0.45,-2.8,0.9,1.73
1900-01-01 17:47:16.059,19.5,24.21,4.13,0.41,0.33,0.84,-0.42,-5.5,0.78,39.12,40.44,5.32,0.63,0.61,0.41,-1.5,1.94,-0.57
1900-01-01 17:47:16.153,20.63,24.14,4.41,0.42,0.36,0.87,-0.02,-4.83,-0.06,41.7,38.42,5.23,0.63,0.67,0.42,-0.7,1.18,0.39
1900-01-01 17:47:16.247,20.13,23.8,4.55,0.41,0.35,0.87,0.75,-5.45,1.62,40.81,37.96,5.28,0.62,0.66,0.44,-2.18,0.88,0.87
1900-01-01 17:47:16.294,19.18,24.41,4.96,0.42,0.33,0.86,2.87,-7.03,-0.31,39.05,39.61,5.4,0.62,0.61,0.43,0.32,-0.6,-1.59
1900-01-01 17:47:16.388,20.88,25.44,5.07,0.43,0.35,0.82,0.24,-5.29,-0.85,41.63,38.77,5.15,0.6,0.63,0.39,0.45,-2.18,0.41
1900-01-01 17:47:16.435,21.24,27.46,5.1,0.46,0.36,0.81,-0.46,-1.12,-0.31,41.35,39.5,5.2,0.63,0.65,0.39,2.02,-1.46,0.96
1900-01-01 17:47:16.527,20.92,26.32,5.21,0.45,0.36,0.83,-0.24,-2.53,-0.06,41.23,39.71,5.34,0.63,0.65,0.39,1.98,-0.7,1.6
1900-01-01 17:47:16.620,21.14,26.76,5.36,0.46,0.37,0.83,-0.34,-2.02,0.43,41.38,40.98,5.58,0.65,0.66,0.36,-1.11,1.02,1.31
1900-01-01 17:47:16.668,20.67,29.25,5.58,0.49,0.35,0.8,0.31,-0.09,0.11,41.51,40.96,5.77,0.65,0.66,0.36,0.87,1.74,-0.38
1900-01-01 17:47:16.762,20.1,30.26,5.76,0.51,0.35,0.8,2.72,1.3,0.23,40.53,42.01,5.7,0.65,0.63,0.35,4.9,5.06,-1.24
1900-01-01 17:47:16.855,20.98,26.78,5.95,0.47,0.37,0.85,0.98,1.02,0.42,42.15,39.47,5.51,0.64,0.68,0.38,2.91,3.33,-0.65
1900-01-01 17:47:16.902,20.65,27.91,6.17,0.48,0.36,0.83,2.34,-0.21,1.13,41.6,39.98,5.4,0.64,0.66,0.38,2.41,6.73,1.16
1900-01-01 17:47:16.994,19.56,29.19,6.5,0.5,0.34,0.83,0.47,0.07,-0.73,40.27,41.54,5.57,0.67,0.65,0.38,0.54,1.96,3.7
1900-01-01 17:47:17.040,22.91,27.73,6.55,0.48,0.4,0.82,2.58,-1.47,0.32,42.94,39.81,6.12,0.65,0.69,0.36,-0.2,-0.11,3.86
1900-01-01 17:47:17.135,21.83,27.99,6.76,0.48,0.38,0.82,0.75,-1.92,0.22,41.85,40.13,6.69,0.65,0.67,0.37,-3.08,2.25,2.35
1900-01-01 17:47:17.227,21.81,28.67,6.95,0.49,0.38,0.82,2.37,-2.54,0.04,40.94,41.48,7.04,0.66,0.66,0.36,-0.82,1.02,0.39
1900-01-01 17:47:17.274,21.4,29.4,7.11,0.51,0.38,0.82,-0.72,-2.97,0.22,39.78,42.23,7.09,0.67,0.64,0.37,-1.12,-0.39,1.56
1900-01-01 17:47:17.366,22.47,28.04,7.31,0.48,0.39,0.81,-1.27,-3.88,-1.06,41.84,39.81,7.32,0.62,0.65,0.37,-2.7,-0.42,0.37
1900-01-01 17:47:17.459,22.02,28.67,7.3,0.48,0.38,0.8,-0.6,-2.56,-1.78,41.16,40.89,7.37,0.64,0.64,0.36,-1.73,-1.07,-0.83
1900-01-01 17:47:17.507,21.85,29.74,7.19,0.5,0.38,0.8,-1.43,-1.18,-2.22,40.7,42.13,7.23,0.66,0.65,0.35,-3.07,-0.56,-0.94
1900-01-01 17:47:17.600,21.43,29.59,7.01,0.51,0.38,0.81,-1.74,-1.01,-1.76,40.12,42.06,7.08,0.67,0.65,0.37,-1.71,0.32,-0.69
1900-01-01 17:47:17.650,21.48,29.82,6.9,0.51,0.37,0.8,-1.76,-2.63,-3.06,39.54,42.14,6.97,0.66,0.63,0.37,-0.8,-0.58,-1.27
1900-01-01 17:47:17.740,23.08,29.45,6.59,0.5,0.4,0.79,-1.19,-3.06,-4.3,42.44,40.72,6.76,0.64,0.66,0.34,-2.03,-1.28,-2.18
1900-01-01 17:47:17.832,22.04,29.69,6.09,0.5,0.38,0.79,-1.9,-1.11,-4.47,41.11,41.29,6.42,0.64,0.64,0.35,-2.53,-0.59,-3.02
1900-01-01 17:47:17.879,22.18,29.7,5.57,0.51,0.39,0.8,-2.83,-0.31,-4.71,41.76,41.43,5.95,0.66,0.66,0.34,-3.56,-0.15,-2.95
1900-01-01 17:47:17.972,21.11,29.94,5.0,0.51,0.37,0.8,-3.24,-1.1,-5.3,40.41,41.54,5.49,0.65,0.64,0.37,-5.52,1.1,-3.35
1900-01-01 17:47:18.066,22.29,28.73,4.35,0.49,0.38,0.8,-0.61,-0.55,-5.73,42.41,39.59,4.97,0.63,0.66,0.37,-3.56,0.57,-4.14
1900-01-01 17:47:18.114,23.04,29.24,3.64,0.5,0.4,0.8,-2.3,0.73,-3.77,43.19,39.78,4.34,0.64,0.69,0.35,-3.57,0.66,-2.31
1900-01-01 17:47:18.206,22.08,29.17,3.22,0.51,0.39,0.82,-0.44,-0.79,-3.35,41.19,40.26,3.98,0.65,0.66,0.39,-2.18,2.75,-4.67
1900-01-01 17:47:18.299,24.48,28.33,2.87,0.48,0.42,0.79,0.95,-0.83,-2.54,44.82,37.78,3.25,0.61,0.7,0.35,0.72,1.12,-4.85
1900-01-01 17:47:18.346,23.29,28.84,2.64,0.48,0.4,0.78,5.18,-0.5,-2.69,44.35,37.38,2.51,0.6,0.69,0.37,5.02,1.92,-10.36
1900-01-01 17:47:18.441,24.25,28.47,2.39,0.49,0.42,0.8,5.92,-0.47,-3.19,46.86,36.5,0.92,0.6,0.74,0.34,8.31,-2.66,-9.83
1900-01-01 17:47:18.487,25.66,27.77,2.07,0.48,0.45,0.8,3.74,-1.21,-0.34,48.89,34.61,-0.58,0.58,0.77,0.34,5.73,-0.79,-4.11
1900-01-01 17:47:18.584,26.74,28.24,2.17,0.48,0.45,0.76,1.89,0.2,0.11,50.32,34.17,-1.22,0.55,0.75,0.3,3.27,0.27,-2.44
1900-01-01 17:47:18.673,26.24,28.79,2.35,0.48,0.44,0.75,4.68,-0.81,-1.69,50.74,33.82,-1.59,0.55,0.77,0.3,5.95,-0.26,-3.67
1900-01-01 17:47:18.722,26.08,28.58,2.25,0.49,0.45,0.78,2.34,-0.54,-1.05,49.03,35.87,-2.16,0.58,0.75,0.29,3.79,0.68,-4.21
1900-01-01 17:47:18.815,28.07,28.87,2.25,0.49,0.48,0.75,7.3,-2.69,-1.91,52.63,33.27,-2.81,0.54,0.79,0.26,5.02,2.29,-5.15
1900-01-01 17:47:18.910,28.18,28.21,2.12,0.48,0.48,0.75,3.11,-0.51,-0.89,53.51,32.25,-3.6,0.53,0.8,0.26,-1.2,3.8,0.54
1900-01-01 17:47:18.956,29.57,28.56,2.14,0.49,0.5,0.74,3.16,2.21,1.25,53.96,31.81,-3.53,0.53,0.82,0.26,-0.63,3.84,1.79
1900-01-01 17:47:19.051,26.86,29.65,2.49,0.5,0.46,0.75,-0.84,-0.7,-0.29,49.89,35.04,-3.27,0.57,0.75,0.29,-1.01,1.99,0.31
1900-01-01 17:47:19.097,30.64,28.21,2.6,0.48,0.52,0.73,0.5,-0.14,-0.74,54.48,31.88,-3.23,0.53,0.81,0.24,-1.2,2.21,1.37
1900-01-01 17:47:19.192,29.2,28.23,2.65,0.48,0.5,0.75,0.15,2.7,1.3,52.19,33.08,-3.03,0.55,0.79,0.28,-0.57,2.63,2.86
1900-01-01 17:47:19.283,27.55,29.4,3.0,0.5,0.47,0.75,0.11,0.28,-0.31,51.33,34.03,-2.6,0.56,0.78,0.28,1.24,1.12,3.47
1900-01-01 17:47:19.331,28.15,29.54,3.12,0.5,0.48,0.74,-1.69,0.04,0.33,50.23,35.01,-2.08,0.57,0.76,0.28,-1.78,2.05,1.67
1900-01-01 17:47:19.424,28.12,28.58,3.32,0.48,0.48,0.75,-0.79,-1.91,-1.68,51.27,33.97,-1.84,0.55,0.77,0.28,0.61,0.71,0.24
1900-01-01 17:47:19.470,28.66,28.74,3.23,0.49,0.49,0.74,0.08,-0.85,-1.71,51.32,34.62,-1.81,0.56,0.77,0.26,-0.14,1.24,0.08
1900-01-01 17:47:19.566,27.67,28.77,3.13,0.49,0.48,0.76,-0.31,-0.49,-1.02,50.18,35.22,-1.81,0.57,0.76,0.28,-0.72,1.4,0.58
1900-01-01 17:47:19.658,28.34,28.8,3.13,0.49,0.49,0.76,-0.88,-0.94,-0.84,50.69,35.0,-1.73,0.57,0.77,0.27,-1.57,1.72,0.31
1900-01-01 17:47:19.705,28.37,29.0,3.16,0.49,0.48,0.74,-0.78,-1.23,-1.18,50.31,35.21,-1.69,0.57,0.76,0.27,-1.83,1.5,0.15
1900-01-01 17:47:19.798,28.96,29.71,3.14,0.5,0.49,0.73,0.17,-2.48,-2.9,50.85,35.0,-1.67,0.57,0.77,0.26,-1.09,0.12,-1.77
1900-01-01 17:47:19.892,30.24,28.38,2.85,0.48,0.51,0.73,-0.42,-0.53,-2.39,53.58,32.7,-1.95,0.54,0.81,0.25,-1.37,0.66,-0.46
1900-01-01 17:47:19.939,28.32,29.27,2.65,0.5,0.48,0.75,-0.53,0.34,-0.91,50.66,35.01,-2.03,0.57,0.77,0.27,-1.27,1.63,0.62
1900-01-01 17:47:20.034,29.34,29.14,2.67,0.49,0.5,0.73,-0.56,0.58,-0.21,51.39,34.61,-1.94,0.56,0.77,0.26,-1.6,1.6,0.59
1900-01-01 17:47:20.083,29.11,29.27,2.79,0.49,0.49,0.73,-0.53,-0.05,-0.76,51.77,34.27,-1.86,0.56,0.78,0.25,-1.75,1.31,0.89
1900-01-01 17:47:20.173,28.78,28.97,2.84,0.49,0.49,0.74,-0.5,0.4,-0.81,51.31,34.55,-1.74,0.56,0.78,0.26,-0.67,0.83,0.48
1900-01-01 17:47:20.266,28.82,28.8,2.87,0.49,0.49,0.74,-0.22,0.15,-1.01,51.77,34.28,-1.67,0.57,0.8,0.26,-1.41,0.3,2.5
1900-01-01 17:47:20.313,28.64,29.06,2.88,0.5,0.49,0.75,-0.41,-0.81,-0.27,50.35,35.54,-1.3,0.58,0.77,0.26,-0.84,1.09,1.89
1900-01-01 17:47:20.406,28.78,28.92,2.99,0.49,0.49,0.74,0.21,-0.85,-0.03,50.47,35.42,-1.02,0.58,0.77,0.26,-1.21,1.71,0.98
1900-01-01 17:47:20.498,29.22,29.09,3.15,0.49,0.5,0.74,-0.53,-1.66,0.21,50.39,35.62,-0.88,0.57,0.76,0.26,-2.61,1.69,0.85
1900-01-01 17:47:20.546,28.85,29.09,3.34,0.49,0.48,0.73,-1.11,-1.18,-0.46,50.4,35.44,-0.76,0.57,0.75,0.26,-1.78,1.31,0.49
1900-01-01 17:47:20.637,28.48,29.18,3.43,0.5,0.49,0.75,-0.8,-0.74,-0.52,49.84,35.86,-0.69,0.58,0.76,0.27,-1.51,1.08,0.37
1900-01-01 17:47:20.731,28.94,29.46,3.51,0.5,0.49,0.74,-0.69,-0.83,-0.42,50.04,35.89,-0.64,0.58,0.76,0.26,-2.05,1.51,0.44
1900-01-01 17:47:20.777,29.3,29.4,3.6,0.5,0.5,0.73,1.56,-1.13,-0.34,50.35,35.72,-0.58,0.58,0.77,0.26,-4.09,2.12,1.18
1900-01-01 17:47:20.872,30.77,29.41,3.71,0.5,0.52,0.72,0.28,-0.5,-0.14,49.41,35.63,-0.41,0.58,0.75,0.29,-5.16,1.42,2.63
1900-01-01 17:47:20.918,29.59,29.53,3.85,0.49,0.49,0.72,-5.72,1.93,-0.74,49.55,35.53,-0.02,0.57,0.74,0.28,-2.48,-1.47,0.05
1900-01-01 17:47:21.011,28.12,28.89,3.89,0.5,0.49,0.76,-4.5,1.44,-0.92,49.53,35.93,-0.02,0.59,0.77,0.28,-1.94,1.16,-1.37
1900-01-01 17:47:21.106,27.75,29.38,3.91,0.5,0.47,0.75,-1.13,-0.26,-1.02,49.07,36.3,-0.24,0.59,0.75,0.28,-0.18,2.08,-0.69
1900-01-01 17:47:21.152,28.26,29.45,3.91,0.5,0.48,0.74,-0.91,-0.1,-1.05,49.75,35.99,-0.35,0.59,0.76,0.27,0.14,1.4,-0.37
1900-01-01 17:47:21.248,28.01,28.97,3.91,0.49,0.48,0.75,-0.02,-0.43,-1.27,50.28,35.36,-0.42,0.58,0.77,0.27,-0.24,1.25,-0.68
1900-01-01 17:47:21.341,28.15,29.13,3.88,0.5,0.48,0.75,-0.73,0.09,-1.14,49.98,35.7,-0.53,0.58,0.76,0.27,-0.54,1.42,-0.36
1900-01-01 17:47:21.387,28.24,29.26,3.86,0.5,0.48,0.75,0.35,-0.2,-1.04,50.19,35.58,-0.59,0.58,0.77,0.27,-0.38,1.43,-0.31
1900-01-01 17:47:21.480,27.94,29.34,3.86,0.5,0.48,0.75,-0.18,-0.4,-0.9,49.88,35.79,-0.65,0.58,0.76,0.27,-0.89,1.88,-0.05
1900-01-01 17:47:21.546,28.39,29.05,3.88,0.49,0.48,0.74,-0.89,0.0,-0.74,50.1,35.68,-0.66,0.58,0.76,0.26,-1.27,1.58,0.1
1900-01-01 17:47:21.621,28.44,29.13,3.93,0.49,0.48,0.74,-0.73,-0.14,-0.92,50.13,35.7,-0.66,0.58,0.76,0.26,-1.11,1.36,0.21
1900-01-01 17:47:21.714,28.14,29.29,3.95,0.5,0.48,0.75,-0.66,-0.32,-0.84,50.06,35.71,-0.63,0.58,0.76,0.27,-1.28,0.95,0.05
1900-01-01 17:47:21.763,27.23,29.31,3.98,0.5,0.47,0.76,-0.59,-0.12,-0.46,49.12,36.51,-0.63,0.59,0.75,0.27,-0.58,1.37,-0.33
1900-01-01 17:47:21.855,28.21,28.85,4.06,0.49,0.48,0.75,-0.75,-0.07,-0.81,50.19,35.63,-0.69,0.58,0.76,0.26,-1.74,1.25,0.17
1900-01-01 17:47:21.948,28.06,29.05,4.1,0.49,0.48,0.74,0.47,-0.08,-0.72,49.72,35.92,-0.68,0.58,0.75,0.27,-0.05,1.35,-0.51
1900-01-01 17:47:21.996,27.96,29.14,4.15,0.49,0.47,0.74,-0.92,0.07,-1.05,49.55,36.01,-0.76,0.58,0.75,0.27,-1.65,1.48,0.5
1900-01-01 17:47:22.090,28.6,28.93,4.15,0.49,0.49,0.75,-0.21,-0.39,-1.26,50.57,35.42,-0.69,0.58,0.77,0.26,-0.93,1.67,-0.59
1900-01-01 17:47:22.135,27.99,29.07,4.11,0.49,0.48,0.75,-1.6,0.02,-0.58,49.8,35.87,-0.79,0.58,0.76,0.27,-1.89,2.21,-0.27
1900-01-01 17:47:22.229,28.36,28.97,4.18,0.49,0.48,0.75,-2.62,0.4,-0.7,50.48,35.39,-0.84,0.57,0.76,0.26,-2.69,1.37,0.45
1900-01-01 17:47:22.320,27.66,28.98,4.24,0.49,0.47,0.75,-0.03,0.01,-1.15,49.76,35.67,-0.78,0.58,0.76,0.28,-1.32,1.82,-0.73
1900-01-01 17:47:22.367,27.23,29.25,4.22,0.5,0.46,0.75,1.24,-0.57,-1.63,50.09,35.53,-0.9,0.58,0.77,0.27,0.69,0.75,-1.85
1900-01-01 17:47:22.460,27.79,29.12,4.13,0.5,0.48,0.75,-0.48,-0.05,-0.5,49.78,35.79,-1.19,0.58,0.76,0.27,-0.98,1.41,-0.11
1900-01-01 17:47:22.553,28.99,28.63,4.21,0.49,0.5,0.75,-0.33,-0.4,-0.66,51.37,34.61,-1.22,0.57,0.78,0.26,-1.73,1.37,-0.01
1900-01-01 17:47:22.599,28.0,28.43,4.27,0.49,0.48,0.76,3.52,-1.27,-0.96,50.95,34.91,-1.23,0.58,0.79,0.27,0.3,1.45,-0.8
1900-01-01 17:47:22.694,30.16,29.52,4.28,0.5,0.51,0.72,13.11,-0.09,-1.26,51.12,35.55,-1.36,0.58,0.77,0.23,0.29,1.67,3.73
1900-01-01 17:47:22.785,29.75,29.37,4.25,0.49,0.49,0.71,-0.08,-0.2,-0.76,49.65,36.07,-0.8,0.56,0.73,0.26,-2.39,1.17,-0.97
1900-01-01 17:47:22.832,29.13,28.23,4.29,0.48,0.5,0.75,-10.82,2.11,-1.4,50.09,35.49,-0.96,0.59,0.78,0.28,-5.02,-1.37,0.37
1900-01-01 17:47:22.926,27.71,29.16,4.23,0.51,0.49,0.77,-4.38,1.04,-0.78,48.84,36.56,-0.91,0.61,0.77,0.29,-0.46,1.34,-1.25
1900-01-01 17:47:23.019,28.43,28.35,4.27,0.48,0.48,0.75,-1.33,-0.66,-0.69,50.36,35.15,-1.11,0.57,0.76,0.27,-1.74,2.73,-0.6
1900-01-01 17:47:23.068,28.34,28.62,4.33,0.49,0.48,0.75,-1.89,0.14,-1.16,50.24,35.03,-1.21,0.57,0.77,0.28,-0.55,1.92,-0.37
1900-01-01 17:47:23.162,28.31,28.77,4.31,0.49,0.48,0.75,-1.29,-0.57,-1.21,50.68,35.0,-1.27,0.57,0.77,0.27,0.27,1.79,-0.24
1900-01-01 17:47:23.209,28.42,28.69,4.28,0.48,0.48,0.74,-0.04,-0.16,-1.14,50.97,34.86,-1.32,0.57,0.77,0.26,-0.55,1.38,-0.43
1900-01-01 17:47:23.301,28.12,28.55,4.27,0.49,0.48,0.76,-0.53,-0.22,-1.15,50.46,35.09,-1.39,0.58,0.77,0.27,-1.13,1.38,-0.35
1900-01-01 17:47:23.395,28.1,28.69,4.25,0.49,0.48,0.75,-0.53,-0.48,-0.82,50.45,35.17,-1.45,0.57,0.76,0.27,-1.44,1.41,0.08
1900-01-01 17:47:23.442,27.91,28.52,4.29,0.48,0.47,0.75,-0.83,-0.15,-0.91,50.36,35.15,-1.45,0.57,0.77,0.27,-1.34,1.5,0.11
1900-01-01 17:47:23.537,28.83,28.44,4.31,0.48,0.49,0.75,-0.23,0.16,-0.53,51.3,34.58,-1.44,0.56,0.78,0.26,-1.44,1.13,0.31
1900-01-01 17:47:23.630,28.68,28.4,4.38,0.48,0.49,0.75,-0.39,0.64,0.13,51.43,34.39,-1.4,0.56,0.78,0.26,-1.32,1.57,1.07
1900-01-01 17:47:23.676,27.38,28.18,4.56,0.48,0.47,0.77,-0.71,1.0,1.12,49.15,35.7,-1.25,0.58,0.75,0.29,-1.24,2.11,1.49
1900-01-01 17:47:23.767,28.34,28.48,4.89,0.48,0.48,0.75,-2.66,0.42,-0.48,50.78,35.04,-1.03,0.57,0.77,0.26,-3.09,1.39,0.46
1900-01-01 17:47:23.815,27.45,28.62,4.98,0.48,0.47,0.76,-0.82,0.44,-0.56,49.81,35.58,-0.97,0.58,0.76,0.28,-1.44,1.84,0.61
1900-01-01 17:47:23.908,28.34,28.19,5.05,0.48,0.48,0.76,-0.48,1.7,0.54,51.6,34.47,-0.88,0.56,0.78,0.25,-1.15,1.95,1.69
1900-01-01 17:47:24.001,27.03,28.19,5.29,0.48,0.46,0.76,-1.5,3.07,3.27,48.8,36.06,-0.63,0.58,0.75,0.29,-2.96,2.56,1.68
1900-01-01 17:47:24.048,26.49,28.39,5.95,0.48,0.45,0.77,-1.52,1.68,1.95,48.96,36.28,-0.39,0.59,0.75,0.28,-1.7,2.85,0.97
1900-01-01 17:47:24.129,27.16,28.0,6.4,0.47,0.46,0.76,-1.99,2.47,1.61,49.6,35.78,-0.25,0.58,0.75,0.28,-3.11,3.05,1.6
1900-01-01 17:47:24.221,25.66,28.04,6.8,0.48,0.44,0.78,-2.96,2.95,1.73,47.92,36.43,-0.02,0.59,0.74,0.31,-3.82,3.36,2.13
1900-01-01 17:47:24.267,25.89,28.29,7.23,0.48,0.44,0.78,-1.73,2.39,1.1,48.34,37.0,0.3,0.59,0.73,0.28,-3.15,3.38,1.4
1900-01-01 17:47:24.363,25.72,28.19,7.55,0.48,0.44,0.78,-3.51,3.95,4.22,47.64,36.6,0.5,0.59,0.73,0.31,-8.54,6.18,3.73
1900-01-01 17:47:24.454,23.99,26.87,8.35,0.46,0.41,0.8,-7.83,4.09,3.48,46.27,37.07,1.06,0.59,0.7,0.33,-10.34,3.74,4.11
1900-01-01 17:47:24.501,23.2,27.18,9.04,0.46,0.4,0.81,-6.44,4.05,3.34,44.15,37.74,1.67,0.6,0.68,0.37,-12.07,7.53,3.31
1900-01-01 17:47:24.593,21.62,26.83,9.7,0.47,0.38,0.84,-3.72,2.77,2.52,42.33,37.92,2.17,0.61,0.67,0.41,-5.61,4.97,3.4
1900-01-01 17:47:24.659,20.85,26.72,10.24,0.46,0.37,0.85,-2.16,1.66,2.76,42.19,38.62,2.68,0.62,0.67,0.4,-1.16,4.6,3.52
1900-01-01 17:47:24.734,21.49,26.33,10.82,0.45,0.37,0.83,-2.64,1.94,2.7,43.22,37.35,3.2,0.6,0.68,0.4,-3.2,5.01,3.69
1900-01-01 17:47:24.829,21.37,26.33,11.39,0.45,0.37,0.83,-0.77,1.85,2.66,42.57,36.97,3.75,0.6,0.68,0.43,-1.35,4.1,3.66
1900-01-01 17:47:24.875,19.62,26.44,11.95,0.45,0.34,0.84,0.37,-0.11,0.87,39.97,39.04,4.3,0.62,0.64,0.43,2.33,2.28,3.37
1900-01-01 17:47:24.969,21.1,25.69,12.24,0.44,0.37,0.84,-0.68,0.98,0.16,43.17,37.48,4.8,0.61,0.68,0.4,0.23,2.28,3.05
1900-01-01 17:47:25.064,19.8,26.56,12.42,0.46,0.35,0.85,-1.37,0.88,0.56,40.51,39.14,5.25,0.63,0.65,0.42,-1.19,2.56,1.76
1900-01-01 17:47:25.112,19.91,26.25,12.67,0.45,0.34,0.84,-1.66,0.53,-0.04,41.14,39.26,5.51,0.62,0.65,0.4,-0.46,2.28,2.44
1900-01-01 17:47:25.203,18.78,26.56,12.82,0.46,0.33,0.86,-0.14,-1.17,-1.25,39.15,39.53,5.88,0.64,0.63,0.44,1.67,2.17,0.92
1900-01-01 17:47:25.297,20.55,25.92,12.79,0.45,0.36,0.85,1.92,-3.05,-2.63,42.28,38.86,6.01,0.62,0.66,0.39,3.0,0.94,-1.06
1900-01-01 17:47:25.346,21.15,26.7,12.55,0.45,0.36,0.83,0.2,-1.15,-0.71,41.68,39.19,5.84,0.62,0.65,0.39,-1.07,1.09,-0.24
1900-01-01 17:47:25.439,20.8,26.23,12.6,0.45,0.36,0.83,0.53,-0.71,-1.44,42.38,38.25,5.79,0.61,0.66,0.4,0.8,-0.12,0.49
1900-01-01 17:47:25.484,21.0,26.72,12.53,0.46,0.36,0.83,-0.25,-0.52,-1.81,41.89,39.46,5.86,0.63,0.66,0.38,-0.25,0.82,-0.3
1900-01-01 17:47:25.579,21.25,26.61,12.42,0.46,0.37,0.83,-0.53,-0.15,-1.94,42.43,39.16,5.81,0.63,0.67,0.38,-0.82,0.72,-0.52
1900-01-01 17:47:25.673,21.03,26.55,12.28,0.46,0.37,0.84,-0.28,-0.22,-1.21,42.19,39.11,5.72,0.63,0.67,0.39,-1.15,1.02,-0.27
1900-01-01 17:47:25.720,21.34,26.38,12.25,0.45,0.37,0.84,-0.53,-0.52,-1.3,42.48,38.97,5.67,0.62,0.67,0.38,-1.46,1.07,-0.42
1900-01-01 17:47:25.813,21.15,26.58,12.21,0.46,0.37,0.83,0.43,-0.72,-1.31,42.69,38.53,5.6,0.62,0.68,0.39,-0.76,1.13,-0.82
1900-01-01 17:47:25.906,21.27,26.3,12.17,0.45,0.37,0.83,1.43,-1.11,-1.89,42.66,38.16,5.46,0.62,0.67,0.4,-0.67,1.47,-1.49
1900-01-01 17:47:25.952,21.91,26.75,12.04,0.46,0.38,0.82,0.28,-1.15,-2.91,43.12,38.69,5.23,0.62,0.67,0.37,-1.02,0.58,-2.17
1900-01-01 17:47:26.054,22.36,26.91,11.76,0.47,0.39,0.83,-0.64,0.56,-1.03,43.59,38.21,4.89,0.62,0.7,0.38,-2.64,2.24,-0.5
1900-01-01 17:47:26.091,21.32,26.38,11.76,0.45,0.37,0.83,-0.41,-1.05,-1.75,42.65,38.53,4.8,0.61,0.66,0.38,-0.69,0.82,-1.55
1900-01-01 17:47:26.186,22.39,26.99,11.65,0.47,0.39,0.83,-0.98,0.17,-0.53,43.74,38.01,4.56,0.62,0.7,0.38,-1.45,1.06,0.64
1900-01-01 17:47:26.280,21.33,26.58,11.73,0.45,0.37,0.83,-0.08,-1.66,-0.61,42.11,38.62,4.65,0.61,0.66,0.39,0.3,1.12,-0.36
1900-01-01 17:47:26.327,21.75,26.59,11.79,0.45,0.38,0.83,0.41,-2.49,-2.41,44.15,37.59,4.59,0.61,0.69,0.38,-0.82,-0.69,-2.93
1900-01-01 17:47:26.419,23.18,27.08,11.58,0.47,0.4,0.82,-0.98,-0.01,-1.01,45.62,37.13,4.13,0.61,0.72,0.36,-3.37,1.27,0.66
1900-01-01 17:47:26.513,20.61,26.52,11.59,0.46,0.36,0.85,-1.11,-1.13,0.04,41.5,38.69,4.22,0.62,0.66,0.41,-2.08,1.86,0.35
1900-01-01 17:47:26.559,20.77,27.19,11.75,0.46,0.36,0.83,-0.97,-2.69,-2.09,41.4,39.21,4.27,0.63,0.65,0.4,-2.4,-0.07,-1.11
1900-01-01 17:47:26.653,23.49,27.55,11.59,0.47,0.4,0.8,2.37,-2.9,-4.06,46.59,36.37,4.09,0.59,0.72,0.34,-0.69,0.41,-2.18
1900-01-01 17:47:26.700,21.75,26.91,11.13,0.46,0.37,0.82,-1.96,0.77,-0.73,42.86,38.03,3.75,0.6,0.67,0.39,-2.78,0.95,0.26
1900-01-01 17:47:26.795,22.04,26.69,11.18,0.47,0.39,0.84,-3.06,-0.11,-0.91,43.52,37.44,3.78,0.61,0.7,0.4,-4.33,0.87,1.59
1900-01-01 17:47:26.888,21.39,27.38,11.2,0.47,0.37,0.82,-2.15,-0.74,-0.53,42.34,38.72,4.01,0.63,0.68,0.39,-3.29,2.4,1.11
1900-01-01 17:47:26.935,22.62,27.01,11.28,0.46,0.39,0.81,-0.92,-1.64,-2.14,43.31,37.75,4.17,0.6,0.67,0.38,-2.95,0.51,-0.98
1900-01-01 17:47:27.029,22.1,27.34,11.11,0.47,0.39,0.83,-0.41,0.1,-1.21,43.71,37.71,4.01,0.62,0.7,0.39,-2.08,1.27,-0.26
1900-01-01 17:47:27.122,21.42,27.46,11.08,0.47,0.37,0.82,-0.03,-0.18,-0.91,42.72,37.82,3.97,0.61,0.67,0.4,-0.34,1.35,-0.31
1900-01-01 17:47:27.172,21.91,27.63,11.1,0.47,0.38,0.81,-0.58,-0.27,-1.28,42.96,37.86,3.91,0.6,0.67,0.39,-0.04,0.6,-0.43
1900-01-01 17:47:27.264,21.66,27.29,11.06,0.47,0.38,0.82,-0.32,-0.12,-1.08,42.0,38.23,3.84,0.61,0.66,0.41,0.8,0.31,-0.6
1900-01-01 17:47:27.307,22.47,27.41,11.06,0.47,0.39,0.82,1.18,-0.86,-1.37,44.57,37.45,3.74,0.6,0.7,0.37,0.03,0.86,-0.42
1900-01-01 17:47:27.404,21.69,27.16,11.01,0.46,0.38,0.82,-0.33,-0.24,-0.97,42.67,38.38,3.67,0.61,0.67,0.39,-0.18,1.22,-0.34
1900-01-01 17:47:27.496,22.3,27.45,11.02,0.47,0.39,0.81,0.07,-0.3,-0.84,43.4,38.17,3.61,0.61,0.68,0.38,-0.05,1.02,-0.41
1900-01-01 17:47:27.541,22.18,27.14,11.05,0.47,0.39,0.82,0.45,-0.08,-1.02,43.42,37.89,3.53,0.61,0.69,0.39,-0.07,0.39,-0.41
1900-01-01 17:47:27.640,23.02,27.12,11.05,0.47,0.4,0.82,-0.72,0.53,-0.15,45.16,37.22,3.46,0.6,0.71,0.36,-1.01,1.39,0.61
1900-01-01 17:47:27.732,21.91,26.95,11.19,0.46,0.38,0.83,-0.68,-0.44,-0.47,42.83,38.19,3.55,0.61,0.68,0.39,-0.98,0.99,0.23
1900-01-01 17:47:27.777,22.49,27.31,11.27,0.46,0.39,0.81,0.36,-0.72,-1.24,44.19,37.74,3.57,0.6,0.69,0.37,0.63,0.01,-0.24
1900-01-01 17:47:27.873,21.82,27.45,11.24,0.47,0.38,0.82,-0.04,-0.93,-1.23,43.6,38.33,3.53,0.62,0.69,0.37,0.39,0.35,-0.77
1900-01-01 17:47:27.965,22.68,27.3,11.21,0.46,0.39,0.81,-0.95,-0.28,-0.98,44.3,37.98,3.4,0.61,0.69,0.36,-1.4,0.13,0.59
1900-01-01 17:47:28.011,22.28,27.31,11.22,0.47,0.39,0.82,-0.23,-0.53,-1.64,44.17,38.13,3.48,0.62,0.7,0.37,0.53,0.12,0.31
1900-01-01 17:47:28.104,22.73,27.44,11.13,0.47,0.39,0.81,0.4,-0.73,-1.02,44.49,38.16,3.52,0.61,0.69,0.35,0.19,0.76,-0.53
1900-01-01 17:47:28.151,22.83,27.1,11.13,0.46,0.39,0.81,-0.34,-0.05,-1.21,44.73,37.77,3.43,0.61,0.7,0.36,0.26,-0.01,-0.53
1900-01-01 17:47:28.242,20.67,27.22,11.11,0.47,0.36,0.83,3.61,-0.53,-1.79,45.99,37.05,3.34,0.62,0.74,0.36,4.85,-1.14,-2.7
1900-01-01 17:47:28.336,22.57,27.69,10.99,0.47,0.39,0.81,0.6,-0.92,-1.28,45.18,38.64,2.92,0.61,0.7,0.32,4.26,-1.71,-1.67
1900-01-01 17:47:28.383,22.48,27.45,10.95,0.46,0.38,0.81,1.85,-0.13,-1.38,45.51,38.25,2.66,0.61,0.71,0.33,6.06,-1.32,-2.27
1900-01-01 17:47:28.477,23.48,27.05,10.9,0.47,0.41,0.83,1.21,-0.82,-1.73,47.19,37.69,2.31,0.62,0.74,0.3,2.72,0.66,-0.7
1900-01-01 17:47:28.572,24.53,26.75,10.8,0.47,0.43,0.82,1.31,-1.53,-0.98,47.88,37.47,2.19,0.62,0.75,0.29,0.26,1.3,-1.02
1900-01-01 17:47:28.617,24.62,27.14,10.8,0.46,0.42,0.79,1.71,-0.89,-0.92,48.69,36.62,2.03,0.59,0.75,0.28,-0.26,1.41,-0.84
1900-01-01 17:47:28.712,23.93,27.25,10.82,0.47,0.42,0.81,-0.56,0.25,-0.98,47.2,37.63,1.89,0.61,0.73,0.3,-1.93,1.53,-0.34
1900-01-01 17:47:28.756,24.14,27.74,10.83,0.47,0.41,0.79,-0.73,0.05,-0.9,47.4,37.53,1.83,0.6,0.73,0.29,-1.81,1.45,-0.14
1900-01-01 17:47:28.850,24.33,27.58,10.85,0.47,0.42,0.8,0.07,-0.51,-1.19,47.51,37.62,1.8,0.61,0.74,0.29,-1.4,1.46,-0.73
1900-01-01 17:47:28.944,23.91,27.66,10.83,0.47,0.41,0.8,0.45,-0.94,-0.92,47.1,37.8,1.68,0.61,0.73,0.29,-1.79,1.55,-0.61
1900-01-01 17:47:28.989,24.7,27.59,10.85,0.47,0.43,0.8,-0.3,-0.62,-0.82,47.88,37.08,1.58,0.6,0.74,0.29,-2.18,1.53,-0.05
1900-01-01 17:47:29.084,24.48,27.49,10.88,0.47,0.42,0.8,-0.6,-0.5,-0.76,47.65,37.28,1.56,0.6,0.73,0.29,-1.78,1.34,0.23
1900-01-01 17:47:29.177,24.36,27.51,10.92,0.47,0.42,0.79,-0.05,-0.34,-1.02,47.75,37.17,1.59,0.6,0.73,0.29,-1.58,1.32,0.44
1900-01-01 17:47:29.225,24.84,27.13,10.93,0.47,0.43,0.8,0.82,-0.64,-0.94,46.92,37.85,1.65,0.61,0.73,0.3,-4.35,1.73,0.57
1900-01-01 17:47:29.318,25.32,28.32,10.94,0.48,0.43,0.77,1.94,-0.68,-0.54,47.69,37.09,1.73,0.59,0.72,0.29,-0.73,1.08,-0.34
1900-01-01 17:47:29.366,25.02,27.74,11.02,0.46,0.42,0.77,-4.53,1.86,-1.34,47.34,37.45,1.67,0.59,0.71,0.29,-4.09,-0.95,0.34
1900-01-01 17:47:29.473,23.69,27.1,10.97,0.47,0.41,0.82,-3.32,1.95,-1.12,47.07,37.14,1.71,0.62,0.75,0.32,-0.34,-0.02,-0.18
1900-01-01 17:47:29.551,24.18,27.15,10.96,0.47,0.42,0.81,0.38,-1.47,-0.89,47.45,37.33,1.67,0.6,0.73,0.3,-0.21,2.15,-0.79
1900-01-01 17:47:29.597,24.37,27.07,10.98,0.46,0.42,0.8,-0.56,0.0,-0.66,47.64,37.06,1.54,0.6,0.73,0.3,-0.07,1.73,0.31
1900-01-01 17:47:29.697,24.89,27.28,11.04,0.47,0.43,0.8,-0.08,-0.29,-0.97,48.25,36.77,1.58,0.6,0.75,0.29,0.21,1.31,-0.04
1900-01-01 17:47:29.783,23.76,27.01,11.05,0.46,0.41,0.81,0.09,-0.33,-1.21,47.26,37.46,1.57,0.61,0.73,0.3,0.3,1.31,-0.17
1900-01-01 17:47:29.832,24.37,27.13,11.02,0.46,0.42,0.8,-1.06,0.19,-1.14,47.45,37.47,1.53,0.6,0.73,0.29,-1.09,1.25,0.04
1900-01-01 17:47:29.922,24.11,27.03,11.01,0.46,0.41,0.8,-0.37,-0.22,-1.24,47.24,37.58,1.53,0.6,0.72,0.29,-0.43,2.23,0.49
1900-01-01 17:47:30.016,24.61,26.95,10.98,0.46,0.42,0.79,-0.9,0.94,-0.92,47.37,37.93,1.6,0.6,0.72,0.28,-0.41,1.88,0.09
1900-01-01 17:47:30.062,24.15,26.54,11.0,0.46,0.42,0.81,-0.56,0.21,-1.31,47.6,37.32,1.6,0.61,0.74,0.3,-2.31,1.11,-0.87
1900-01-01 17:47:30.155,24.59,26.39,10.96,0.45,0.42,0.81,-0.4,-0.14,-1.11,47.68,37.15,1.46,0.6,0.73,0.29,-1.82,1.2,-0.96
1900-01-01 17:47:30.249,24.15,26.54,10.95,0.46,0.42,0.81,-0.26,-0.26,-1.25,47.23,37.29,1.31,0.6,0.73,0.3,-2.66,2.02,-0.83
1900-01-01 17:47:30.296,24.36,26.58,10.91,0.46,0.42,0.81,-0.23,-0.46,-1.78,48.19,36.57,1.17,0.6,0.75,0.3,-1.23,2.69,-0.5
1900-01-01 17:47:30.389,24.62,26.9,10.8,0.46,0.43,0.8,-1.09,-0.12,-0.66,47.84,36.95,1.08,0.6,0.74,0.3,-2.74,3.44,0.64
1900-01-01 17:47:30.436,24.94,27.01,10.86,0.46,0.43,0.8,-0.55,-0.55,-0.69,47.77,36.63,1.17,0.59,0.74,0.31,-2.11,3.07,0.36
1900-01-01 17:47:30.528,24.23,26.64,10.91,0.46,0.42,0.81,-1.05,-1.73,-2.14,47.04,36.96,1.22,0.59,0.72,0.31,-1.2,2.02,-1.21
1900-01-01 17:47:30.624,25.56,26.85,10.74,0.46,0.44,0.79,-0.74,-0.95,-1.66,48.71,35.76,1.03,0.58,0.74,0.3,-3.1,1.53,-1.69
1900-01-01 17:47:30.676,23.94,26.81,10.65,0.46,0.41,0.81,-0.72,-0.53,-1.4,46.59,36.59,0.76,0.59,0.72,0.34,-2.05,1.68,-1.52
1900-01-01 17:47:30.764,25.2,26.58,10.59,0.46,0.44,0.8,-0.88,-0.96,-1.34,49.15,34.97,0.52,0.57,0.75,0.31,-2.94,2.18,-0.89
1900-01-01 17:47:30.856,23.69,26.83,10.54,0.46,0.41,0.81,-1.44,-1.52,-2.26,46.74,36.18,0.37,0.59,0.72,0.34,-2.15,1.37,-1.56
1900-01-01 17:47:30.904,25.27,27.1,10.36,0.46,0.43,0.79,-0.71,-1.99,-2.88,49.66,34.54,0.13,0.57,0.76,0.31,-2.16,1.19,-1.67
1900-01-01 17:47:30.996,24.71,27.05,10.07,0.47,0.43,0.81,-1.24,-1.21,-1.8,47.68,35.37,-0.14,0.58,0.74,0.34,-2.34,1.46,-1.24
1900-01-01 17:47:31.043,24.81,26.95,9.96,0.46,0.43,0.8,0.27,-2.21,-2.46,49.03,34.53,-0.34,0.56,0.74,0.32,-1.52,1.78,-1.75
1900-01-01 17:47:31.136,26.52,26.23,9.74,0.45,0.46,0.8,-1.18,-0.11,-0.9,50.36,33.3,-0.61,0.55,0.78,0.33,-4.26,1.06,0.7
1900-01-01 17:47:31.238,26.59,27.07,9.76,0.46,0.45,0.77,-0.08,1.99,1.24,50.2,33.88,-0.51,0.54,0.74,0.3,-2.85,1.66,-0.9
1900-01-01 17:47:31.277,24.42,27.35,10.11,0.46,0.41,0.78,1.4,3.87,0.47,47.23,35.72,-0.66,0.56,0.7,0.33,-0.79,-1.18,-2.2
1900-01-01 17:47:31.371,25.36,26.85,10.34,0.45,0.43,0.78,3.56,5.69,-3.46,48.98,35.19,-1.0,0.57,0.74,0.31,0.4,-5.37,-1.87
1900-01-01 17:47:31.466,26.24,25.53,9.97,0.44,0.45,0.81,5.74,5.22,-3.12,49.82,34.74,-1.29,0.57,0.77,0.3,5.46,-6.7,-0.44
1900-01-01 17:47:31.512,26.73,25.24,9.66,0.43,0.45,0.79,3.54,4.17,-2.18,49.64,35.38,-1.37,0.57,0.75,0.29,-2.99,-4.28,-0.64
1900-01-01 17:47:31.606,29.59,24.31,9.48,0.41,0.49,0.76,3.94,4.4,-3.34,51.08,35.07,-1.48,0.56,0.75,0.25,-3.56,-11.34,-1.98
1900-01-01 17:47:31.654,30.22,22.99,9.13,0.4,0.51,0.78,8.1,5.05,-5.01,49.94,36.55,-1.79,0.6,0.77,0.25,7.37,-12.44,-1.92
1900-01-01 17:47:31.747,28.22,22.2,8.52,0.38,0.48,0.81,8.24,3.48,-6.57,50.11,36.77,-2.09,0.62,0.8,0.24,7.92,-8.08,-2.82
1900-01-01 17:47:31.837,15.91,20.67,7.68,0.33,0.26,0.84,-1.94,1.08,-5.97,49.82,37.02,-2.52,0.6,0.76,0.23,1.22,-8.04,-0.35
1900-01-01 17:47:31.885,26.46,18.94,6.93,0.33,0.45,0.85,-6.13,-4.44,-5.7,48.95,38.33,-2.59,0.63,0.77,0.22,-8.18,-6.24,3.35
1900-01-01 17:47:31.980,29.64,21.1,6.22,0.36,0.49,0.79,-0.02,-3.18,-6.27,50.21,38.31,-2.08,0.61,0.75,0.16,-8.36,-0.66,3.15
1900-01-01 17:47:32.040,30.24,20.26,5.42,0.35,0.51,0.8,-6.35,-2.49,-4.85,50.07,37.69,-1.61,0.61,0.77,0.2,-7.4,-0.92,0.52
1900-01-01 17:47:32.119,27.43,20.47,4.84,0.35,0.46,0.82,-0.48,-2.63,-4.47,46.88,40.16,-1.54,0.63,0.71,0.22,-6.27,-1.31,-1.23
1900-01-01 17:47:32.213,30.65,20.67,4.31,0.36,0.52,0.79,-1.65,-1.57,-4.02,49.72,37.94,-1.74,0.6,0.75,0.2,-5.24,-1.6,-0.7
1900-01-01 17:47:32.259,29.78,21.07,3.85,0.36,0.5,0.8,-1.65,-3.41,-3.11,49.4,38.07,-1.85,0.61,0.76,0.21,-3.66,-1.38,-2.76
1900-01-01 17:47:32.353,30.83,20.77,3.54,0.36,0.52,0.8,-9.98,-3.03,-0.8,51.57,36.03,-2.28,0.59,0.78,0.2,-1.73,3.47,-2.1
1900-01-01 17:47:32.448,26.69,20.7,3.57,0.36,0.46,0.83,-8.47,-6.81,-2.33,50.24,36.29,-2.61,0.59,0.76,0.24,-3.92,-2.53,-3.74
1900-01-01 17:47:32.494,25.28,23.19,3.38,0.4,0.43,0.82,-3.77,-4.8,-3.92,50.02,37.32,-3.19,0.62,0.78,0.22,-6.21,-3.34,-1.43
1900-01-01 17:47:32.587,27.46,22.35,2.93,0.39,0.47,0.81,0.27,-2.84,-4.85,50.09,37.01,-3.42,0.6,0.77,0.22,-7.88,-1.84,2.14
1900-01-01 17:47:32.681,29.28,21.83,2.35,0.38,0.5,0.8,-0.57,-3.04,-4.85,49.85,37.02,-3.1,0.59,0.74,0.22,-3.23,-3.15,-0.92
1900-01-01 17:47:32.727,26.78,23.04,1.77,0.4,0.46,0.81,-7.96,-4.21,-2.68,49.17,37.89,-3.25,0.62,0.76,0.22,-3.38,-2.34,-0.62
1900-01-01 17:47:32.821,24.18,22.84,1.52,0.39,0.41,0.83,-2.6,-0.29,-1.26,48.03,38.58,-3.36,0.63,0.75,0.24,-3.05,-0.44,1.59
1900-01-01 17:47:32.914,26.59,22.77,1.48,0.39,0.45,0.82,-0.18,1.51,-0.06,47.71,39.3,-3.12,0.62,0.72,0.22,-1.12,2.06,1.44
1900-01-01 17:47:32.961,25.74,22.19,1.63,0.38,0.44,0.83,5.05,-0.81,-1.31,49.45,37.42,-2.91,0.62,0.78,0.24,-3.23,2.41,1.27
1900-01-01 17:47:33.055,28.32,21.3,1.59,0.37,0.48,0.81,5.41,-1.29,0.51,48.3,38.07,-2.73,0.62,0.75,0.25,0.15,2.69,2.49
1900-01-01 17:47:33.102,29.53,23.03,1.83,0.4,0.5,0.79,4.25,-1.7,0.13,50.44,37.02,-2.36,0.6,0.77,0.21,0.76,-1.27,-1.06
1900-01-01 17:47:33.196,27.14,23.76,2.01,0.4,0.45,0.78,-0.33,-1.23,-1.07,47.06,40.16,-2.53,0.63,0.71,0.21,-0.25,-1.92,-1.81
1900-01-01 17:47:33.287,29.61,23.26,2.0,0.4,0.5,0.79,3.03,-1.3,-2.8,49.14,38.4,-2.81,0.62,0.76,0.2,1.95,-0.03,-2.73
1900-01-01 17:47:33.342,29.98,23.41,1.73,0.41,0.51,0.79,0.29,-2.52,-3.08,50.18,37.62,-3.24,0.62,0.78,0.2,1.34,-0.01,-0.47
1900-01-01 17:47:33.426,29.92,22.99,1.42,0.39,0.5,0.77,-0.87,-1.18,-2.06,50.08,37.6,-3.32,0.6,0.76,0.2,0.73,0.54,-0.57
1900-01-01 17:47:33.522,30.77,23.33,1.26,0.4,0.52,0.77,1.31,-1.63,-1.51,51.39,36.42,-3.41,0.59,0.77,0.19,0.15,-0.08,-2.13
1900-01-01 17:47:33.568,30.19,23.79,1.19,0.41,0.51,0.77,-1.8,-0.94,-0.37,50.07,38.3,-3.75,0.61,0.75,0.16,0.4,0.75,-1.91
1900-01-01 17:47:33.663,29.77,23.11,1.29,0.4,0.5,0.78,0.47,-0.33,-1.23,51.77,36.38,-4.05,0.59,0.79,0.18,0.11,2.1,-2.11
1900-01-01 17:47:33.754,29.94,23.73,1.27,0.41,0.51,0.78,-1.87,-0.12,-0.21,50.73,37.2,-4.38,0.6,0.77,0.19,-3.24,2.6,-0.85
1900-01-01 17:47:33.803,30.87,22.86,1.39,0.39,0.52,0.78,-2.12,0.01,-0.65,52.04,36.01,-4.52,0.59,0.79,0.18,-1.38,2.53,-0.73
1900-01-01 17:47:33.896,29.41,23.28,1.45,0.4,0.5,0.79,-0.98,-0.08,-0.23,51.39,36.42,-4.64,0.6,0.79,0.19,-1.01,2.66,-0.47
1900-01-01 17:47:33.941,29.51,23.26,1.58,0.4,0.5,0.78,-0.86,-0.24,0.03,51.47,36.4,-4.72,0.59,0.77,0.19,-0.28,2.37,-0.05
1900-01-01 17:47:34.033,29.53,23.19,1.74,0.4,0.5,0.79,-0.27,-0.38,-0.79,51.66,36.15,-4.73,0.59,0.79,0.19,-1.04,2.04,-0.32
1900-01-01 17:47:34.128,29.99,23.66,1.78,0.41,0.51,0.78,-0.37,-0.23,-0.49,52.18,35.85,-4.79,0.59,0.79,0.18,-0.61,1.71,-0.27
1900-01-01 17:47:34.174,29.67,23.56,1.86,0.4,0.5,0.78,-0.69,-0.58,-0.43,52.0,35.94,-4.84,0.58,0.78,0.18,-0.78,1.35,0.01
1900-01-01 17:47:34.270,29.45,23.45,1.95,0.4,0.49,0.78,-0.07,-0.95,-0.83,51.8,36.12,-4.85,0.58,0.78,0.19,-0.34,2.16,-0.81
1900-01-01 17:47:34.363,30.39,23.58,1.98,0.41,0.52,0.78,-1.04,0.25,0.04,52.74,35.4,-4.98,0.59,0.81,0.18,-0.53,1.53,-0.5
1900-01-01 17:47:34.409,29.8,23.31,2.15,0.4,0.5,0.78,-1.21,0.78,-0.85,52.44,35.58,-5.06,0.58,0.79,0.18,0.11,1.67,-0.24
1900-01-01 17:47:34.505,30.01,23.3,2.18,0.4,0.51,0.78,-0.61,0.56,-0.73,53.28,34.9,-5.11,0.57,0.81,0.17,1.5,1.82,-0.3
1900-01-01 17:47:34.551,29.73,23.53,2.22,0.4,0.5,0.78,-2.37,0.92,-0.14,52.32,36.09,-5.16,0.58,0.78,0.16,1.37,1.34,1.0
1900-01-01 17:47:34.643,28.75,22.99,2.36,0.4,0.49,0.79,-1.02,0.29,-0.41,52.86,35.49,-5.02,0.58,0.79,0.16,0.21,1.59,0.4
1900-01-01 17:47:34.737,28.72,23.97,2.46,0.41,0.49,0.79,-0.66,0.25,-0.02,52.63,35.9,-4.97,0.59,0.8,0.16,-0.65,1.48,1.65
1900-01-01 17:47:34.784,29.58,23.25,2.61,0.4,0.5,0.79,-1.49,0.19,-0.85,52.92,35.65,-4.72,0.58,0.8,0.15,-1.45,0.29,0.46
1900-01-01 17:47:34.878,28.79,22.81,2.64,0.39,0.48,0.79,-0.96,-0.81,-0.94,52.68,35.82,-4.66,0.58,0.79,0.16,-0.92,1.44,-0.14
1900-01-01 17:47:34.970,28.88,23.44,2.66,0.41,0.49,0.79,-0.4,0.25,-0.73,52.83,35.76,-4.69,0.59,0.8,0.15,-0.61,1.13,0.15
1900-01-01 17:47:35.016,29.15,22.97,2.71,0.39,0.49,0.79,-0.09,-0.15,-0.63,52.83,35.76,-4.68,0.58,0.79,0.15,-1.15,1.55,0.15
1900-01-01 17:47:35.125,28.85,23.39,2.77,0.4,0.49,0.79,-0.18,-0.4,-0.51,52.41,36.16,-4.66,0.59,0.79,0.15,-1.04,1.57,0.07
1900-01-01 17:47:35.157,29.13,23.26,2.85,0.4,0.49,0.79,-0.35,-0.38,-0.89,52.77,35.8,-4.66,0.59,0.8,0.15,-1.66,0.97,0.37
1900-01-01 17:47:35.252,29.78,23.25,2.87,0.4,0.5,0.79,1.39,-1.09,-1.18,53.0,35.63,-4.61,0.58,0.8,0.15,-2.39,-0.27,0.92
1900-01-01 17:47:35.345,28.2,23.44,2.85,0.4,0.47,0.79,-0.44,-0.89,-0.9,51.89,36.54,-4.48,0.59,0.78,0.16,-3.0,0.34,0.35
1900-01-01 17:47:35.393,29.73,23.42,2.87,0.4,0.5,0.78,-0.73,-0.31,-0.6,52.55,35.98,-4.44,0.59,0.79,0.16,-2.64,0.39,-0.64
1900-01-01 17:47:35.486,29.31,23.42,2.94,0.4,0.49,0.78,-1.14,0.02,-0.4,52.41,36.05,-4.54,0.59,0.79,0.16,-1.28,0.92,-0.54
1900-01-01 17:47:35.578,28.83,23.4,3.04,0.4,0.49,0.79,-1.05,-0.46,-0.44,51.74,36.59,-4.63,0.59,0.78,0.17,-3.05,1.05,-0.49
1900-01-01 17:47:35.626,30.44,23.28,3.13,0.4,0.52,0.78,0.18,-0.55,-0.94,53.0,35.47,-4.72,0.58,0.8,0.16,-2.61,0.73,-1.32
1900-01-01 17:47:35.719,28.8,23.45,3.14,0.4,0.48,0.79,-0.63,-0.63,-0.68,52.52,35.81,-4.93,0.58,0.79,0.17,-1.44,1.37,-0.55
1900-01-01 17:47:35.766,28.77,23.98,3.2,0.41,0.49,0.79,-0.01,-0.57,-0.32,52.51,35.89,-5.02,0.59,0.8,0.16,-0.79,1.23,-0.21
1900-01-01 17:47:35.861,29.75,23.81,3.31,0.41,0.5,0.78,1.53,0.53,-0.95,52.64,35.98,-5.06,0.59,0.79,0.15,-0.53,1.24,0.6
1900-01-01 17:47:35.955,29.22,23.51,3.32,0.4,0.49,0.78,5.44,1.21,-1.54,52.26,35.96,-4.98,0.58,0.79,0.17,-2.17,2.01,0.33
1900-01-01 17:47:36.001,31.03,22.94,3.25,0.39,0.52,0.77,1.55,-0.55,-0.93,52.46,35.82,-4.94,0.58,0.78,0.17,-1.72,0.84,0.05
1900-01-01 17:47:36.081,30.82,23.74,3.26,0.41,0.52,0.77,1.95,-1.29,-0.89,52.33,35.95,-4.94,0.59,0.79,0.17,-1.69,0.89,-1.24
1900-01-01 17:47:36.175,32.16,22.87,3.29,0.39,0.54,0.76,0.56,-1.11,-1.1,53.41,34.98,-5.13,0.57,0.8,0.16,-1.59,1.14,-1.15
1900-01-01 17:47:36.266,30.75,23.73,3.28,0.41,0.52,0.77,-0.78,-0.6,-0.88,52.84,35.48,-5.32,0.58,0.8,0.17,-1.1,1.79,-0.38
1900-01-01 17:47:36.313,31.08,23.28,3.3,0.4,0.52,0.77,-0.5,-0.1,-0.6,52.85,35.39,-5.38,0.57,0.79,0.17,-0.53,1.55,-0.32
1900-01-01 17:47:36.405,31.27,23.38,3.37,0.4,0.53,0.77,-0.65,-1.07,-0.89,53.02,35.29,-5.44,0.58,0.8,0.17,-1.53,0.65,-1.54
1900-01-01 17:47:36.454,31.09,23.45,3.39,0.4,0.52,0.76,0.05,-0.85,-1.6,53.33,34.94,-5.69,0.57,0.8,0.17,-2.16,0.37,-0.17
1900-01-01 17:47:36.547,31.58,23.49,3.3,0.41,0.53,0.76,-0.33,-0.76,-1.71,53.76,34.71,-5.72,0.57,0.81,0.16,-1.3,0.72,-0.21
1900-01-01 17:47:36.640,29.92,23.31,3.2,0.4,0.5,0.77,-1.68,0.34,-0.94,52.8,35.32,-5.76,0.57,0.79,0.18,-1.3,1.53,0.53
1900-01-01 17:47:36.687,31.71,23.2,3.22,0.4,0.53,0.77,-0.04,0.06,-1.14,53.1,34.99,-5.69,0.57,0.8,0.18,-0.98,1.09,0.48
1900-01-01 17:47:36.783,31.54,23.01,3.2,0.4,0.53,0.77,0.63,-0.25,-1.74,53.94,34.44,-5.62,0.57,0.82,0.16,-1.84,1.27,0.36
1900-01-01 17:47:36.873,31.4,23.75,3.1,0.41,0.52,0.76,-0.66,-0.39,-0.91,52.82,35.7,-5.58,0.58,0.79,0.16,-0.95,0.67,0.52
1900-01-01 17:47:36.921,32.14,23.44,3.12,0.4,0.54,0.76,0.02,-0.49,-0.95,53.35,35.26,-5.51,0.58,0.8,0.15,-0.98,1.18,0.15
1900-01-01 17:47:37.015,32.26,22.95,3.13,0.4,0.55,0.77,0.44,-0.59,-0.76,53.76,34.67,-5.49,0.57,0.81,0.16,-1.19,0.84,0.22
1900-01-01 17:47:37.062,31.61,23.35,3.17,0.4,0.53,0.76,-0.37,-0.34,-1.17,53.3,35.11,-5.47,0.57,0.79,0.16,-1.84,1.34,0.33
1900-01-01 17:47:37.156,31.86,23.28,3.15,0.4,0.54,0.77,1.38,0.0,-1.23,52.56,35.78,-5.43,0.59,0.8,0.17,-1.5,0.99,0.34
1900-01-01 17:47:37.252,32.14,23.0,3.13,0.4,0.54,0.76,1.97,-0.1,-1.18,53.13,35.24,-5.38,0.58,0.8,0.16,-0.4,-0.89,1.01
1900-01-01 17:47:37.296,33.21,22.94,3.1,0.4,0.56,0.75,0.73,0.01,-0.93,52.79,35.84,-5.24,0.58,0.79,0.15,-2.18,-0.21,0.12
1900-01-01 17:47:37.390,33.62,23.18,3.12,0.39,0.55,0.73,-4.37,0.72,-1.49,53.59,35.22,-5.23,0.56,0.79,0.14,-2.61,0.65,0.94
1900-01-01 17:47:37.482,30.39,23.01,3.05,0.39,0.51,0.77,-5.15,-0.05,-0.79,52.24,35.88,-5.09,0.59,0.8,0.18,-2.3,2.66,0.62
1900-01-01 17:47:37.532,30.84,23.0,3.09,0.4,0.52,0.77,-1.96,0.29,-0.69,52.64,35.92,-5.01,0.59,0.8,0.15,0.1,3.01,1.31
1900-01-01 17:47:37.642,31.1,23.25,3.14,0.4,0.53,0.77,-1.72,-0.43,-1.04,52.69,35.82,-4.82,0.59,0.8,0.16,1.22,1.05,1.49
1900-01-01 17:47:37.718,29.86,23.02,3.14,0.39,0.5,0.78,-0.89,-0.9,-0.47,52.8,35.26,-4.6,0.58,0.8,0.18,4.33,-1.22,1.83
1900-01-01 17:47:37.763,30.82,23.37,3.23,0.4,0.51,0.76,0.25,-0.74,-1.18,52.19,36.66,-4.33,0.6,0.79,0.14,0.16,0.82,0.13
1900-01-01 17:47:37.856,31.52,23.16,3.21,0.4,0.53,0.77,0.76,-0.97,-1.24,53.08,35.99,-4.32,0.59,0.8,0.12,0.15,0.27,-0.26
1900-01-01 17:47:37.904,31.52,22.78,3.18,0.39,0.53,0.77,0.31,-1.21,-0.96,52.28,36.69,-4.36,0.6,0.79,0.13,-2.31,0.4,0.21
1900-01-01 17:47:37.997,30.61,23.53,3.19,0.4,0.51,0.77,-0.56,-0.52,-1.21,51.81,36.93,-4.34,0.6,0.78,0.14,-1.16,0.81,0.16
1900-01-01 17:47:38.089,31.59,22.39,3.17,0.39,0.53,0.77,-1.47,-0.43,-1.5,52.58,36.27,-4.33,0.59,0.79,0.14,-0.05,0.39,-1.02
1900-01-01 17:47:38.137,30.82,22.79,3.1,0.4,0.52,0.78,1.87,-1.41,-0.98,53.83,35.5,-4.49,0.59,0.82,0.11,4.04,-3.0,-2.8
1900-01-01 17:47:38.230,31.9,23.78,3.11,0.41,0.54,0.76,0.12,-0.35,-0.6,52.41,36.97,-4.93,0.59,0.78,0.1,2.14,-2.12,-0.77
1900-01-01 17:47:38.277,30.96,22.7,3.18,0.39,0.52,0.77,2.47,-1.11,-0.92,52.59,36.65,-5.05,0.6,0.8,0.11,5.32,0.98,-3.61
1900-01-01 17:47:38.370,32.35,23.17,3.19,0.4,0.54,0.76,2.24,-0.76,-1.01,55.37,34.27,-5.61,0.58,0.85,0.08,4.43,0.36,-2.86
1900-01-01 17:47:38.463,33.73,24.55,3.2,0.42,0.56,0.73,5.2,-1.72,1.56,55.34,34.42,-6.05,0.56,0.82,0.06,-1.4,1.68,-0.47
1900-01-01 17:47:38.511,34.67,23.94,3.59,0.4,0.56,0.71,0.73,-0.39,-0.2,54.9,34.73,-6.13,0.55,0.79,0.07,-3.32,0.1,-0.44
1900-01-01 17:47:38.603,31.73,24.59,3.72,0.42,0.53,0.74,-7.81,1.13,-0.86,53.7,35.77,-6.21,0.57,0.79,0.09,-0.76,-0.31,0.11
1900-01-01 17:47:38.698,31.77,23.4,3.75,0.4,0.53,0.76,-2.53,0.54,-0.57,54.21,35.13,-6.2,0.58,0.82,0.1,-2.69,3.12,0.21
1900-01-01 17:47:38.743,32.21,23.65,3.82,0.41,0.54,0.75,-0.31,0.54,-0.92,53.82,35.59,-6.18,0.58,0.8,0.1,0.11,2.74,-0.01
1900-01-01 17:47:38.837,32.59,23.21,3.84,0.4,0.55,0.75,1.42,0.53,-1.5,54.64,34.82,-6.19,0.57,0.82,0.09,1.69,2.36,-0.45
1900-01-01 17:47:38.931,32.65,23.26,3.77,0.4,0.55,0.76,0.34,0.33,-1.02,54.69,34.72,-6.26,0.57,0.82,0.1,0.89,1.8,-0.59
1900-01-01 17:47:38.976,32.48,23.35,3.77,0.4,0.54,0.75,-0.58,0.19,-0.88,54.41,35.1,-6.36,0.57,0.81,0.09,0.66,0.78,-0.91
1900-01-01 17:47:39.068,32.5,23.14,3.8,0.4,0.54,0.75,-0.76,-0.01,-0.96,54.96,34.67,-6.51,0.57,0.82,0.08,-0.93,1.72,-0.05
1900-01-01 17:47:39.116,32.68,23.14,3.81,0.4,0.55,0.75,-0.05,0.17,-0.79,55.22,34.45,-6.53,0.57,0.83,0.07,-0.22,1.54,-0.26
1900-01-01 17:47:39.209,32.57,22.96,3.85,0.4,0.55,0.76,0.82,-0.14,-0.77,55.2,34.42,-6.57,0.57,0.83,0.08,0.5,0.75,-1.24
1900-01-01 17:47:39.305,33.14,23.36,3.89,0.4,0.55,0.74,0.1,-0.92,0.22,55.04,34.61,-6.77,0.57,0.83,0.08,-7.26,0.69,2.23
1900-01-01 17:47:39.352,32.75,23.94,4.08,0.4,0.54,0.73,2.84,-1.42,-0.32,54.24,35.24,-6.44,0.57,0.8,0.09,-5.11,0.94,1.03
1900-01-01 17:47:39.445,33.72,23.24,4.19,0.4,0.56,0.74,2.4,-1.54,-1.3,54.08,35.28,-6.29,0.57,0.8,0.1,-6.0,0.95,0.78
1900-01-01 17:47:39.539,33.27,22.66,4.15,0.4,0.57,0.76,-1.12,-1.09,-1.18,53.63,35.41,-6.18,0.59,0.82,0.13,-7.31,0.92,0.66
1900-01-01 17:47:39.585,32.93,23.87,4.13,0.4,0.53,0.72,-6.95,1.5,-1.02,53.97,35.06,-6.09,0.56,0.79,0.12,-2.06,0.27,0.69
1900-01-01 17:47:39.678,30.65,22.84,4.13,0.4,0.52,0.78,-6.41,-0.09,-1.19,53.67,35.58,-5.99,0.6,0.83,0.11,-0.78,1.12,1.02
1900-01-01 17:47:39.751,31.73,23.39,4.11,0.4,0.53,0.76,-0.11,-0.27,-1.03,53.67,35.55,-5.85,0.57,0.8,0.11,0.73,1.99,0.67
1900-01-01 17:47:39.820,31.73,23.1,4.11,0.4,0.53,0.76,-1.18,-0.05,-1.3,53.4,35.79,-5.75,0.58,0.8,0.11,1.56,2.12,0.35
1900-01-01 17:47:39.914,32.43,22.84,4.07,0.39,0.54,0.76,0.47,0.03,-1.73,54.37,35.03,-5.71,0.58,0.82,0.1,2.0,2.81,0.07
1900-01-01 17:47:39.960,32.38,23.13,3.97,0.4,0.54,0.76,1.41,0.37,-1.95,54.35,35.31,-5.71,0.58,0.81,0.07,6.14,2.59,-0.17
1900-01-01 17:47:40.055,32.9,22.98,3.83,0.4,0.55,0.75,-0.98,0.28,-0.88,55.14,34.57,-5.74,0.58,0.84,0.07,1.19,2.43,1.5
1900-01-01 17:47:40.153,31.52,22.96,3.86,0.39,0.52,0.76,-1.52,-0.24,-0.53,53.26,36.28,-5.52,0.58,0.79,0.09,0.59,0.92,0.56
1900-01-01 17:47:40.195,32.77,22.78,3.94,0.39,0.55,0.76,-0.58,-0.38,-0.77,54.25,35.45,-5.44,0.58,0.81,0.07,-0.92,1.06,-0.09
1900-01-01 17:47:40.289,32.16,23.01,3.98,0.39,0.54,0.76,-1.05,-0.41,-0.95,53.97,35.75,-5.47,0.58,0.81,0.07,-0.55,0.88,-0.17
1900-01-01 17:47:40.334,31.96,22.81,3.99,0.39,0.53,0.76,-0.53,-0.21,-0.91,54.01,35.68,-5.5,0.58,0.81,0.07,-0.64,1.43,-0.06
1900-01-01 17:47:40.430,31.9,22.79,4.01,0.39,0.53,0.76,-0.81,0.14,-1.29,53.85,35.82,-5.52,0.59,0.81,0.07,-0.28,1.36,0.56
1900-01-01 17:47:40.523,31.87,22.77,3.97,0.39,0.53,0.76,-1.48,0.05,-0.79,53.91,35.81,-5.44,0.59,0.81,0.07,-0.93,1.66,0.39
1900-01-01 17:47:40.570,31.49,22.72,4.01,0.39,0.53,0.77,-1.08,-0.44,-0.77,53.76,35.9,-5.39,0.59,0.81,0.07,-1.4,1.69,0.63
1900-01-01 17:47:40.666,32.42,22.51,4.05,0.39,0.54,0.76,0.16,-0.42,-0.69,54.2,35.58,-5.3,0.59,0.82,0.06,-0.36,1.08,0.39
1900-01-01 17:47:40.712,31.93,22.62,4.11,0.39,0.54,0.77,-0.15,0.08,-0.56,53.88,35.89,-5.25,0.59,0.81,0.06,-0.69,1.15,0.85
1900-01-01 17:47:40.805,31.79,22.6,4.18,0.39,0.53,0.76,-0.22,0.04,-0.85,53.58,36.13,-5.13,0.59,0.8,0.07,-0.42,1.37,0.6
1900-01-01 17:47:40.899,32.09,22.88,4.21,0.39,0.54,0.76,-0.9,-0.17,-0.66,53.51,36.25,-5.05,0.59,0.81,0.06,-1.46,1.51,-0.35
1900-01-01 17:47:40.946,31.96,22.59,4.26,0.39,0.53,0.76,-0.44,-0.34,-0.98,53.35,36.4,-5.11,0.59,0.8,0.06,-0.59,1.8,0.66
1900-01-01 17:47:41.039,31.63,22.98,4.27,0.39,0.53,0.76,-0.61,-0.43,-0.82,53.49,36.27,-5.02,0.59,0.8,0.06,-0.35,1.31,0.5
1900-01-01 17:47:41.132,32.03,22.83,4.31,0.39,0.54,0.76,-0.54,-0.27,-0.78,53.82,36.0,-4.95,0.59,0.81,0.05,-0.24,1.62,-0.66
1900-01-01 17:47:41.181,32.13,22.71,4.35,0.39,0.54,0.76,-0.47,-0.28,-0.56,53.5,36.31,-5.06,0.6,0.81,0.06,-0.16,2.45,-0.31
1900-01-01 17:47:41.274,32.12,22.75,4.42,0.39,0.54,0.76,-1.02,0.29,-0.54,54.22,35.55,-5.11,0.58,0.82,0.06,0.6,2.23,0.47
1900-01-01 17:47:41.320,31.8,22.85,4.5,0.39,0.53,0.76,-2.12,-0.16,-0.36,53.2,36.63,-5.05,0.59,0.8,0.05,-0.02,2.4,0.14
1900-01-01 17:47:41.415,31.91,22.85,4.6,0.39,0.53,0.76,-1.07,-0.65,-0.63,53.89,35.92,-5.04,0.58,0.8,0.05,-0.49,1.81,0.57
1900-01-01 17:47:41.507,31.3,22.67,4.66,0.39,0.53,0.78,-2.17,-0.47,-0.19,53.33,36.42,-4.96,0.6,0.8,0.06,-1.27,1.95,0.01
1900-01-01 17:47:41.556,30.76,23.19,4.79,0.4,0.52,0.77,-1.79,-0.16,-0.27,52.86,36.96,-4.97,0.6,0.8,0.05,-1.32,2.15,0.02
1900-01-01 17:47:41.649,30.42,22.83,4.91,0.39,0.51,0.78,-2.36,-0.11,-0.24,53.24,36.48,-4.97,0.6,0.8,0.07,-2.05,2.09,0.55
1900-01-01 17:47:41.743,30.33,23.22,5.03,0.4,0.51,0.78,-1.06,-0.44,-0.68,53.38,36.4,-4.9,0.6,0.81,0.06,-2.9,2.29,0.24
1900-01-01 17:47:41.792,30.5,22.72,5.08,0.39,0.51,0.78,-1.24,-0.34,-0.61,53.51,36.21,-4.87,0.59,0.81,0.07,-2.11,1.24,-0.07
1900-01-01 17:47:41.885,30.59,22.91,5.15,0.4,0.52,0.78,-2.48,-0.5,-0.25,53.27,36.36,-4.89,0.6,0.81,0.08,-1.97,1.33,-0.52
1900-01-01 17:47:41.934,29.86,23.23,5.27,0.4,0.51,0.78,-2.69,-0.56,0.02,53.37,36.39,-4.98,0.6,0.81,0.06,-2.89,1.63,-0.37
1900-01-01 17:47:42.026,29.8,23.17,5.43,0.4,0.5,0.78,-1.65,0.44,-0.85,53.27,36.33,-5.04,0.59,0.8,0.08,-3.44,0.69,0.37
1900-01-01 17:47:42.119,29.8,22.74,5.46,0.39,0.5,0.78,-0.29,-0.77,-2.12,53.87,35.73,-4.99,0.58,0.8,0.08,-2.04,1.05,-0.71
1900-01-01 17:47:42.167,29.8,23.58,5.3,0.41,0.5,0.78,-0.17,-0.58,-0.5,54.33,35.37,-5.11,0.57,0.81,0.07,-2.25,2.07,-0.75
1900-01-01 17:47:42.258,30.65,22.95,5.38,0.41,0.53,0.8,-0.98,1.9,-0.38,53.63,35.97,-5.23,0.6,0.82,0.08,-4.48,0.31,-0.69
1900-01-01 17:47:42.354,29.99,22.76,5.48,0.39,0.5,0.78,-3.0,-1.31,-0.92,53.48,35.99,-5.35,0.58,0.79,0.09,-3.76,-1.82,-3.44
1900-01-01 17:47:42.401,29.5,22.42,5.5,0.38,0.49,0.78,-0.27,-1.66,-1.89,54.42,35.13,-5.88,0.57,0.81,0.08,-1.52,-0.85,-3.2
1900-01-01 17:47:42.493,29.83,23.18,5.36,0.4,0.5,0.78,2.21,0.98,-2.08,54.88,34.72,-6.38,0.57,0.82,0.08,-1.95,0.24,-2.75
1900-01-01 17:47:42.546,30.92,22.57,5.21,0.39,0.52,0.78,-0.11,-0.64,-0.97,55.28,34.32,-6.81,0.56,0.82,0.08,-1.45,-0.98,-3.44
1900-01-01 17:47:42.633,29.4,22.68,5.22,0.39,0.49,0.78,0.99,-1.66,-1.32,55.56,34.09,-7.34,0.56,0.83,0.07,0.42,-1.01,-4.76
1900-01-01 17:47:42.726,31.15,22.99,5.17,0.4,0.53,0.78,-0.89,-0.44,-1.12,56.24,33.42,-8.08,0.56,0.84,0.07,-0.84,1.38,-1.17
1900-01-01 17:47:42.773,30.26,23.21,5.16,0.4,0.51,0.78,1.23,-0.1,-1.18,55.86,33.74,-8.26,0.56,0.83,0.08,0.47,1.95,-1.69
1900-01-01 17:47:42.867,30.81,22.95,5.14,0.39,0.51,0.76,1.16,0.02,-1.65,55.99,33.62,-8.53,0.55,0.82,0.08,1.47,2.57,-0.56
1900-01-01 17:47:42.959,32.52,22.63,5.05,0.39,0.55,0.77,0.5,-0.15,-0.88,57.56,32.25,-8.62,0.53,0.85,0.05,-0.26,3.19,0.11
1900-01-01 17:47:43.005,30.58,22.93,5.07,0.39,0.51,0.77,-3.42,0.28,-0.73,55.73,33.95,-8.62,0.55,0.82,0.07,-0.37,3.04,1.44
1900-01-01 17:47:43.100,31.16,23.08,5.12,0.4,0.53,0.78,-1.18,0.02,-0.49,56.4,33.39,-8.41,0.56,0.84,0.06,-0.4,2.05,0.58
1900-01-01 17:47:43.191,30.12,22.96,5.2,0.39,0.51,0.78,0.06,0.05,-0.95,55.67,33.97,-8.33,0.56,0.82,0.07,-0.74,1.5,0.82
1900-01-01 17:47:43.238,32.07,22.35,5.22,0.39,0.54,0.78,-0.36,0.91,0.54,56.9,32.88,-8.21,0.54,0.84,0.06,-3.15,3.17,0.8
1900-01-01 17:47:43.332,30.45,22.43,5.46,0.39,0.51,0.78,-2.32,1.65,-0.79,56.11,33.36,-8.1,0.55,0.83,0.09,-2.76,2.13,0.79
1900-01-01 17:47:43.377,30.2,22.59,5.5,0.38,0.5,0.77,-0.26,-0.46,-0.89,56.33,33.25,-7.98,0.55,0.83,0.08,-3.77,3.5,1.15
1900-01-01 17:47:43.472,30.52,23.25,5.52,0.4,0.52,0.78,-0.98,-1.79,0.17,54.56,35.06,-7.82,0.57,0.81,0.08,-4.28,1.15,1.01
1900-01-01 17:47:43.565,29.33,23.02,5.7,0.39,0.49,0.79,-1.15,-0.44,0.2,54.67,34.52,-7.67,0.56,0.81,0.11,-2.5,-1.05,1.57
1900-01-01 17:47:43.612,31.66,22.41,5.89,0.39,0.54,0.78,0.95,-0.76,-0.15,55.02,34.39,-7.44,0.56,0.81,0.1,-4.39,-0.75,-1.21
1900-01-01 17:47:43.705,30.19,23.04,6.03,0.4,0.51,0.78,-0.99,-0.56,-1.22,55.26,34.22,-7.63,0.56,0.82,0.09,-2.32,0.63,-1.97
1900-01-01 17:47:43.797,29.95,23.0,6.0,0.39,0.5,0.78,-0.33,-0.02,-1.01,55.41,33.91,-7.94,0.56,0.82,0.1,-0.65,1.98,-0.24
1900-01-01 17:47:43.844,30.67,22.75,6.0,0.39,0.52,0.78,-2.1,0.02,0.53,56.78,32.57,-7.99,0.55,0.85,0.1,-2.62,1.83,1.72
1900-01-01 17:47:43.939,29.43,23.69,6.24,0.4,0.49,0.78,-2.44,-1.27,0.01,53.99,35.2,-7.74,0.58,0.81,0.12,-2.88,0.39,1.24
1900-01-01 17:47:43.987,30.06,23.3,6.4,0.4,0.51,0.78,0.89,-0.79,-0.67,54.62,34.74,-7.56,0.57,0.81,0.1,-0.14,-0.23,0.73
1900-01-01 17:47:44.086,30.06,23.68,6.46,0.41,0.51,0.77,0.31,-0.16,-1.05,54.32,35.04,-7.46,0.57,0.81,0.1,1.05,0.34,-0.56
1900-01-01 17:47:44.174,30.51,23.04,6.46,0.4,0.51,0.78,1.33,-0.6,-1.44,55.39,34.09,-7.55,0.56,0.83,0.09,0.53,0.27,0.44
1900-01-01 17:47:44.219,30.69,23.36,6.4,0.4,0.52,0.77,-0.26,-0.82,-1.02,54.76,34.75,-7.49,0.57,0.81,0.09,-0.63,0.37,0.01
1900-01-01 17:47:44.312,31.15,23.66,6.4,0.41,0.52,0.76,0.98,-0.76,-1.53,54.59,35.08,-7.5,0.57,0.81,0.07,0.25,0.33,-0.04
1900-01-01 17:47:44.405,31.15,23.17,6.33,0.4,0.52,0.77,0.76,-0.72,-1.07,54.56,35.15,-7.51,0.57,0.81,0.07,-0.48,0.04,0.53
1900-01-01 17:47:44.453,31.36,23.03,6.32,0.4,0.53,0.77,-0.05,0.07,-1.11,54.63,35.04,-7.44,0.57,0.81,0.07,-1.66,1.02,0.24
1900-01-01 17:47:44.546,31.18,23.13,6.31,0.4,0.52,0.77,-0.95,-0.03,-1.23,54.61,34.99,-7.41,0.57,0.81,0.08,-1.53,1.46,-0.12
1900-01-01 17:47:44.641,30.86,23.19,6.28,0.4,0.52,0.77,-1.33,-0.58,-1.11,54.85,34.8,-7.44,0.57,0.82,0.07,-1.99,1.42,0.21
1900-01-01 17:47:44.688,29.69,22.45,6.27,0.39,0.5,0.79,-1.31,-0.2,-0.76,54.47,35.02,-7.41,0.58,0.83,0.09,0.4,1.09,0.16
1900-01-01 17:47:44.782,30.65,23.1,6.31,0.4,0.52,0.77,0.25,-0.1,-1.15,54.54,35.03,-7.4,0.58,0.82,0.08,2.65,-1.25,-1.1
1900-01-01 17:47:44.829,31.75,23.01,6.3,0.4,0.53,0.77,1.3,-0.2,-0.87,55.33,34.46,-7.58,0.57,0.83,0.06,3.37,-1.7,-2.17
1900-01-01 17:47:44.924,31.08,23.24,6.32,0.4,0.52,0.77,1.6,-0.69,-0.6,55.47,34.4,-7.91,0.57,0.84,0.04,0.14,-1.82,1.2
1900-01-01 17:47:45.017,32.0,23.44,6.39,0.4,0.53,0.75,-0.8,-0.29,0.18,55.15,34.72,-7.74,0.57,0.82,0.04,-0.66,0.84,-0.05
1900-01-01 17:47:45.063,32.83,23.32,6.58,0.4,0.55,0.76,2.52,0.35,0.14,55.43,34.48,-7.76,0.57,0.83,0.03,0.36,1.06,-1.14
1900-01-01 17:47:45.156,32.79,23.26,6.75,0.4,0.55,0.75,5.19,-1.01,-0.8,55.33,34.62,-7.94,0.56,0.8,0.03,-7.11,4.69,-1.82
1900-01-01 17:47:45.204,32.17,23.53,6.79,0.4,0.53,0.74,-6.33,0.26,-0.44,55.46,34.24,-8.22,0.54,0.8,0.07,-2.98,0.51,0.56
1900-01-01 17:47:45.297,28.21,23.14,6.88,0.4,0.48,0.81,-3.05,0.99,-0.73,54.05,35.76,-8.15,0.59,0.81,0.06,1.43,1.62,-0.61
1900-01-01 17:47:45.388,31.37,22.64,6.93,0.39,0.53,0.77,-0.6,-0.02,-1.33,55.8,34.03,-8.25,0.57,0.84,0.05,1.79,4.97,0.76
1900-01-01 17:47:45.436,30.91,23.21,6.89,0.4,0.52,0.77,-0.98,-0.23,-1.4,55.42,34.41,-8.14,0.57,0.84,0.05,2.08,2.66,-0.36
1900-01-01 17:47:45.530,31.31,22.67,6.83,0.39,0.53,0.77,-0.59,0.21,-0.9,55.73,34.1,-8.2,0.56,0.83,0.05,1.95,1.97,-0.92
1900-01-01 17:47:45.623,32.32,22.81,6.85,0.39,0.54,0.76,-0.98,0.16,-0.73,56.05,33.83,-8.35,0.56,0.83,0.04,0.82,2.4,-0.88
1900-01-01 17:47:45.671,31.44,23.22,6.9,0.4,0.53,0.76,-0.14,-0.28,-0.79,56.15,33.81,-8.49,0.56,0.83,0.02,0.02,1.92,-0.69
1900-01-01 17:47:45.766,31.11,23.16,6.94,0.4,0.52,0.77,-1.39,-0.37,-0.66,55.76,34.12,-8.61,0.56,0.83,0.04,-0.93,1.57,-0.37
1900-01-01 17:47:45.858,31.19,23.04,6.99,0.4,0.52,0.77,-0.89,-0.76,-0.82,56.04,33.88,-8.67,0.56,0.83,0.03,-0.73,1.66,-0.76
1900-01-01 17:47:45.905,31.21,23.05,7.03,0.4,0.53,0.77,-1.31,-0.24,-0.83,55.94,33.98,-8.8,0.56,0.83,0.03,-1.14,1.36,-0.76
1900-01-01 17:47:45.997,30.92,22.77,7.06,0.39,0.52,0.78,-1.29,-0.53,-0.93,56.25,33.63,-8.92,0.56,0.84,0.04,-1.73,1.81,-0.49
1900-01-01 17:47:46.043,30.56,22.99,7.07,0.39,0.51,0.78,-0.73,-0.25,-0.86,56.17,33.7,-9.01,0.56,0.83,0.04,-1.52,1.98,-0.05
1900-01-01 17:47:46.138,30.66,23.38,7.1,0.4,0.52,0.77,-0.63,-0.37,-0.66,55.83,34.07,-9.02,0.56,0.83,0.04,-1.29,1.73,-0.18
1900-01-01 17:47:46.232,30.84,23.36,7.16,0.4,0.52,0.77,-0.96,-0.35,-0.79,56.11,33.79,-9.06,0.56,0.83,0.04,-0.9,1.21,-0.43
1900-01-01 17:47:46.278,30.75,23.21,7.19,0.4,0.52,0.77,-0.19,-0.46,-0.68,56.21,33.67,-9.13,0.55,0.83,0.04,-0.84,1.51,-0.3
1900-01-01 17:47:46.371,30.74,23.25,7.25,0.4,0.52,0.77,-0.51,-0.35,-0.6,56.25,33.66,-9.19,0.56,0.83,0.04,-0.69,1.49,-0.18
1900-01-01 17:47:46.467,30.92,23.17,7.32,0.4,0.52,0.77,-0.27,-0.37,-0.66,56.43,33.47,-9.22,0.55,0.83,0.04,-1.16,1.56,0.15
1900-01-01 17:47:46.514,30.75,23.23,7.37,0.4,0.52,0.77,-0.31,-0.4,-0.69,56.34,33.57,-9.21,0.55,0.84,0.04,-0.81,1.34,-0.17
1900-01-01 17:47:46.606,30.77,23.27,7.42,0.4,0.52,0.77,-0.3,-0.5,-0.62,56.37,33.54,-9.24,0.55,0.84,0.03,-0.94,1.43,0.1
1900-01-01 17:47:46.653,30.77,23.4,7.49,0.4,0.52,0.77,-0.37,-0.41,-0.79,56.34,33.56,-9.24,0.55,0.83,0.04,-1.47,1.47,0.29
1900-01-01 17:47:46.746,30.85,23.28,7.53,0.4,0.52,0.77,-0.16,-0.56,-0.79,56.28,33.64,-9.2,0.55,0.83,0.03,-1.21,1.11,0.27
1900-01-01 17:47:46.839,30.89,23.42,7.56,0.4,0.52,0.77,-0.36,-0.4,-0.81,56.21,33.69,-9.17,0.56,0.83,0.04,-1.4,1.38,0.24
1900-01-01 17:47:46.887,30.98,23.32,7.6,0.4,0.52,0.77,-0.37,-0.23,-0.78,56.29,33.61,-9.14,0.56,0.83,0.04,-1.09,1.4,0.1
1900-01-01 17:47:46.981,30.94,23.34,7.64,0.4,0.52,0.77,-0.51,-0.32,-0.67,56.2,33.7,-9.13,0.56,0.83,0.04,-1.43,1.35,0.08
1900-01-01 17:47:47.074,30.63,23.47,7.7,0.4,0.52,0.77,-0.64,-0.14,-0.65,56.13,33.76,-9.13,0.56,0.83,0.04,-0.98,1.27,-0.01
1900-01-01 17:47:47.120,30.85,23.32,7.76,0.4,0.52,0.77,-0.37,-0.44,-0.88,56.18,33.73,-9.14,0.56,0.83,0.04,-1.31,1.44,-0.12
1900-01-01 17:47:47.215,30.8,23.56,7.78,0.4,0.52,0.77,-0.41,-0.31,-0.68,56.15,33.76,-9.17,0.55,0.83,0.04,-1.38,1.35,0.24
1900-01-01 17:47:47.309,31.05,23.43,7.83,0.4,0.52,0.77,-0.56,-0.31,-0.74,56.02,33.88,-9.14,0.56,0.83,0.04,-1.49,1.34,0.45
1900-01-01 17:47:47.356,30.52,23.7,7.88,0.41,0.51,0.77,0.35,-0.05,-0.91,56.03,33.83,-9.08,0.56,0.84,0.05,-2.73,0.64,2.21
1900-01-01 17:47:47.450,30.87,23.7,7.9,0.41,0.52,0.77,3.56,0.73,-2.21,55.73,34.15,-8.75,0.57,0.84,0.04,-3.98,1.47,3.19
1900-01-01 17:47:47.498,32.27,22.81,7.72,0.39,0.54,0.76,0.6,1.23,-1.66,55.09,34.78,-8.28,0.57,0.81,0.04,-4.53,1.84,3.25
1900-01-01 17:47:47.592,32.52,23.28,7.63,0.4,0.54,0.75,-2.11,-0.23,-1.07,53.93,35.84,-7.79,0.58,0.8,0.06,-3.59,0.41,1.24
1900-01-01 17:47:47.686,31.39,23.21,7.63,0.4,0.52,0.76,1.31,-0.3,-1.85,54.12,35.69,-7.61,0.58,0.81,0.05,-1.41,0.42,0.36
1900-01-01 17:47:47.731,32.29,22.57,7.5,0.39,0.54,0.76,-0.65,0.05,-1.16,54.49,35.26,-7.56,0.58,0.81,0.06,-1.15,0.97,-0.03
1900-01-01 17:47:47.824,31.97,22.8,7.48,0.39,0.54,0.76,-0.49,-0.35,-0.87,54.25,35.51,-7.58,0.58,0.82,0.06,-0.69,1.34,-0.34
1900-01-01 17:47:47.871,32.22,23.14,7.51,0.4,0.55,0.77,-0.12,0.16,-1.02,53.78,35.97,-7.64,0.59,0.81,0.06,-1.59,1.29,0.31
1900-01-01 17:47:47.963,32.84,22.34,7.51,0.38,0.55,0.76,0.86,0.34,-1.43,54.85,34.93,-7.6,0.57,0.81,0.06,-0.61,1.34,-0.31
1900-01-01 17:47:48.058,32.04,22.65,7.46,0.39,0.53,0.76,-1.12,-0.18,-1.04,53.68,36.04,-7.65,0.58,0.8,0.07,-0.86,1.2,-0.34
1900-01-01 17:47:48.104,32.44,22.69,7.45,0.39,0.54,0.76,-0.53,-0.11,-0.98,54.37,35.43,-7.72,0.58,0.81,0.06,-1.3,1.44,-0.21
1900-01-01 17:47:48.198,32.5,22.52,7.46,0.39,0.54,0.76,-1.15,-0.04,-0.79,54.34,35.44,-7.76,0.58,0.81,0.06,-1.15,1.6,-0.21
1900-01-01 17:47:48.293,32.22,22.46,7.5,0.39,0.54,0.77,-0.95,-0.03,-0.76,54.42,35.34,-7.8,0.58,0.81,0.06,-1.69,1.41,-0.18
1900-01-01 17:47:48.339,32.14,22.64,7.54,0.39,0.54,0.76,-0.52,0.02,-0.88,54.31,35.48,-7.83,0.58,0.81,0.06,-0.8,1.63,-0.35
1900-01-01 17:47:48.432,31.99,22.71,7.57,0.39,0.54,0.76,-0.6,0.35,-0.81,54.2,35.52,-7.89,0.58,0.81,0.07,-1.73,1.55,0.23
1900-01-01 17:47:48.484,31.89,22.25,7.6,0.38,0.53,0.76,-0.24,0.01,-0.95,54.14,35.56,-7.87,0.58,0.81,0.07,-1.76,1.6,0.28
1900-01-01 17:47:48.573,32.25,22.41,7.62,0.38,0.54,0.76,-1.44,-0.72,-0.62,54.12,35.61,-7.83,0.58,0.81,0.06,-1.64,1.41,-0.11
1900-01-01 17:47:48.668,32.47,22.45,7.68,0.38,0.54,0.76,-0.59,-0.44,-0.63,54.46,35.28,-7.86,0.58,0.81,0.06,-1.19,1.48,-0.37
1900-01-01 17:47:48.716,32.55,22.49,7.74,0.39,0.54,0.76,-0.55,-0.58,-0.75,54.64,35.11,-7.92,0.57,0.82,0.06,-1.43,1.66,-0.27
1900-01-01 17:47:48.808,31.89,22.68,7.79,0.39,0.53,0.76,-0.37,-0.48,-0.7,54.34,35.37,-7.97,0.58,0.81,0.07,-1.27,1.85,0.09
1900-01-01 17:47:48.905,32.03,22.59,7.84,0.39,0.53,0.76,-0.91,-0.5,-0.7,54.62,35.1,-7.97,0.58,0.82,0.07,-0.41,1.51,-0.24
1900-01-01 17:47:48.949,32.06,22.64,7.89,0.39,0.54,0.76,-1.13,-0.44,-0.44,54.59,35.13,-8.01,0.58,0.82,0.07,-0.98,1.48,-0.05
1900-01-01 17:47:49.043,32.16,22.75,7.98,0.39,0.54,0.76,-0.56,-0.6,-0.76,54.64,35.1,-8.03,0.58,0.82,0.06,-1.14,1.37,-0.2
1900-01-01 17:47:49.089,31.81,22.81,8.02,0.39,0.53,0.76,-0.35,-0.54,-0.77,54.41,35.34,-8.07,0.58,0.81,0.06,-1.18,1.38,0.02
1900-01-01 17:47:49.182,31.86,22.69,8.06,0.39,0.53,0.76,-0.46,-0.39,-0.85,54.54,35.18,-8.07,0.57,0.81,0.07,-1.02,1.28,-0.1
1900-01-01 17:47:49.276,32.19,22.79,8.09,0.39,0.54,0.76,-1.41,-0.73,-0.84,54.62,35.14,-8.1,0.58,0.82,0.06,-1.01,1.01,-0.28
1900-01-01 17:47:49.321,32.12,22.85,8.12,0.39,0.54,0.76,-1.3,-0.91,-0.61,54.74,35.04,-8.15,0.57,0.82,0.06,-0.63,0.94,-0.59
1900-01-01 17:47:49.416,31.28,23.27,8.19,0.4,0.52,0.76,-0.79,-0.37,-0.41,54.31,35.47,-8.25,0.58,0.81,0.06,0.4,1.44,0.11
1900-01-01 17:47:49.509,32.28,22.8,8.28,0.4,0.54,0.77,1.75,0.41,0.14,55.17,34.65,-8.24,0.57,0.83,0.05,0.0,2.01,0.27
1900-01-01 17:47:49.557,32.32,22.54,8.46,0.39,0.54,0.76,1.01,2.03,-0.7,54.76,35.04,-8.21,0.57,0.81,0.06,-0.56,2.0,0.09
1900-01-01 17:47:49.648,32.78,22.28,8.52,0.38,0.55,0.76,1.4,0.22,-0.81,55.0,34.81,-8.2,0.57,0.82,0.05,-0.98,1.8,-0.02
1900-01-01 17:47:49.741,32.46,22.9,8.55,0.39,0.54,0.75,-1.47,0.98,-1.15,54.62,35.16,-8.21,0.58,0.81,0.06,-1.36,1.3,0.15
1900-01-01 17:47:49.789,32.53,22.25,8.54,0.38,0.54,0.76,-2.69,-0.24,-1.24,54.74,35.06,-8.2,0.57,0.81,0.05,-1.7,0.43,-0.24
1900-01-01 17:47:49.881,31.49,22.54,8.5,0.39,0.53,0.77,-2.42,-0.53,-1.01,54.6,35.2,-8.24,0.58,0.82,0.06,-1.47,0.83,0.0
1900-01-01 17:47:49.927,31.65,22.36,8.51,0.38,0.53,0.77,-1.12,-0.44,-0.75,54.64,35.15,-8.25,0.57,0.81,0.06,-1.26,1.19,0.16
1900-01-01 17:47:50.021,31.71,22.44,8.55,0.39,0.53,0.77,-0.9,-0.55,-0.91,54.66,35.16,-8.23,0.58,0.82,0.05,-0.24,1.01,-0.79
1900-01-01 17:47:50.118,31.71,22.64,8.57,0.39,0.53,0.77,-1.5,-1.04,-0.09,54.71,35.13,-8.36,0.58,0.82,0.05,-0.46,0.92,-0.19
1900-01-01 17:47:50.165,31.71,22.38,8.72,0.39,0.53,0.77,-1.15,-0.7,-0.58,55.1,34.73,-8.4,0.57,0.82,0.05,-1.27,0.73,0.15
1900-01-01 17:47:50.258,30.7,22.69,8.79,0.39,0.51,0.77,-2.56,-1.52,-0.13,54.78,35.04,-8.39,0.58,0.82,0.05,-0.49,1.03,-0.23
1900-01-01 17:47:50.351,30.18,23.26,8.93,0.4,0.51,0.77,0.81,-1.08,0.59,54.12,35.7,-8.43,0.58,0.81,0.05,-0.5,2.41,0.43
1900-01-01 17:47:50.397,31.59,23.1,9.17,0.4,0.53,0.77,-0.64,0.89,-0.23,54.74,35.11,-8.37,0.58,0.82,0.05,-1.01,1.07,0.42
1900-01-01 17:47:50.490,31.13,22.29,9.3,0.38,0.52,0.77,0.08,-0.4,-1.18,55.2,34.6,-8.32,0.56,0.81,0.06,-0.68,1.77,-0.89
1900-01-01 17:47:50.539,31.23,23.41,9.28,0.41,0.53,0.77,-0.83,-0.57,-0.36,54.79,35.09,-8.46,0.58,0.83,0.04,-1.21,1.59,-0.11
1900-01-01 17:47:50.631,30.88,23.13,9.38,0.4,0.52,0.77,-1.48,0.22,-0.77,54.84,35.0,-8.49,0.57,0.82,0.05,-1.5,1.05,0.12
1900-01-01 17:47:50.725,30.9,22.76,9.42,0.39,0.52,0.78,-0.56,0.12,-0.74,55.12,34.71,-8.48,0.57,0.82,0.05,-1.11,1.6,-0.15
1900-01-01 17:47:50.770,30.7,23.11,9.47,0.4,0.52,0.78,-0.94,-0.04,-0.82,54.86,34.97,-8.51,0.58,0.82,0.05,-1.36,1.19,-0.03
1900-01-01 17:47:50.864,30.56,22.87,9.5,0.39,0.51,0.77,-0.78,-0.03,-0.72,54.76,35.08,-8.52,0.57,0.82,0.05,-1.34,1.4,0.09
1900-01-01 17:47:50.958,31.12,22.84,9.55,0.39,0.52,0.77,-0.31,-0.11,-0.74,54.93,34.92,-8.52,0.57,0.82,0.05,-1.42,1.5,0.09
1900-01-01 17:47:51.005,31.16,22.82,9.59,0.39,0.52,0.77,-0.65,-0.26,-1.04,55.16,34.7,-8.51,0.57,0.82,0.05,-1.32,1.09,-0.08
1900-01-01 17:47:51.097,31.02,22.69,9.59,0.39,0.52,0.78,-0.01,-0.38,-0.74,55.06,34.78,-8.53,0.57,0.82,0.05,-0.86,1.64,-0.16
1900-01-01 17:47:51.191,30.96,22.93,9.64,0.4,0.52,0.77,-0.1,-0.18,-0.85,54.96,34.88,-8.57,0.57,0.82,0.05,-1.18,1.69,-0.08
1900-01-01 17:47:51.238,30.75,22.92,9.67,0.39,0.52,0.77,-0.52,-0.31,-0.76,54.8,35.04,-8.59,0.57,0.82,0.05,-1.39,1.47,0.18
1900-01-01 17:47:51.332,31.03,22.82,9.71,0.39,0.52,0.77,-1.1,-0.5,-0.85,55.02,34.82,-8.57,0.57,0.82,0.05,-1.45,1.1,0.01
1900-01-01 17:47:51.381,31.12,22.73,9.74,0.39,0.52,0.77,-0.79,-0.7,-0.82,55.25,34.6,-8.58,0.57,0.83,0.05,-1.39,1.24,-0.04
1900-01-01 17:47:51.475,30.71,23.06,9.77,0.4,0.52,0.77,-0.54,-0.63,-1.04,54.84,34.98,-8.59,0.57,0.82,0.05,-1.1,1.17,-0.06
1900-01-01 17:47:51.569,30.79,23.16,9.77,0.4,0.52,0.77,-0.35,-0.6,-0.69,54.76,35.07,-8.61,0.57,0.82,0.05,-1.34,1.56,0.01
1900-01-01 17:47:51.616,31.07,23.04,9.82,0.4,0.52,0.77,-0.34,-0.5,-0.77,54.99,34.86,-8.61,0.57,0.82,0.05,-1.34,1.34,0.08
1900-01-01 17:47:51.709,30.97,23.1,9.87,0.4,0.52,0.77,-0.21,-0.71,-0.74,54.89,34.94,-8.61,0.57,0.82,0.05,-1.23,1.4,0.1
1900-01-01 17:47:51.756,31.03,23.13,9.91,0.4,0.52,0.77,-1.1,-0.42,-0.67,54.88,34.94,-8.6,0.57,0.82,0.05,-1.6,1.21,0.19
1900-01-01 17:47:51.851,31.26,22.86,9.97,0.39,0.52,0.77,-0.25,-0.53,-0.93,55.4,34.44,-8.58,0.57,0.83,0.05,-0.61,1.56,0.06
1900-01-01 17:47:51.944,30.96,23.23,9.98,0.4,0.52,0.77,-1.27,-0.34,-0.55,54.65,35.18,-8.58,0.58,0.82,0.05,-0.82,1.37,0.08
1900-01-01 17:47:51.992,30.86,23.32,10.06,0.4,0.52,0.77,-0.66,-0.54,-0.34,54.65,35.22,-8.58,0.58,0.81,0.05,-1.16,1.69,0.07
1900-01-01 17:47:52.086,30.7,23.4,10.16,0.4,0.52,0.77,-0.55,-0.54,-0.74,54.78,35.07,-8.58,0.58,0.82,0.05,-1.1,1.47,-0.08
1900-01-01 17:47:52.179,30.99,23.17,10.21,0.4,0.52,0.77,-0.43,-0.4,-0.85,55.01,34.85,-8.6,0.57,0.82,0.05,-1.12,1.48,-0.05
1900-01-01 17:47:52.226,31.14,23.18,10.24,0.4,0.53,0.77,-0.45,-0.24,-0.89,55.16,34.7,-8.62,0.57,0.82,0.05,-0.97,1.4,0.07
1900-01-01 17:47:52.319,29.87,23.45,10.26,0.4,0.5,0.77,-0.34,-0.33,-1.25,55.29,34.54,-8.61,0.57,0.83,0.05,-1.05,2.04,1.32
1900-01-01 17:47:52.376,30.45,23.45,10.23,0.4,0.51,0.77,-0.18,-0.16,-0.84,54.35,35.51,-8.42,0.58,0.81,0.05,0.73,1.25,0.34
1900-01-01 17:47:52.461,30.55,23.35,10.26,0.4,0.52,0.78,1.0,-0.92,-0.78,54.84,35.05,-8.38,0.58,0.82,0.04,-2.43,1.4,1.54
1900-01-01 17:47:52.554,30.22,23.42,10.3,0.4,0.51,0.77,-1.83,-0.17,-0.28,54.0,35.82,-8.15,0.59,0.82,0.05,-3.46,0.93,1.37
1900-01-01 17:47:52.601,31.32,22.95,10.41,0.39,0.52,0.77,-0.64,0.23,-0.88,54.88,35.03,-7.95,0.57,0.82,0.04,-0.37,1.37,0.61
1900-01-01 17:47:52.692,30.59,23.25,10.44,0.4,0.51,0.77,0.11,-0.61,-0.57,54.16,35.67,-7.87,0.59,0.81,0.05,-0.86,1.63,-0.12
1900-01-01 17:47:52.786,30.85,23.27,10.51,0.4,0.52,0.77,-0.56,-0.4,-0.89,54.14,35.67,-7.89,0.58,0.81,0.06,-1.26,1.35,-0.11
1900-01-01 17:47:52.832,31.08,23.37,10.53,0.4,0.52,0.77,-0.67,-0.34,-0.85,54.33,35.51,-7.92,0.59,0.82,0.05,-1.37,1.02,0.11
1900-01-01 17:47:52.926,31.29,23.28,10.56,0.4,0.53,0.77,-0.75,0.64,-1.37,54.53,35.34,-7.91,0.58,0.82,0.04,-1.34,0.82,-0.06
1900-01-01 17:47:53.019,30.83,23.24,10.51,0.4,0.52,0.77,-0.06,0.73,-1.51,54.02,35.8,-7.93,0.59,0.81,0.05,-1.37,0.81,0.53
1900-01-01 17:47:53.067,31.32,22.51,10.44,0.39,0.52,0.77,0.13,1.33,-3.05,54.56,35.3,-7.86,0.57,0.81,0.05,-0.08,0.5,-1.11
1900-01-01 17:47:53.159,30.32,22.47,10.13,0.39,0.51,0.78,0.59,0.51,-1.56,54.26,35.58,-8.03,0.58,0.81,0.05,0.36,1.66,-0.73
1900-01-01 17:47:53.205,31.62,22.19,10.05,0.38,0.53,0.78,2.13,1.99,-0.89,54.61,35.29,-8.15,0.58,0.82,0.04,-0.16,2.95,-0.11
1900-01-01 17:47:53.299,32.02,21.89,10.08,0.38,0.54,0.77,3.36,2.04,-0.69,54.54,35.34,-8.18,0.58,0.81,0.04,-0.21,2.53,0.25
1900-01-01 17:47:53.392,33.84,20.81,10.13,0.36,0.56,0.76,1.75,1.63,-1.2,54.94,34.91,-8.15,0.58,0.82,0.05,-1.48,1.91,-0.41
1900-01-01 17:47:53.439,32.8,21.91,10.1,0.38,0.55,0.76,-0.61,-0.13,-0.67,54.38,35.51,-8.22,0.58,0.82,0.04,-0.45,0.77,-0.5
1900-01-01 17:47:53.534,32.77,21.7,10.16,0.37,0.54,0.76,-0.18,-0.96,-0.59,54.85,35.01,-8.3,0.57,0.81,0.05,-0.28,0.51,-0.35
1900-01-01 17:47:53.627,33.27,21.83,10.23,0.38,0.56,0.76,-0.05,-0.53,-0.44,54.99,34.93,-8.37,0.58,0.82,0.03,-1.22,1.04,0.1
1900-01-01 17:47:53.674,32.52,22.13,10.32,0.38,0.54,0.76,1.14,-1.21,-1.11,55.2,34.71,-8.36,0.58,0.83,0.04,-0.77,1.28,-0.89
1900-01-01 17:47:53.768,33.23,21.83,10.31,0.38,0.56,0.76,-1.65,-0.53,-1.0,54.98,34.93,-8.5,0.57,0.82,0.04,-1.82,0.61,-0.53
1900-01-01 17:47:53.860,32.6,22.21,10.31,0.38,0.54,0.76,-0.48,-0.63,-1.01,54.61,35.3,-8.59,0.58,0.82,0.04,-1.63,0.67,0.01
1900-01-01 17:47:53.908,32.56,21.94,10.32,0.38,0.54,0.76,2.15,-0.41,-1.79,54.73,35.15,-8.6,0.58,0.82,0.04,-0.85,-0.29,-0.65
1900-01-01 17:47:54.000,34.04,21.85,10.2,0.38,0.57,0.75,1.28,-0.89,-2.17,54.4,35.57,-8.71,0.58,0.81,0.02,-0.26,-1.04,-0.11
1900-01-01 17:47:54.046,33.35,21.97,10.03,0.38,0.56,0.76,2.7,-0.78,-2.11,54.85,35.08,-8.74,0.58,0.83,0.03,0.66,-1.25,-0.12
1900-01-01 17:47:54.141,34.63,21.78,9.86,0.37,0.57,0.73,4.69,-0.8,-1.95,55.71,34.26,-8.76,0.57,0.83,0.01,2.42,-1.15,0.01
1900-01-01 17:47:54.234,34.82,21.77,9.72,0.37,0.58,0.74,2.76,-2.0,-1.52,54.47,35.52,-8.77,0.59,0.83,0.0,3.37,-0.56,-1.09
1900-01-01 17:47:54.280,35.7,22.15,9.65,0.38,0.59,0.72,0.61,-0.72,-0.98,55.18,34.78,-8.94,0.57,0.82,-0.02,1.07,0.47,0.37
1900-01-01 17:47:54.374,36.21,21.94,9.66,0.38,0.6,0.72,0.22,0.16,-0.65,55.31,34.66,-8.9,0.57,0.82,-0.02,-0.02,1.5,0.49
1900-01-01 17:47:54.469,35.87,21.55,9.72,0.37,0.59,0.72,-0.27,0.03,-0.71,55.42,34.55,-8.83,0.57,0.82,-0.01,-1.22,1.83,0.03
1900-01-01 17:47:54.517,35.62,22.15,9.77,0.38,0.59,0.73,-0.93,-0.05,-0.46,55.07,34.91,-8.84,0.58,0.82,-0.01,-1.53,1.85,-0.06
1900-01-01 17:47:54.610,35.75,21.98,9.86,0.38,0.59,0.73,0.38,-0.5,-0.93,55.29,34.69,-8.85,0.58,0.83,-0.01,-1.11,1.79,-0.11
1900-01-01 17:47:54.656,35.88,22.01,9.88,0.38,0.59,0.73,1.47,-0.28,-1.17,55.26,34.71,-8.88,0.57,0.83,-0.02,-1.31,1.6,0.37
1900-01-01 17:47:54.751,36.0,21.75,9.86,0.37,0.59,0.72,0.35,-0.5,-0.89,55.1,34.89,-8.83,0.57,0.82,0.0,-2.13,1.73,0.5
1900-01-01 17:47:54.843,36.56,21.94,9.88,0.38,0.6,0.72,0.6,-1.23,-0.87,55.23,34.76,-8.76,0.57,0.83,-0.01,-2.73,2.02,0.05
1900-01-01 17:47:54.891,36.1,22.35,9.91,0.39,0.6,0.73,0.85,-0.76,-0.82,54.97,35.01,-8.76,0.59,0.84,0.0,-3.94,1.66,0.36
1900-01-01 17:47:54.984,36.41,22.09,9.94,0.38,0.59,0.71,2.36,-1.3,-0.76,55.17,34.81,-8.72,0.58,0.83,0.01,-5.3,1.26,1.07
1900-01-01 17:47:55.077,36.79,23.02,9.98,0.39,0.6,0.7,1.0,-2.99,-1.21,54.77,35.22,-8.56,0.57,0.81,0.0,-4.73,-0.26,1.18
1900-01-01 17:47:55.123,37.24,22.88,9.96,0.39,0.61,0.7,3.82,-3.0,-0.94,54.2,35.78,-8.39,0.57,0.79,0.01,-4.34,-0.4,1.32
1900-01-01 17:47:55.227,36.49,22.94,9.97,0.39,0.59,0.7,-10.59,2.27,0.66,54.04,35.9,-8.2,0.58,0.8,0.03,0.34,-1.9,1.15
1900-01-01 17:47:55.265,31.92,21.88,10.23,0.38,0.54,0.78,-6.98,1.12,0.66,53.76,36.2,-8.03,0.63,0.85,0.02,-1.85,0.56,0.54
1900-01-01 17:47:55.357,37.95,23.2,10.49,0.4,0.62,0.69,6.51,-2.45,0.76,55.1,34.87,-7.96,0.56,0.8,-0.01,-2.75,0.29,0.59
1900-01-01 17:47:55.451,34.89,22.93,10.76,0.39,0.57,0.71,-5.5,0.28,-1.4,53.32,36.62,-7.88,0.58,0.78,0.03,-1.8,0.02,-0.04
1900-01-01 17:47:55.499,32.79,22.17,10.71,0.39,0.56,0.77,-5.79,0.72,-0.69,53.73,36.26,-7.89,0.6,0.82,0.0,-2.76,1.85,0.32
1900-01-01 17:47:55.592,33.35,22.94,10.76,0.39,0.55,0.75,-2.7,0.56,-0.43,53.64,36.33,-7.85,0.6,0.81,0.02,0.83,2.95,-0.79
1900-01-01 17:47:55.685,34.84,21.91,10.86,0.38,0.58,0.74,-0.4,1.31,-0.95,54.83,35.16,-7.98,0.58,0.82,0.01,2.11,2.96,-0.14
1900-01-01 17:47:55.732,33.4,22.46,10.87,0.39,0.56,0.75,-1.53,-0.18,0.11,53.57,36.41,-8.01,0.59,0.8,0.01,1.53,2.47,0.08
1900-01-01 17:47:55.826,33.84,22.37,11.05,0.39,0.57,0.75,-4.4,-0.18,0.16,54.71,35.27,-8.0,0.58,0.83,-0.01,-0.61,2.63,-0.18
1900-01-01 17:47:55.872,32.74,22.43,11.23,0.38,0.54,0.75,-2.66,-0.11,0.17,55.66,34.33,-8.04,0.58,0.85,0.0,-0.18,3.95,2.5
1900-01-01 17:47:55.967,32.01,23.06,11.41,0.4,0.54,0.76,-5.51,0.27,0.97,52.98,37.01,-7.67,0.6,0.79,0.0,-2.19,2.67,2.83
1900-01-01 17:47:56.061,31.65,22.41,11.72,0.39,0.53,0.77,-3.7,0.4,0.87,53.59,36.39,-7.24,0.6,0.81,0.01,-3.24,3.17,1.31
1900-01-01 17:47:56.107,30.69,23.29,12.01,0.4,0.52,0.77,-5.98,1.78,1.23,51.8,38.16,-7.05,0.62,0.79,0.02,-3.99,3.55,2.14
1900-01-01 17:47:56.201,30.17,22.5,12.36,0.39,0.51,0.79,-2.35,-0.6,-0.08,52.57,37.36,-6.74,0.61,0.8,0.03,-5.65,2.66,4.81
1900-01-01 17:47:56.293,30.18,22.36,12.5,0.39,0.51,0.79,-4.34,-0.91,-0.56,52.32,37.58,-6.01,0.62,0.8,0.04,-7.95,2.6,6.49
1900-01-01 17:47:56.341,27.86,22.82,12.57,0.39,0.47,0.8,-2.89,-0.47,-0.81,50.64,39.13,-5.03,0.65,0.79,0.06,-6.39,2.3,5.47
1900-01-01 17:47:56.432,29.26,22.74,12.61,0.39,0.5,0.79,-4.19,0.45,0.09,49.48,40.28,-4.2,0.64,0.76,0.06,-1.55,2.24,2.53
1900-01-01 17:47:56.527,28.37,23.09,12.78,0.4,0.48,0.8,-1.14,-0.61,-0.79,49.15,40.6,-3.82,0.65,0.76,0.06,-1.05,1.4,0.73
1900-01-01 17:47:56.573,29.83,22.71,12.82,0.39,0.51,0.79,1.47,-1.03,-1.24,50.2,39.7,-3.72,0.64,0.77,0.04,-1.56,0.65,1.98
1900-01-01 17:47:56.676,27.81,23.07,12.79,0.4,0.47,0.8,-1.4,-0.32,-0.5,48.9,40.87,-3.42,0.66,0.75,0.06,-1.74,1.12,1.08
1900-01-01 17:47:56.714,27.78,23.13,12.87,0.4,0.47,0.8,0.05,-0.5,-0.76,48.51,41.24,-3.27,0.66,0.75,0.06,0.57,0.1,0.98
1900-01-01 17:47:56.807,28.73,22.5,12.91,0.39,0.49,0.8,-0.27,-0.21,-1.04,49.22,40.53,-3.13,0.66,0.77,0.07,1.28,-0.51,-0.53
1900-01-01 17:47:56.900,28.63,22.45,12.91,0.38,0.48,0.8,1.56,-0.92,-1.72,49.96,39.9,-3.22,0.65,0.77,0.05,7.56,-2.2,-2.79
1900-01-01 17:47:56.948,29.43,22.79,12.81,0.39,0.5,0.79,0.29,-0.99,-1.0,50.3,39.68,-3.65,0.65,0.78,0.01,-0.75,0.49,0.85
1900-01-01 17:47:57.041,28.48,22.57,12.82,0.39,0.49,0.81,0.74,-0.04,-1.34,49.56,40.42,-3.53,0.66,0.78,0.02,1.97,0.21,-1.07
1900-01-01 17:47:57.132,29.26,23.07,12.77,0.4,0.49,0.79,1.89,-1.08,-0.74,50.63,39.35,-3.7,0.65,0.79,0.0,-1.68,1.92,1.1
1900-01-01 17:47:57.179,29.91,23.61,12.81,0.4,0.5,0.78,1.89,-0.97,0.08,49.13,40.81,-3.54,0.65,0.75,0.03,-7.25,2.3,1.93
1900-01-01 17:47:57.273,32.42,22.75,12.99,0.39,0.54,0.76,-2.6,-0.11,0.21,49.62,40.33,-3.26,0.64,0.75,0.03,-5.62,1.48,0.09
1900-01-01 17:47:57.366,28.76,23.28,13.18,0.4,0.48,0.78,-7.73,0.19,-0.42,48.44,41.26,-3.25,0.65,0.74,0.07,0.02,0.53,-2.11
1900-01-01 17:47:57.413,30.76,22.94,13.27,0.4,0.53,0.79,7.04,-0.26,-0.28,50.89,39.06,-3.58,0.64,0.79,0.02,-5.55,4.63,2.09
1900-01-01 17:47:57.508,30.74,23.09,13.39,0.39,0.51,0.76,-1.66,-0.1,-0.95,50.3,39.58,-3.27,0.63,0.76,0.04,-3.31,1.19,-0.04
1900-01-01 17:47:57.553,27.17,23.64,13.4,0.41,0.46,0.81,-5.22,-0.18,-1.1,48.51,41.31,-3.29,0.67,0.75,0.05,4.79,1.07,-2.11
1900-01-01 17:47:57.647,29.48,23.21,13.39,0.4,0.5,0.78,-5.44,0.5,0.0,49.64,40.26,-3.62,0.64,0.75,0.04,0.93,1.95,-1.5
1900-01-01 17:47:57.742,28.31,23.12,13.55,0.4,0.48,0.8,-0.66,0.11,-1.24,50.41,39.52,-3.86,0.65,0.78,0.03,3.27,1.78,-1.5
1900-01-01 17:47:57.788,28.0,22.97,13.52,0.4,0.48,0.81,-2.24,-0.28,-0.43,50.09,39.83,-4.09,0.66,0.78,0.04,-0.35,1.56,-0.45
1900-01-01 17:47:57.883,28.28,23.25,13.61,0.4,0.48,0.8,-2.39,-0.01,-0.18,50.49,39.44,-4.17,0.64,0.77,0.03,-1.86,1.42,1.02
1900-01-01 17:47:57.975,27.46,23.25,13.74,0.4,0.47,0.8,-0.63,-0.64,-0.35,50.45,39.49,-4.02,0.64,0.77,0.03,-2.42,1.71,0.73
1900-01-01 17:47:58.025,27.3,23.4,13.85,0.4,0.46,0.81,-1.33,-0.18,-0.47,49.74,40.19,-3.92,0.65,0.77,0.03,-1.37,1.82,-0.36
1900-01-01 17:47:58.116,26.68,23.29,13.93,0.4,0.45,0.81,-0.4,-0.57,-0.92,49.75,40.14,-3.99,0.65,0.76,0.04,-2.51,1.05,-0.55
1900-01-01 17:47:58.162,27.37,23.33,13.95,0.4,0.47,0.8,-0.68,-0.54,-0.53,49.78,40.09,-4.08,0.65,0.77,0.05,-3.54,0.15,-0.9
1900-01-01 17:47:58.255,28.47,23.32,14.03,0.4,0.49,0.8,0.7,-0.4,-1.78,50.4,39.5,-4.22,0.64,0.78,0.04,-5.17,-0.94,-1.85
1900-01-01 17:47:58.349,27.98,23.29,13.91,0.4,0.47,0.8,-0.38,-0.52,-1.73,50.92,38.96,-4.52,0.63,0.78,0.04,-3.6,-0.47,-3.42
1900-01-01 17:47:58.396,27.18,23.43,13.8,0.4,0.46,0.81,0.13,-0.74,-1.42,50.42,39.33,-5.05,0.64,0.78,0.06,-4.11,-0.56,-2.81
1900-01-01 17:47:58.489,28.81,22.99,13.75,0.4,0.49,0.8,3.3,-0.82,-3.4,51.02,38.82,-5.49,0.63,0.78,0.05,-2.76,-1.5,-2.89
1900-01-01 17:47:58.585,28.07,23.92,13.38,0.41,0.48,0.79,4.31,-1.57,-4.57,50.92,38.87,-5.94,0.63,0.78,0.06,-3.11,-2.01,-2.87
1900-01-01 17:47:58.631,30.74,23.0,12.84,0.4,0.52,0.78,8.63,-2.82,-5.25,53.94,35.97,-6.39,0.6,0.82,0.04,-0.28,-1.52,-4.5
1900-01-01 17:47:58.724,31.65,22.22,12.19,0.38,0.52,0.76,1.5,-1.29,-2.79,53.21,36.65,-7.08,0.59,0.8,0.05,-2.01,-0.34,-0.77
1900-01-01 17:47:58.771,31.56,23.67,11.93,0.41,0.53,0.77,4.34,-2.36,-3.24,53.33,36.6,-7.21,0.61,0.82,0.03,-0.97,-0.92,-1.76
1900-01-01 17:47:58.862,31.8,22.63,11.59,0.38,0.52,0.75,0.96,-1.27,-1.83,52.79,37.08,-7.49,0.59,0.79,0.04,-0.62,-1.39,-2.82
1900-01-01 17:47:58.956,33.27,23.38,11.47,0.4,0.56,0.75,3.83,-1.53,-2.63,53.71,36.25,-7.93,0.59,0.81,0.02,-0.05,0.44,-1.4
1900-01-01 17:47:59.001,34.41,22.74,11.22,0.39,0.57,0.74,4.14,-0.98,-2.53,55.11,34.86,-8.15,0.58,0.83,0.02,-0.1,0.66,-1.94
1900-01-01 17:47:59.095,34.16,22.91,11.0,0.39,0.57,0.74,-1.08,-0.4,-0.72,53.84,36.09,-8.46,0.59,0.8,0.03,-1.47,0.83,-0.79
1900-01-01 17:47:59.186,34.18,23.19,11.04,0.4,0.57,0.74,1.12,-0.99,-0.99,54.6,35.37,-8.59,0.58,0.82,0.02,-1.17,0.82,-0.94
1900-01-01 17:47:59.234,33.67,23.32,11.05,0.4,0.56,0.74,0.47,-0.73,-1.6,53.92,36.02,-8.74,0.59,0.81,0.03,-1.68,0.5,-0.79
1900-01-01 17:47:59.325,34.38,23.05,10.97,0.4,0.57,0.73,1.07,-0.51,-1.33,54.71,35.24,-8.87,0.58,0.82,0.03,-0.7,0.85,-1.5
1900-01-01 17:47:59.420,34.73,22.69,10.92,0.39,0.58,0.73,-0.36,0.24,-0.39,54.59,35.35,-9.11,0.58,0.82,0.03,-1.47,1.37,-0.4
1900-01-01 17:47:59.465,34.57,23.0,11.02,0.4,0.57,0.73,-0.82,-0.28,-0.63,55.06,34.91,-9.18,0.58,0.83,0.02,-1.63,1.6,-0.94
1900-01-01 17:47:59.559,33.88,23.13,11.08,0.4,0.56,0.74,-1.44,0.13,-0.47,54.87,35.05,-9.33,0.58,0.82,0.04,-1.87,2.17,-0.38
1900-01-01 17:47:59.655,33.57,23.0,11.17,0.39,0.55,0.74,-0.27,0.02,-0.75,54.64,35.28,-9.4,0.58,0.82,0.03,-0.69,2.0,-0.53
1900-01-01 17:47:59.701,34.25,23.17,11.21,0.4,0.57,0.73,-0.56,0.54,-0.56,54.96,34.98,-9.48,0.58,0.82,0.03,-0.38,1.47,-0.07
1900-01-01 17:47:59.796,33.89,23.0,11.29,0.39,0.56,0.73,0.61,-0.31,-0.91,54.81,35.1,-9.5,0.58,0.82,0.04,-1.74,1.06,0.7
1900-01-01 17:47:59.842,34.9,22.48,11.31,0.39,0.58,0.73,1.08,-0.2,-0.56,55.28,34.69,-9.41,0.57,0.83,0.02,-2.44,1.61,0.29
1900-01-01 17:47:59.936,35.8,22.38,11.38,0.39,0.59,0.73,-2.21,1.6,-0.51,56.03,33.94,-9.37,0.56,0.83,0.02,0.21,1.56,-0.54
1900-01-01 17:48:00.031,33.88,22.75,11.46,0.39,0.56,0.74,-4.49,1.24,-0.08,54.8,35.1,-9.46,0.57,0.81,0.04,-2.12,1.57,0.04
1900-01-01 17:48:00.076,33.42,22.68,11.61,0.39,0.56,0.75,-3.1,0.34,-0.4,55.11,34.79,-9.46,0.58,0.83,0.04,-0.65,0.93,-0.05
1900-01-01 17:48:00.168,33.01,22.54,11.7,0.38,0.55,0.75,-1.69,-0.68,-0.32,55.28,34.67,-9.48,0.57,0.82,0.03,-0.47,1.23,0.02
1900-01-01 17:48:00.262,33.17,22.37,11.81,0.39,0.56,0.76,-3.6,0.09,0.67,55.4,34.55,-9.48,0.57,0.82,0.02,-2.37,1.24,0.68
1900-01-01 17:48:00.312,32.07,22.94,12.07,0.4,0.54,0.76,-2.94,-0.34,0.05,54.77,35.15,-9.39,0.58,0.83,0.03,-2.09,1.12,-0.03
1900-01-01 17:48:00.403,33.0,23.17,12.24,0.4,0.55,0.75,0.23,-0.78,-0.63,55.2,34.76,-9.4,0.56,0.81,0.02,-2.63,0.67,-0.62
1900-01-01 17:48:00.496,32.88,22.75,12.3,0.39,0.55,0.75,-0.35,-0.69,-0.87,55.72,34.23,-9.51,0.56,0.83,0.02,-1.15,0.12,-1.99
1900-01-01 17:48:00.544,31.85,22.88,12.32,0.39,0.53,0.76,-0.47,-0.66,-1.05,55.16,34.78,-9.82,0.57,0.82,0.03,1.79,-0.68,-2.35
1900-01-01 17:48:00.636,32.26,23.24,12.32,0.4,0.54,0.76,0.79,-1.53,-1.41,55.74,34.23,-10.19,0.56,0.83,0.01,3.76,-1.29,-2.42
1900-01-01 17:48:00.684,32.93,23.13,12.26,0.4,0.55,0.75,1.03,-1.09,-1.18,56.13,33.86,-10.57,0.56,0.83,-0.01,0.11,-0.11,-1.83
1900-01-01 17:48:00.778,33.3,23.1,12.24,0.4,0.56,0.75,0.18,-0.8,-1.78,56.7,33.28,-10.86,0.55,0.83,-0.01,-0.73,1.08,-0.85
1900-01-01 17:48:00.874,33.15,23.01,12.13,0.4,0.55,0.75,-0.01,-0.92,-2.02,57.02,32.97,-11.0,0.55,0.85,-0.01,-1.21,1.42,-0.91
1900-01-01 17:48:00.918,33.53,22.86,11.97,0.39,0.56,0.74,0.94,-0.49,-1.21,57.1,32.88,-11.14,0.54,0.84,-0.01,-1.96,1.61,-0.72
1900-01-01 17:48:01.013,33.91,23.46,11.95,0.4,0.56,0.73,4.13,-1.97,-1.47,57.6,32.39,-11.26,0.54,0.85,0.01,-4.61,1.44,-0.21
1900-01-01 17:48:01.105,34.77,23.67,11.88,0.41,0.58,0.73,-0.02,-0.79,-0.52,56.54,33.44,-11.3,0.55,0.83,-0.01,-3.89,0.52,0.07
1900-01-01 17:48:01.152,33.34,23.29,11.96,0.39,0.55,0.73,-2.84,0.31,-1.34,56.61,33.36,-11.3,0.54,0.82,0.02,-0.44,0.66,-0.05
1900-01-01 17:48:01.244,34.48,23.16,11.91,0.4,0.57,0.73,-1.43,0.64,-0.86,57.26,32.73,-11.32,0.54,0.84,0.0,-1.04,2.07,0.4
1900-01-01 17:48:01.337,33.24,23.17,11.94,0.4,0.55,0.74,-0.42,-0.63,-0.88,56.82,33.16,-11.26,0.55,0.84,0.01,-0.76,2.11,0.01
1900-01-01 17:48:01.384,33.51,23.18,11.96,0.4,0.56,0.74,-0.03,-0.35,-0.85,57.1,32.89,-11.27,0.55,0.84,0.0,-0.39,1.62,-0.21
1900-01-01 17:48:01.480,33.75,23.31,11.99,0.4,0.56,0.74,-1.02,-0.08,-0.89,57.11,32.88,-11.31,0.54,0.84,0.0,-1.07,1.21,-0.21
1900-01-01 17:48:01.525,32.97,23.22,12.01,0.4,0.55,0.75,1.63,-0.83,-0.31,57.04,32.95,-11.35,0.56,0.86,0.0,-3.86,0.66,0.91
1900-01-01 17:48:01.620,34.08,23.72,12.12,0.41,0.57,0.73,0.39,-0.53,0.21,55.37,34.62,-11.22,0.56,0.81,0.01,-6.34,-0.37,0.9
1900-01-01 17:48:01.716,33.69,22.78,12.32,0.38,0.55,0.73,-5.3,0.5,-0.77,57.08,32.82,-11.09,0.53,0.82,0.04,-1.54,1.31,0.85
1900-01-01 17:48:01.762,32.78,23.36,12.36,0.4,0.55,0.76,-1.82,0.1,-0.61,55.94,34.02,-10.97,0.56,0.83,0.02,-1.42,2.2,0.52
1900-01-01 17:48:01.854,33.56,22.71,12.42,0.39,0.56,0.75,0.51,0.36,-0.7,57.73,32.21,-10.9,0.54,0.86,0.03,-1.33,1.91,0.85
1900-01-01 17:48:01.949,33.96,22.72,12.47,0.4,0.57,0.75,-4.24,2.1,0.61,55.81,34.18,-10.78,0.56,0.82,0.01,-5.27,3.18,4.18
1900-01-01 17:48:01.994,33.39,22.92,12.72,0.4,0.56,0.75,-6.88,2.02,1.04,55.3,34.56,-10.15,0.57,0.83,0.05,-4.84,4.54,5.5
1900-01-01 17:48:02.088,31.52,22.86,13.04,0.39,0.53,0.77,-7.07,1.28,0.08,53.87,35.92,-9.32,0.59,0.82,0.06,-3.55,4.61,6.76
1900-01-01 17:48:02.136,30.94,23.32,13.21,0.4,0.52,0.77,-11.91,1.21,1.11,53.1,36.71,-8.3,0.6,0.81,0.06,-3.08,5.71,4.82
1900-01-01 17:48:02.230,29.74,22.77,13.54,0.39,0.5,0.78,-7.04,1.63,1.12,52.39,37.27,-7.57,0.6,0.79,0.07,-2.48,6.67,4.25
1900-01-01 17:48:02.322,27.76,22.38,13.87,0.39,0.47,0.81,-7.71,0.72,1.64,51.61,37.89,-6.93,0.61,0.78,0.09,-1.22,8.32,7.82
1900-01-01 17:48:02.368,26.44,22.95,14.28,0.4,0.45,0.82,-5.34,0.12,0.14,50.64,38.87,-5.75,0.64,0.79,0.09,-1.76,8.89,8.48
1900-01-01 17:48:02.460,25.83,23.63,14.46,0.41,0.44,0.82,-9.69,0.61,1.76,48.8,40.44,-4.47,0.65,0.76,0.11,-3.08,8.08,8.09
1900-01-01 17:48:02.553,25.38,23.38,14.88,0.4,0.44,0.83,-7.82,1.51,2.56,47.64,41.45,-3.25,0.66,0.74,0.12,-3.57,5.62,9.3
1900-01-01 17:48:02.601,24.43,23.38,15.43,0.41,0.42,0.84,-7.9,1.35,2.92,47.47,41.33,-1.84,0.66,0.74,0.14,-5.5,5.91,7.37
1900-01-01 17:48:02.694,21.59,24.05,16.04,0.41,0.37,0.83,-2.91,0.47,3.15,47.41,41.53,-0.73,0.65,0.72,0.13,-3.35,7.06,4.73
1900-01-01 17:48:02.786,20.37,23.81,16.67,0.41,0.35,0.86,-2.4,0.21,2.82,44.56,43.43,-0.02,0.68,0.7,0.19,-1.27,4.79,3.48
1900-01-01 17:48:02.834,21.52,22.76,17.26,0.39,0.37,0.85,-4.85,-0.43,4.05,44.71,43.41,0.5,0.68,0.7,0.18,-1.94,4.95,4.54
1900-01-01 17:48:02.929,20.83,23.98,18.04,0.41,0.36,0.85,0.69,1.09,2.07,43.38,44.76,1.18,0.7,0.68,0.18,-2.44,4.08,2.32
1900-01-01 17:48:02.974,20.77,22.49,18.51,0.39,0.36,0.86,3.11,0.92,1.27,44.12,43.73,1.53,0.69,0.69,0.19,-1.46,2.67,1.42
1900-01-01 17:48:03.068,21.54,22.72,18.86,0.39,0.37,0.86,-0.37,-0.47,1.23,44.02,43.81,1.73,0.69,0.69,0.19,-1.69,2.88,0.93
1900-01-01 17:48:03.163,20.18,24.1,19.2,0.4,0.33,0.82,-4.02,1.03,-0.98,41.7,45.47,1.87,0.67,0.63,0.21,5.76,-0.15,-2.93
1900-01-01 17:48:03.209,20.08,21.96,19.21,0.39,0.36,0.9,-1.51,-0.1,-0.02,44.42,44.09,1.41,0.71,0.71,0.16,1.81,2.82,1.09
1900-01-01 17:48:03.301,20.21,23.64,19.37,0.41,0.35,0.86,-1.31,-0.29,-0.89,43.3,45.24,1.57,0.71,0.69,0.16,-1.81,2.35,-0.45
1900-01-01 17:48:03.351,20.08,23.35,19.39,0.41,0.35,0.87,-2.11,-0.75,-1.34,43.85,44.39,1.49,0.7,0.7,0.18,-0.62,0.56,-1.17
1900-01-01 17:48:03.443,19.78,23.33,19.35,0.4,0.34,0.87,0.16,-0.56,-1.11,44.05,44.07,1.31,0.69,0.69,0.18,1.55,0.92,-1.66
1900-01-01 17:48:03.536,19.92,23.41,19.34,0.41,0.35,0.87,-0.69,-0.66,-0.96,45.25,43.32,1.04,0.7,0.72,0.16,-0.85,1.32,-0.29
1900-01-01 17:48:03.581,19.81,23.37,19.35,0.4,0.35,0.87,0.24,-0.56,-1.17,44.2,44.34,0.99,0.7,0.7,0.16,0.16,0.77,-0.98
1900-01-01 17:48:03.677,19.48,23.45,19.33,0.4,0.34,0.87,1.74,-0.46,-1.8,43.92,44.6,0.83,0.7,0.69,0.16,2.04,0.4,-0.87
1900-01-01 17:48:03.769,21.36,23.62,19.21,0.41,0.37,0.86,1.55,-1.37,-1.21,44.13,44.52,0.69,0.7,0.69,0.15,-0.09,0.01,0.36
1900-01-01 17:48:03.815,20.22,23.43,19.19,0.4,0.35,0.86,0.94,-0.37,-1.11,44.66,44.17,0.74,0.7,0.7,0.14,4.79,-2.39,-3.42
1900-01-01 17:48:03.909,20.66,22.72,19.18,0.4,0.36,0.87,4.54,-1.32,-0.32,47.01,42.37,0.21,0.69,0.75,0.11,12.69,-4.79,-8.28
1900-01-01 17:48:04.004,22.24,24.48,19.29,0.43,0.39,0.85,4.08,-1.21,-0.52,47.64,41.9,-1.07,0.69,0.76,0.09,5.02,-2.5,-1.18
1900-01-01 17:48:04.051,22.93,24.69,19.37,0.42,0.4,0.83,4.17,-1.85,0.67,47.44,42.4,-1.25,0.68,0.75,0.05,-5.79,1.45,3.34
1900-01-01 17:48:04.143,22.62,24.56,19.63,0.42,0.39,0.84,5.88,-1.05,0.21,46.18,43.21,-0.75,0.69,0.73,0.1,-5.56,3.11,1.72
1900-01-01 17:48:04.190,24.92,23.92,19.82,0.41,0.42,0.81,-1.47,-0.15,-0.44,47.06,42.33,-0.5,0.67,0.73,0.1,-2.66,0.11,0.69
1900-01-01 17:48:04.285,22.94,23.75,19.91,0.41,0.4,0.84,-5.08,-1.1,-1.12,46.75,42.53,-0.4,0.7,0.75,0.11,1.71,-3.65,0.86
1900-01-01 17:48:04.391,24.21,24.91,19.9,0.43,0.42,0.83,3.36,-0.83,-0.93,46.57,43.19,-0.28,0.7,0.74,0.06,-2.05,2.65,-1.42
1900-01-01 17:48:04.424,24.47,24.87,19.91,0.42,0.42,0.81,3.79,0.04,-0.98,45.86,43.58,-0.51,0.67,0.7,0.1,-2.15,1.37,0.36
1900-01-01 17:48:04.518,25.06,24.22,19.92,0.41,0.43,0.82,-3.62,-0.14,-1.89,46.5,42.97,-0.46,0.67,0.72,0.09,2.85,-0.58,-1.18
1900-01-01 17:48:04.614,23.28,23.83,19.79,0.42,0.41,0.85,-1.29,-0.69,-2.08,46.39,43.37,-0.65,0.7,0.74,0.06,0.55,-1.02,3.09
1900-01-01 17:48:04.662,23.73,24.05,19.63,0.42,0.41,0.84,-3.16,0.11,-1.18,48.92,40.76,-0.19,0.7,0.81,0.08,0.48,3.56,3.62
1900-01-01 17:48:04.753,23.57,24.4,19.61,0.42,0.41,0.83,-3.76,-0.35,-0.4,46.21,43.42,0.36,0.69,0.72,0.08,-1.04,0.3,0.89
1900-01-01 17:48:04.800,23.28,24.59,19.7,0.42,0.4,0.83,-3.7,0.17,-0.13,45.49,44.33,0.48,0.7,0.72,0.06,-1.82,2.82,-1.55
1900-01-01 17:48:04.892,22.53,24.44,19.84,0.42,0.39,0.84,-2.08,0.92,-1.15,45.19,44.52,0.24,0.7,0.71,0.07,-0.85,2.25,-1.09
1900-01-01 17:48:04.986,22.75,23.72,19.83,0.41,0.39,0.84,-2.62,0.55,-0.67,45.57,43.84,0.06,0.69,0.71,0.1,-2.76,2.28,2.24
1900-01-01 17:48:05.033,21.79,23.86,19.88,0.41,0.37,0.84,2.76,0.04,-2.27,46.09,43.38,0.4,0.69,0.73,0.1,-0.47,0.49,-1.16
1900-01-01 17:48:05.127,23.32,24.16,19.7,0.41,0.4,0.83,-1.5,0.29,-1.79,44.99,44.75,0.21,0.69,0.7,0.06,-0.94,1.95,-2.08
1900-01-01 17:48:05.219,22.89,24.23,19.58,0.42,0.4,0.84,0.85,-1.54,-3.15,45.6,44.12,-0.11,0.7,0.72,0.07,-0.44,-0.13,-2.08
1900-01-01 17:48:05.266,23.77,23.79,19.26,0.41,0.41,0.84,0.31,-0.03,-2.88,47.41,42.31,-0.44,0.67,0.74,0.07,1.22,-0.65,-2.95
1900-01-01 17:48:05.359,24.35,24.2,18.98,0.41,0.42,0.82,-1.65,1.75,-2.86,49.31,40.62,-0.9,0.65,0.76,0.03,-2.21,0.31,1.05
1900-01-01 17:48:05.406,20.97,23.27,18.7,0.4,0.37,0.86,1.0,4.05,-1.78,45.67,43.56,-0.75,0.7,0.73,0.12,-4.17,3.27,4.18
1900-01-01 17:48:05.500,25.23,21.39,18.59,0.37,0.43,0.84,-0.25,2.46,-3.93,45.86,43.84,-0.12,0.7,0.72,0.07,-3.49,1.16,1.97
1900-01-01 17:48:05.596,24.49,21.56,18.15,0.38,0.42,0.85,-4.15,1.64,-3.88,46.72,43.04,0.17,0.69,0.73,0.06,0.39,-0.69,-1.31
1900-01-01 17:48:05.641,21.55,23.09,17.71,0.4,0.37,0.85,-2.92,3.34,-2.99,45.68,44.03,-0.04,0.7,0.72,0.07,-1.21,-0.3,1.15
1900-01-01 17:48:05.736,23.57,19.33,17.41,0.33,0.4,0.86,0.46,4.67,-2.53,46.72,42.96,0.13,0.69,0.73,0.07,-1.76,0.9,1.98
1900-01-01 17:48:05.827,22.75,20.04,17.19,0.35,0.39,0.87,-1.78,1.65,-2.81,44.51,45.16,0.42,0.71,0.7,0.07,-1.21,1.09,0.03
1900-01-01 17:48:05.876,23.33,19.69,16.92,0.35,0.41,0.88,0.66,4.24,-2.85,45.41,44.33,0.42,0.7,0.71,0.07,0.31,2.25,0.82
1900-01-01 17:48:05.968,23.47,18.81,16.64,0.33,0.4,0.87,2.53,5.4,-3.03,44.92,44.75,0.53,0.7,0.71,0.07,0.23,2.98,0.88
1900-01-01 17:48:06.062,26.47,16.11,16.34,0.28,0.46,0.87,-0.12,3.59,-2.12,46.54,43.21,0.66,0.7,0.74,0.07,-1.44,2.11,0.34
1900-01-01 17:48:06.109,23.81,17.58,16.18,0.3,0.41,0.87,-3.69,1.96,-2.4,44.86,44.8,0.7,0.71,0.71,0.08,-1.47,-0.16,-0.69
1900-01-01 17:48:06.204,23.66,16.33,15.97,0.28,0.41,0.88,-3.69,1.09,-1.85,45.52,44.15,0.59,0.7,0.72,0.07,-1.02,0.23,-0.87
1900-01-01 17:48:06.250,23.84,17.02,15.85,0.3,0.41,0.88,0.55,0.31,0.39,45.78,44.06,0.45,0.7,0.73,0.05,0.11,2.38,-0.79
1900-01-01 17:48:06.344,22.74,16.65,16.07,0.29,0.39,0.89,-2.4,0.97,0.8,45.58,44.01,0.32,0.71,0.73,0.08,-1.94,1.66,1.7
1900-01-01 17:48:06.439,23.43,16.35,16.35,0.28,0.4,0.88,1.1,-1.11,-0.37,45.71,44.0,0.57,0.7,0.72,0.07,-0.26,1.63,-0.1
1900-01-01 17:48:06.485,24.18,17.01,16.45,0.3,0.42,0.88,-0.57,0.34,-0.26,46.31,43.52,0.55,0.7,0.73,0.05,-1.84,1.6,-0.02
1900-01-01 17:48:06.580,23.47,16.22,16.57,0.28,0.4,0.88,-1.58,1.06,-0.11,46.09,43.57,0.54,0.7,0.73,0.08,-1.36,1.49,0.14
1900-01-01 17:48:06.628,21.54,16.84,16.71,0.29,0.37,0.89,-2.98,-1.26,-0.24,44.93,44.73,0.55,0.71,0.71,0.08,-0.56,0.79,-0.71
1900-01-01 17:48:06.721,21.78,17.77,16.83,0.31,0.37,0.89,0.14,-0.79,0.68,44.75,45.02,0.43,0.72,0.71,0.06,-0.69,1.7,1.34
