,Time,Roll1,Pitch1,Yaw1,AccX1,AccY1,AccZ1,RotX1,RotY1,RotZ1,Roll2,Pitch2,Yaw2,AccX2,AccY2,AccZ2,RotX2,RotY2,RotZ2
0,1900-01-01 17:39:29.643,19.73,1.97,27.12,0.03,0.34,0.93,1.37,-1.24,-0.59,13.12,14.73,31.37,0.24,0.22,0.9,-1.36,1.82,-3.39
1,1900-01-01 17:39:29.680,19.54,2.68,27.19,0.05,0.33,0.94,-0.05,0.38,-0.76,13.02,14.83,30.85,0.25,0.22,0.91,-1.63,1.41,0.23
2,1900-01-01 17:39:29.680,20.66,2.36,27.23,0.04,0.35,0.93,-0.79,0.91,-0.57,12.57,14.65,30.87,0.24,0.21,0.91,-2.16,0.95,0.92
3,1900-01-01 17:39:29.761,20.59,2.29,27.3,0.04,0.35,0.93,0.37,-0.6,-0.82,12.92,14.84,31.0,0.25,0.22,0.91,-0.85,1.84,-0.57
4,1900-01-01 17:39:29.782,19.84,2.18,27.34,0.04,0.34,0.94,-0.5,-0.31,-0.95,12.33,14.72,30.91,0.25,0.21,0.91,-1.48,1.27,0.17
5,1900-01-01 17:39:29.878,20.25,2.5,27.35,0.04,0.35,0.94,0.09,-0.32,-1.03,12.99,14.72,30.92,0.25,0.22,0.91,-1.02,1.31,0.11
6,1900-01-01 17:39:30.012,20.48,2.42,27.35,0.04,0.35,0.93,-0.39,0.16,-0.89,12.78,14.65,30.93,0.24,0.21,0.91,-1.47,1.05,0.4
7,1900-01-01 17:39:30.012,20.62,2.21,27.37,0.04,0.35,0.93,-0.5,-0.21,-0.84,12.49,14.65,30.98,0.24,0.21,0.91,-1.49,1.42,-0.56
8,1900-01-01 17:39:30.139,20.39,2.09,27.4,0.04,0.35,0.93,-0.44,-0.5,-1.02,12.42,14.64,30.89,0.25,0.21,0.91,-1.34,1.31,-0.27
9,1900-01-01 17:39:30.160,20.85,2.42,27.41,0.04,0.35,0.93,-0.5,-0.51,-0.98,12.93,14.47,30.84,0.24,0.22,0.91,-1.27,1.54,-0.25
10,1900-01-01 17:39:30.236,20.25,2.47,27.41,0.04,0.35,0.95,-2.73,-0.19,-0.6,12.21,14.37,30.79,0.25,0.21,0.94,-2.56,-0.92,1.51
11,1900-01-01 17:39:30.348,17.75,-2.12,27.48,-0.04,0.32,1.01,1.18,-4.77,0.08,8.93,10.63,31.02,0.19,0.16,1.01,5.48,-6.63,3.24
12,1900-01-01 17:39:30.394,18.01,-4.29,27.65,-0.08,0.33,1.02,4.94,-15.97,-1.46,2.02,13.99,31.5,0.28,0.04,1.12,15.08,-10.24,-5.37
13,1900-01-01 17:39:30.489,18.95,7.61,27.59,0.13,0.33,0.94,-1.48,-23.72,-12.69,14.9,22.93,30.67,0.37,0.24,0.84,5.76,-36.23,-14.84
14,1900-01-01 17:39:30.583,26.84,18.66,25.79,0.3,0.42,0.78,1.82,-12.08,-13.84,42.86,27.58,28.37,0.37,0.54,0.45,8.35,-7.74,-3.85
15,1900-01-01 17:39:30.630,29.87,20.36,23.83,0.32,0.46,0.74,4.08,9.94,-2.27,36.88,23.76,27.77,0.34,0.51,0.59,-5.19,32.79,10.23
16,1900-01-01 17:39:30.724,23.21,10.03,23.64,0.17,0.39,0.9,8.69,11.55,1.92,19.99,17.32,29.33,0.3,0.34,0.89,11.85,49.14,15.82
17,1900-01-01 17:39:30.769,23.59,1.8,24.09,0.03,0.41,0.93,-2.75,6.36,2.46,15.44,5.0,31.74,0.1,0.3,1.08,-21.85,21.25,12.42
18,1900-01-01 17:39:30.887,23.84,-1.51,24.62,-0.03,0.42,0.95,-8.32,4.82,2.77,11.35,5.86,33.62,0.1,0.2,0.97,-8.82,-2.02,6.82
19,1900-01-01 17:39:30.932,20.82,-0.8,25.2,-0.01,0.37,0.96,-1.13,3.89,2.5,7.59,11.17,34.65,0.2,0.14,1.0,-1.82,-7.34,3.09
20,1900-01-01 17:39:31.035,23.6,2.76,25.74,0.05,0.4,0.92,-2.49,1.14,1.18,15.35,12.24,35.11,0.2,0.25,0.89,3.95,-2.74,4.48
21,1900-01-01 17:39:31.088,21.91,4.34,26.08,0.08,0.37,0.92,-5.05,2.24,0.6,14.26,15.01,35.78,0.25,0.24,0.92,2.5,2.28,6.52
22,1900-01-01 17:39:31.272,21.35,4.98,26.33,0.09,0.36,0.92,-0.4,0.93,-0.6,14.92,14.49,36.76,0.24,0.25,0.9,2.13,0.6,2.85
23,1900-01-01 17:39:31.301,20.99,3.94,26.39,0.07,0.35,0.92,-0.43,0.59,-1.07,15.12,13.82,37.18,0.23,0.25,0.91,1.53,-0.53,1.56
24,1900-01-01 17:39:31.301,23.98,3.8,26.39,0.07,0.41,0.91,0.32,0.45,-0.53,16.46,13.53,37.41,0.23,0.28,0.91,2.21,0.4,3.69
25,1900-01-01 17:39:31.414,21.2,3.69,26.47,0.06,0.36,0.93,-1.64,0.67,-0.24,15.79,15.6,37.96,0.26,0.26,0.89,0.46,0.43,2.09
26,1900-01-01 17:39:31.529,21.95,3.49,26.59,0.06,0.37,0.92,0.49,0.29,-0.86,15.89,14.74,38.27,0.25,0.27,0.9,0.72,0.57,0.49
27,1900-01-01 17:39:31.529,22.45,2.96,26.62,0.05,0.38,0.92,-0.06,-0.11,-0.53,17.34,14.02,38.34,0.23,0.29,0.89,0.51,0.47,2.18
28,1900-01-01 17:39:31.666,21.77,4.04,26.69,0.07,0.37,0.93,-0.79,1.02,-0.23,18.4,14.94,38.66,0.25,0.31,0.89,-1.69,0.05,-2.98
29,1900-01-01 17:39:31.805,20.22,2.44,26.82,0.04,0.34,0.93,-1.52,0.15,-0.98,14.98,14.99,38.2,0.25,0.25,0.9,-1.49,1.36,-0.46
30,1900-01-01 17:39:31.805,22.67,3.56,26.83,0.06,0.39,0.93,-1.11,0.08,-1.5,17.25,15.09,38.12,0.25,0.29,0.9,-0.75,1.46,1.37
31,1900-01-01 17:39:32.042,23.03,2.83,26.76,0.05,0.39,0.91,1.08,-0.02,-0.78,17.14,14.0,38.32,0.23,0.28,0.88,-1.48,0.06,-0.31
32,1900-01-01 17:39:32.078,21.22,2.72,26.8,0.05,0.36,0.93,0.3,0.27,-0.95,16.38,15.14,38.26,0.25,0.27,0.9,-1.43,0.68,0.48
33,1900-01-01 17:39:32.078,21.86,3.23,26.81,0.06,0.37,0.92,0.24,0.17,-1.26,17.51,15.25,38.33,0.25,0.29,0.88,-1.03,0.62,0.37
34,1900-01-01 17:39:32.301,22.22,2.97,26.78,0.05,0.38,0.92,-0.86,-0.66,-0.98,16.52,15.42,38.38,0.26,0.28,0.89,-1.56,2.05,0.27
35,1900-01-01 17:39:32.301,22.33,2.91,26.79,0.05,0.38,0.93,-0.32,-1.26,-0.94,17.27,14.68,38.41,0.25,0.29,0.9,-2.18,1.76,1.85
36,1900-01-01 17:39:32.301,22.33,3.18,26.8,0.06,0.38,0.92,-0.74,-0.27,-1.56,15.66,14.74,38.68,0.25,0.26,0.91,-1.24,2.18,-0.05
37,1900-01-01 17:39:32.301,22.26,3.0,26.72,0.05,0.38,0.92,0.24,0.02,-1.04,16.91,14.73,38.67,0.25,0.28,0.89,-0.23,2.11,-0.23
38,1900-01-01 17:39:32.545,22.22,2.99,26.72,0.05,0.38,0.93,-0.18,0.05,-0.63,16.67,14.93,38.62,0.25,0.28,0.89,-1.31,1.34,-0.23
39,1900-01-01 17:39:32.545,21.94,4.23,26.79,0.07,0.38,0.93,-0.25,0.27,-0.67,16.49,16.94,38.58,0.28,0.28,0.89,-2.45,2.99,-1.84
40,1900-01-01 17:39:32.545,22.52,3.39,26.84,0.06,0.38,0.91,0.76,0.11,-2.91,16.01,14.76,38.29,0.24,0.26,0.89,-7.41,4.18,-5.21
41,1900-01-01 17:39:32.601,24.85,-0.01,26.56,0.0,0.43,0.92,-1.24,0.21,-1.5,16.95,10.33,37.49,0.18,0.29,0.92,-1.92,-0.22,0.71
42,1900-01-01 17:39:32.684,21.46,2.35,26.49,0.04,0.38,0.96,-1.52,-0.54,1.26,13.71,14.2,37.59,0.24,0.24,0.94,-5.56,2.51,-0.92
43,1900-01-01 17:39:32.804,15.45,-6.32,26.84,-0.11,0.28,1.0,9.76,-7.25,-1.37,5.77,5.45,37.44,0.12,0.13,1.26,9.44,2.01,-0.61
44,1900-01-01 17:39:32.862,17.92,-0.8,26.79,-0.02,0.33,1.03,-3.73,-32.73,-5.86,2.62,13.13,37.34,0.27,0.05,1.17,9.27,-52.51,-20.44
45,1900-01-01 17:39:32.946,17.43,7.19,26.05,0.12,0.29,0.91,-10.21,-41.36,-20.91,10.47,24.83,34.19,0.35,0.15,0.74,-15.16,-77.68,-44.45
46,1900-01-01 17:39:33.034,23.84,18.53,22.96,0.3,0.38,0.8,-21.4,-27.31,-36.17,48.3,31.13,27.29,0.44,0.63,0.36,-15.47,-41.15,-27.97
47,1900-01-01 17:39:33.074,43.83,28.96,17.49,0.53,0.75,0.58,10.66,-1.11,-1.69,71.04,15.04,22.93,0.31,1.11,0.23,19.53,41.37,26.1
48,1900-01-01 17:39:33.212,32.36,23.83,17.39,0.39,0.52,0.72,5.95,29.35,27.24,30.46,29.39,26.92,0.43,0.45,0.62,5.11,70.53,51.68
49,1900-01-01 17:39:33.212,9.2,9.05,21.71,0.15,0.16,0.95,13.47,21.83,19.27,3.32,12.27,34.81,0.23,0.06,1.07,7.04,79.32,19.57
50,1900-01-01 17:39:33.369,19.4,1.04,24.8,0.02,0.37,1.06,-14.16,11.68,7.05,6.62,5.61,37.78,0.11,0.13,1.12,-23.31,21.16,11.45
51,1900-01-01 17:39:33.455,20.94,2.05,26.04,0.04,0.37,0.96,0.27,5.51,2.41,14.24,2.03,39.52,0.04,0.25,0.98,-7.39,7.6,5.98
52,1900-01-01 17:39:33.480,16.41,4.37,26.56,0.07,0.28,0.94,-17.22,12.04,0.65,3.11,8.07,40.42,0.15,0.06,1.03,-17.23,0.37,5.34
53,1900-01-01 17:39:33.614,21.37,8.71,26.82,0.16,0.39,0.97,0.2,1.72,-1.66,15.56,9.48,41.22,0.17,0.28,0.98,-2.59,4.25,-0.6
54,1900-01-01 17:39:33.614,18.3,7.16,26.73,0.12,0.29,0.87,-0.31,2.13,-0.38,10.05,9.85,41.13,0.15,0.16,0.87,-1.21,-1.64,1.15
55,1900-01-01 17:39:33.732,19.56,3.87,26.83,0.07,0.34,0.96,-3.45,2.77,-1.76,9.5,9.2,41.29,0.16,0.17,0.99,-4.3,0.55,-0.23
56,1900-01-01 17:39:33.871,20.31,7.64,26.72,0.13,0.34,0.92,3.56,-1.37,-0.98,11.91,9.17,41.25,0.15,0.2,0.92,-0.69,-0.42,-0.91
57,1900-01-01 17:39:33.871,18.38,4.9,26.73,0.08,0.31,0.92,-2.27,3.45,-1.99,8.85,10.14,41.1,0.17,0.15,0.95,-1.79,0.39,0.95
58,1900-01-01 17:39:33.905,20.47,7.88,26.58,0.14,0.37,0.97,3.24,-2.52,-0.69,12.28,10.73,41.24,0.19,0.21,0.95,1.14,2.93,-1.69
59,1900-01-01 17:39:33.992,19.87,5.34,26.63,0.09,0.33,0.91,-2.73,1.28,-0.42,10.76,9.83,40.97,0.16,0.18,0.92,-3.39,0.04,1.24
60,1900-01-01 17:39:34.128,20.22,6.68,26.73,0.12,0.36,0.97,3.08,-3.1,-0.16,11.25,10.08,41.15,0.17,0.19,0.95,-0.08,1.61,-1.64
61,1900-01-01 17:39:34.128,20.33,6.23,26.86,0.1,0.33,0.89,-5.64,2.56,-1.23,10.25,11.45,40.89,0.18,0.16,0.88,-6.05,-2.56,3.02
62,1900-01-01 17:39:34.258,19.46,5.46,26.83,0.1,0.36,1.0,2.21,-2.21,-0.49,10.72,11.55,41.35,0.2,0.19,0.98,-0.15,3.13,-1.34
63,1900-01-01 17:39:34.348,19.1,6.34,26.92,0.11,0.31,0.9,-3.07,0.47,-0.83,9.43,12.14,41.13,0.19,0.15,0.88,-3.37,-1.93,1.5
64,1900-01-01 17:39:34.348,20.14,5.16,26.95,0.1,0.36,0.99,1.38,-0.94,-1.01,10.12,12.17,41.35,0.21,0.18,0.98,-0.36,1.59,-0.79
65,1900-01-01 17:39:34.496,20.87,6.79,26.96,0.12,0.35,0.91,1.62,-1.42,-0.68,12.01,9.77,41.22,0.16,0.2,0.91,-1.3,-0.95,-0.17
66,1900-01-01 17:39:34.496,18.25,4.45,27.01,0.08,0.31,0.92,-3.63,2.8,-1.24,8.0,11.18,41.19,0.18,0.13,0.93,-3.18,0.4,2.09
67,1900-01-01 17:39:34.621,19.63,7.01,26.98,0.13,0.36,0.99,0.61,-1.27,-0.93,11.36,13.12,41.5,0.23,0.2,0.98,-0.47,3.61,0.21
68,1900-01-01 17:39:34.665,20.36,5.94,27.0,0.1,0.33,0.89,-1.05,0.27,-1.21,11.08,10.72,41.52,0.17,0.17,0.88,-1.27,-0.73,1.5
69,1900-01-01 17:39:34.761,18.72,4.18,26.97,0.07,0.31,0.92,-0.82,2.95,-1.89,8.77,10.97,41.74,0.18,0.15,0.94,-0.92,0.21,0.54
70,1900-01-01 17:39:34.805,20.14,6.22,26.84,0.11,0.37,0.99,-0.35,-1.69,-0.73,11.59,13.39,41.81,0.24,0.21,0.98,-1.21,2.11,-0.47
71,1900-01-01 17:39:34.911,19.4,5.11,26.89,0.09,0.32,0.9,-0.58,-0.11,-0.95,10.87,10.82,41.73,0.17,0.17,0.88,-1.44,-1.47,0.69
72,1900-01-01 17:39:35.015,18.13,4.64,26.9,0.08,0.31,0.94,-0.69,2.12,-2.4,9.37,12.24,41.83,0.21,0.16,0.95,-0.61,-1.06,2.01
73,1900-01-01 17:39:35.051,20.17,6.09,26.7,0.11,0.36,0.98,-1.29,-1.0,-1.62,12.42,13.19,42.13,0.23,0.22,0.97,-0.5,2.74,0.41
74,1900-01-01 17:39:35.133,19.56,5.32,26.61,0.09,0.32,0.88,-0.98,0.58,-0.7,10.37,11.64,42.18,0.18,0.16,0.87,-1.63,-2.17,1.18
75,1900-01-01 17:39:35.250,18.98,3.45,26.66,0.06,0.33,0.96,0.05,0.21,-1.18,9.72,12.99,42.35,0.23,0.17,0.96,-0.52,0.19,0.17
76,1900-01-01 17:39:35.371,20.47,6.9,26.64,0.12,0.35,0.93,1.92,-1.17,-1.02,11.79,12.54,42.37,0.21,0.19,0.91,0.43,1.02,-0.19
77,1900-01-01 17:39:35.371,19.01,4.8,26.64,0.08,0.32,0.94,-1.15,1.41,-2.06,10.1,12.9,42.33,0.22,0.17,0.95,-1.31,0.01,1.44
78,1900-01-01 17:39:35.410,21.39,6.73,26.49,0.12,0.37,0.93,1.79,-1.34,-1.05,12.24,12.61,42.54,0.21,0.2,0.92,0.33,1.48,-0.69
79,1900-01-01 17:39:35.506,18.98,3.95,26.49,0.07,0.32,0.93,-2.97,1.81,-1.01,9.26,13.1,42.43,0.22,0.16,0.94,-3.24,0.19,0.89
80,1900-01-01 17:39:35.637,20.43,6.05,26.49,0.11,0.37,0.98,2.49,-3.76,-0.11,10.95,13.4,42.56,0.23,0.19,0.95,1.04,4.0,-2.25
81,1900-01-01 17:39:35.637,19.99,5.08,26.64,0.08,0.33,0.89,-2.13,0.5,-0.54,10.48,11.67,42.21,0.19,0.17,0.89,-3.66,-0.05,0.81
82,1900-01-01 17:39:35.764,19.34,5.47,26.71,0.1,0.35,0.98,1.15,-2.36,-0.44,9.86,13.76,42.32,0.24,0.17,0.96,0.48,2.21,-1.31
83,1900-01-01 17:39:35.796,20.08,5.78,26.8,0.1,0.33,0.9,-2.07,1.4,-1.5,11.41,12.36,42.11,0.2,0.18,0.89,-2.3,0.1,1.07
84,1900-01-01 17:39:35.881,18.37,5.07,26.73,0.09,0.33,0.98,-0.44,-0.94,-0.89,9.68,14.42,42.27,0.25,0.17,0.96,-0.25,2.71,-0.16
85,1900-01-01 17:39:36.019,20.86,5.95,26.76,0.1,0.34,0.9,-1.57,0.15,-1.02,12.43,12.11,42.24,0.19,0.2,0.88,-2.12,0.47,0.47
86,1900-01-01 17:39:36.019,18.54,4.19,26.76,0.07,0.32,0.96,-1.24,0.44,-0.79,8.71,13.97,42.3,0.24,0.15,0.95,-2.11,1.49,-0.1
87,1900-01-01 17:39:36.143,21.06,7.23,26.8,0.13,0.36,0.92,2.07,-2.06,-0.97,12.09,12.06,42.27,0.2,0.2,0.91,-0.28,1.83,-0.89
88,1900-01-01 17:39:36.176,18.72,3.98,26.81,0.07,0.31,0.93,-2.84,1.98,-1.45,8.92,12.43,42.13,0.21,0.15,0.94,-3.41,-0.25,1.17
89,1900-01-01 17:39:36.275,20.11,6.71,26.75,0.12,0.36,0.98,2.69,-3.6,-0.59,11.62,13.86,42.3,0.24,0.2,0.95,0.73,3.45,-1.5
90,1900-01-01 17:39:36.396,19.01,5.54,26.81,0.09,0.31,0.9,-1.84,0.47,-1.02,10.44,12.12,42.06,0.2,0.17,0.9,-2.12,0.6,0.43
91,1900-01-01 17:39:36.503,19.03,5.31,26.82,0.1,0.34,0.97,-0.61,-1.45,-0.08,9.41,13.59,42.12,0.23,0.16,0.95,-0.78,2.85,-0.65
92,1900-01-01 17:39:36.529,20.43,5.51,26.97,0.09,0.34,0.9,-1.86,0.85,-1.04,11.47,11.86,42.01,0.19,0.19,0.89,-2.78,0.62,0.56
93,1900-01-01 17:39:36.635,19.09,5.11,26.97,0.09,0.34,0.97,-0.53,-0.82,-0.93,10.26,13.51,42.09,0.23,0.18,0.96,-0.71,2.08,-0.28
94,1900-01-01 17:39:36.635,19.43,6.43,26.98,0.11,0.32,0.91,-0.98,-0.37,-1.02,10.95,12.89,42.04,0.21,0.18,0.9,-1.79,0.79,0.32
95,1900-01-01 17:39:36.754,19.2,4.92,26.99,0.09,0.34,0.97,-1.13,-0.38,-0.65,9.66,12.82,42.08,0.22,0.17,0.96,-1.47,1.75,0.25
96,1900-01-01 17:39:36.792,19.89,6.12,27.05,0.1,0.33,0.91,-1.27,0.59,-1.32,11.16,13.0,42.11,0.21,0.18,0.89,-2.05,0.75,0.27
97,1900-01-01 17:39:36.882,19.26,5.35,27.0,0.1,0.34,0.97,-0.83,-0.3,-0.69,9.94,13.18,42.14,0.23,0.17,0.96,-1.11,2.03,0.22
98,1900-01-01 17:39:37.015,20.08,6.57,27.06,0.11,0.33,0.9,-0.01,0.37,-1.04,11.96,11.96,42.17,0.19,0.19,0.87,-1.81,-0.21,-0.12
99,1900-01-01 17:39:37.015,18.26,3.7,27.06,0.07,0.32,0.97,-1.32,0.98,-0.85,8.57,13.07,42.14,0.23,0.15,0.98,-1.15,1.82,0.15
100,1900-01-01 17:39:37.168,20.27,6.9,27.09,0.12,0.34,0.9,0.63,-0.02,-1.54,11.87,12.61,42.15,0.2,0.19,0.89,-0.44,0.08,-0.3
101,1900-01-01 17:39:37.168,18.84,4.34,27.01,0.08,0.33,0.97,-0.53,0.11,-1.01,10.09,13.58,42.1,0.24,0.18,0.97,-0.96,1.15,0.05
102,1900-01-01 17:39:37.274,19.82,6.67,27.01,0.11,0.33,0.91,0.54,-0.82,-1.27,11.54,12.67,42.1,0.2,0.19,0.89,-0.6,0.33,-0.21
103,1900-01-01 17:39:37.309,19.17,4.31,26.98,0.08,0.34,0.96,-1.82,0.47,-0.5,9.48,13.25,42.06,0.23,0.17,0.96,-1.21,1.92,-0.01
104,1900-01-01 17:39:37.391,20.48,6.53,27.06,0.11,0.34,0.92,-0.13,-0.67,-0.86,11.27,12.34,42.05,0.2,0.18,0.9,-1.24,0.7,-0.63
105,1900-01-01 17:39:37.517,19.06,4.23,27.09,0.07,0.33,0.95,-1.88,1.89,-1.07,10.23,12.36,41.94,0.21,0.18,0.95,-1.6,1.81,-0.27
106,1900-01-01 17:39:37.558,19.53,6.13,27.08,0.11,0.34,0.94,1.86,-1.76,-1.15,11.56,12.14,41.89,0.2,0.19,0.92,0.2,1.15,-0.76
107,1900-01-01 17:39:37.632,18.8,4.07,27.07,0.07,0.32,0.93,-2.03,1.34,-1.22,9.51,12.51,41.77,0.21,0.16,0.94,-1.96,0.79,0.44
108,1900-01-01 17:39:37.766,19.78,6.26,27.04,0.11,0.35,0.96,1.4,-2.56,-0.89,11.79,13.09,41.83,0.22,0.2,0.94,-0.5,2.27,-0.85
109,1900-01-01 17:39:37.799,19.38,4.79,27.06,0.08,0.32,0.91,-1.79,0.89,-0.92,10.09,11.94,41.69,0.19,0.16,0.9,-2.03,0.64,0.88
110,1900-01-01 17:39:37.897,19.5,5.52,27.08,0.1,0.35,0.98,0.59,-1.68,-0.76,10.66,13.5,41.81,0.23,0.19,0.96,-0.21,2.31,-0.96
111,1900-01-01 17:39:38.018,19.61,5.3,27.12,0.09,0.32,0.9,-1.51,0.88,-1.05,10.22,12.3,41.66,0.2,0.16,0.89,-1.9,0.6,0.47
112,1900-01-01 17:39:38.018,19.24,5.13,27.12,0.09,0.34,0.98,0.53,-1.42,-0.62,10.5,13.56,41.72,0.24,0.18,0.97,-0.1,1.79,-1.03
113,1900-01-01 17:39:38.146,19.92,5.77,27.19,0.1,0.33,0.9,-1.08,0.47,-1.31,11.49,12.56,41.55,0.2,0.18,0.88,-1.55,-0.31,0.48
114,1900-01-01 17:39:38.146,19.14,4.41,27.15,0.08,0.34,0.98,-0.71,-0.56,-0.59,10.0,13.54,41.62,0.24,0.18,0.98,-0.7,2.67,-0.01
115,1900-01-01 17:39:38.250,20.4,6.22,27.22,0.1,0.33,0.89,-0.81,-0.04,-1.45,12.33,12.26,41.61,0.19,0.19,0.87,-1.08,-0.01,0.24
116,1900-01-01 17:39:38.382,19.19,3.47,27.15,0.06,0.34,0.97,-0.67,0.84,-1.2,10.56,13.25,41.64,0.23,0.19,0.97,-1.23,1.82,0.27
117,1900-01-01 17:39:38.382,20.83,7.1,27.13,0.12,0.35,0.92,1.48,-2.13,-1.11,13.05,12.52,41.67,0.2,0.21,0.9,-0.55,0.66,-0.38
118,1900-01-01 17:39:38.490,18.72,3.6,27.12,0.06,0.32,0.93,-1.81,1.59,-1.31,9.29,12.39,41.6,0.21,0.16,0.93,-1.14,0.92,0.34
119,1900-01-01 17:39:38.538,20.33,6.43,27.08,0.12,0.36,0.96,0.79,-1.59,-0.51,12.08,13.91,41.65,0.24,0.21,0.94,-2.11,0.73,-0.38
120,1900-01-01 17:39:38.637,19.92,4.43,27.16,0.07,0.33,0.91,-1.1,0.82,-0.92,10.36,12.62,41.58,0.2,0.17,0.89,-1.54,0.05,0.74
121,1900-01-01 17:39:38.715,19.54,5.02,27.18,0.09,0.35,0.98,-0.18,-1.06,-1.13,11.03,14.5,41.69,0.26,0.2,0.97,0.21,2.08,-0.67
122,1900-01-01 17:39:38.771,20.89,6.21,27.16,0.11,0.35,0.91,0.59,-1.24,-0.75,11.95,11.86,41.57,0.19,0.19,0.9,-1.49,0.35,0.18
123,1900-01-01 17:39:38.964,19.28,3.67,27.21,0.06,0.33,0.94,-1.21,1.07,-1.24,10.33,12.76,41.59,0.22,0.18,0.94,-1.79,1.64,0.59
124,1900-01-01 17:39:38.964,20.38,6.49,27.18,0.12,0.36,0.95,1.31,-2.33,-0.72,12.22,13.25,41.67,0.23,0.21,0.93,-1.05,2.15,-0.61
125,1900-01-01 17:39:39.005,19.69,4.7,27.23,0.08,0.33,0.91,-1.6,1.18,-0.96,10.29,12.45,41.57,0.2,0.17,0.9,-1.86,0.75,0.6
126,1900-01-01 17:39:39.104,19.31,5.2,27.24,0.09,0.35,0.98,-0.21,-1.73,-0.75,10.89,14.09,41.66,0.25,0.19,0.96,-0.71,3.24,-0.51
127,1900-01-01 17:39:39.204,20.37,5.65,27.28,0.09,0.33,0.89,-0.99,0.62,-0.97,11.52,12.57,41.57,0.2,0.18,0.87,-2.03,0.53,0.35
128,1900-01-01 17:39:39.241,19.59,4.56,27.29,0.08,0.35,0.98,-0.93,-0.53,-0.82,10.39,13.6,41.61,0.24,0.18,0.97,-0.82,2.38,0.0
129,1900-01-01 17:39:39.348,20.46,6.24,27.33,0.1,0.34,0.9,-0.33,-0.34,-1.2,12.52,12.87,41.61,0.21,0.2,0.88,-1.51,-0.05,0.22
130,1900-01-01 17:39:39.450,19.31,3.85,27.3,0.07,0.34,0.96,-1.0,0.62,-0.98,9.28,13.36,41.63,0.23,0.16,0.96,-1.15,1.21,-0.05
131,1900-01-01 17:39:39.450,20.66,6.39,27.31,0.11,0.35,0.92,0.26,-1.05,-1.29,12.49,12.49,41.61,0.21,0.21,0.9,-1.12,-0.05,0.02
132,1900-01-01 17:39:39.701,19.33,4.09,27.27,0.07,0.33,0.94,-1.21,1.52,-1.16,10.17,13.33,41.61,0.23,0.17,0.94,-0.79,0.69,0.47
133,1900-01-01 17:39:39.701,20.45,6.42,27.26,0.11,0.36,0.95,1.15,-2.24,-0.56,12.28,13.27,41.67,0.23,0.21,0.93,-0.95,1.87,-0.7
134,1900-01-01 17:39:39.701,19.22,4.26,27.33,0.07,0.32,0.91,-1.84,1.25,-0.99,9.79,12.34,41.56,0.2,0.16,0.91,-2.05,1.13,0.67
135,1900-01-01 17:39:39.756,20.17,5.71,27.34,0.1,0.36,0.97,0.18,-1.77,-0.78,11.94,13.89,41.65,0.24,0.21,0.95,-0.6,2.51,-0.28
136,1900-01-01 17:39:39.850,20.06,5.17,27.38,0.09,0.33,0.9,-1.11,0.86,-1.13,11.12,12.65,41.6,0.2,0.18,0.88,-1.89,-0.29,0.44
137,1900-01-01 17:39:39.941,19.14,4.88,27.36,0.09,0.34,0.98,-0.19,-0.55,-0.99,10.9,14.36,41.66,0.25,0.19,0.97,-0.14,2.44,-0.12
138,1900-01-01 17:39:40.051,20.86,6.23,27.37,0.1,0.34,0.89,0.3,-0.19,-1.27,13.09,12.62,41.63,0.2,0.21,0.87,-1.4,-0.05,0.12
139,1900-01-01 17:39:40.051,19.07,3.62,27.33,0.06,0.33,0.96,-0.6,1.28,-0.68,9.82,13.72,41.64,0.24,0.17,0.95,-1.45,1.05,0.31
140,1900-01-01 17:39:40.173,20.81,6.81,27.39,0.12,0.36,0.95,1.81,-2.44,-0.99,12.9,12.9,41.68,0.22,0.22,0.93,-0.53,2.37,-1.01
141,1900-01-01 17:39:40.201,19.02,4.09,27.4,0.07,0.31,0.91,-2.17,1.37,-0.9,9.52,12.52,41.52,0.2,0.16,0.91,-1.81,0.85,0.64
142,1900-01-01 17:39:40.286,20.5,5.51,27.42,0.1,0.37,0.97,0.49,-2.19,-0.87,12.26,13.67,41.61,0.24,0.21,0.96,-0.34,2.89,-0.57
143,1900-01-01 17:39:40.398,20.1,4.93,27.44,0.08,0.33,0.9,-1.24,0.53,-0.9,11.29,12.52,41.51,0.2,0.18,0.88,-2.07,0.4,0.27
144,1900-01-01 17:39:40.456,19.4,4.83,27.47,0.09,0.34,0.97,-0.37,-0.21,-1.11,10.91,14.29,41.54,0.25,0.19,0.97,-0.48,2.27,-0.36
145,1900-01-01 17:39:40.537,21.22,6.06,27.45,0.1,0.35,0.9,-0.46,0.12,-1.27,12.55,11.95,41.48,0.19,0.2,0.89,-1.36,-0.24,0.32
146,1900-01-01 17:39:40.664,19.28,3.82,27.42,0.07,0.33,0.95,-0.94,0.82,-1.25,9.88,13.58,41.52,0.23,0.17,0.95,-0.6,1.39,-0.19
147,1900-01-01 17:39:40.664,21.17,7.16,27.39,0.13,0.37,0.94,1.52,-1.69,-1.09,13.15,13.18,41.48,0.22,0.22,0.92,-0.31,1.16,-0.8
148,1900-01-01 17:39:40.761,19.2,3.81,27.38,0.06,0.32,0.92,-1.97,1.6,-0.81,9.26,12.38,41.35,0.2,0.15,0.91,-2.52,0.84,0.71
149,1900-01-01 17:39:40.876,20.23,5.72,27.42,0.1,0.36,0.98,0.11,-1.45,-0.61,11.93,14.52,41.45,0.25,0.21,0.96,-1.53,2.87,0.08
150,1900-01-01 17:39:40.994,20.55,4.81,27.48,0.08,0.34,0.91,-1.34,0.09,-0.69,11.02,12.56,41.45,0.2,0.18,0.89,-2.31,0.92,0.68
151,1900-01-01 17:39:40.994,20.07,4.55,27.54,0.08,0.35,0.95,-0.59,-0.33,-0.99,10.92,13.44,41.55,0.23,0.19,0.95,-0.95,2.44,0.12
152,1900-01-01 17:39:41.114,21.03,6.14,27.54,0.11,0.35,0.91,-0.19,-0.84,-1.02,11.92,12.91,41.56,0.21,0.19,0.89,-1.45,-0.02,-0.21
153,1900-01-01 17:39:41.230,19.92,4.28,27.54,0.08,0.35,0.95,-0.86,0.46,-1.16,10.74,13.14,41.52,0.23,0.19,0.95,-1.32,1.24,0.02
154,1900-01-01 17:39:41.230,20.72,6.33,27.53,0.11,0.36,0.94,0.58,-1.92,-0.83,12.27,12.9,41.51,0.21,0.2,0.91,-1.23,1.44,-0.31
155,1900-01-01 17:39:41.296,19.89,3.99,27.56,0.07,0.34,0.93,-1.51,0.92,-1.02,10.53,12.19,41.46,0.2,0.18,0.93,-1.85,0.98,0.47
156,1900-01-01 17:39:41.353,20.29,5.94,27.56,0.11,0.35,0.95,0.87,-1.75,-0.99,11.69,13.46,41.52,0.23,0.2,0.93,-0.44,1.69,-0.56
157,1900-01-01 17:39:41.478,20.02,4.31,27.57,0.07,0.33,0.91,-1.52,0.88,-1.12,10.53,12.3,41.43,0.2,0.17,0.91,-2.15,0.35,0.43
158,1900-01-01 17:39:41.580,19.96,5.48,27.56,0.1,0.36,0.98,0.23,-1.63,-0.92,11.26,14.08,41.48,0.25,0.2,0.96,-0.66,2.46,0.25
159,1900-01-01 17:39:41.580,20.68,5.47,27.57,0.09,0.34,0.9,-0.61,-0.15,-1.15,11.89,12.39,41.51,0.2,0.19,0.89,-1.62,0.48,0.62
160,1900-01-01 17:39:41.689,19.78,4.54,27.56,0.08,0.35,0.97,-0.63,-0.4,-0.55,10.36,13.43,41.6,0.23,0.18,0.96,-1.03,2.15,0.18
161,1900-01-01 17:39:41.763,21.2,6.0,27.63,0.1,0.35,0.9,0.06,-0.29,-1.3,12.48,11.9,41.62,0.19,0.2,0.88,-1.03,0.44,-0.07
162,1900-01-01 17:39:41.816,19.68,3.87,27.59,0.07,0.34,0.94,-0.73,1.49,-1.08,9.65,13.63,41.6,0.23,0.17,0.95,-0.56,0.73,-0.1
163,1900-01-01 17:39:41.929,21.91,6.35,27.59,0.11,0.38,0.93,4.47,-2.0,-1.31,14.51,12.86,41.57,0.21,0.24,0.91,1.57,1.89,-1.47
164,1900-01-01 17:39:41.959,19.91,4.18,27.54,0.07,0.34,0.93,-1.46,0.05,-0.73,10.51,12.73,41.34,0.22,0.18,0.94,-1.73,1.0,-0.15
165,1900-01-01 17:39:42.040,21.22,5.94,27.59,0.11,0.37,0.95,0.32,-1.56,-0.69,12.22,12.81,41.31,0.22,0.21,0.93,-1.35,1.95,-0.42
166,1900-01-01 17:39:42.164,20.6,4.36,27.64,0.07,0.34,0.9,-2.1,1.67,-1.02,11.12,12.33,41.24,0.2,0.18,0.9,-2.51,0.12,1.09
167,1900-01-01 17:39:42.200,20.9,5.82,27.65,0.1,0.37,0.96,0.15,-1.18,-1.27,12.82,13.75,41.4,0.24,0.22,0.95,-0.61,2.06,-0.07
168,1900-01-01 17:39:42.273,21.2,5.08,27.61,0.09,0.35,0.9,-0.74,0.5,-1.19,12.16,11.99,41.38,0.19,0.2,0.88,-2.31,-0.31,0.06
169,1900-01-01 17:39:42.393,19.69,4.22,27.59,0.07,0.34,0.96,-0.54,-0.12,-1.48,11.08,13.6,41.38,0.23,0.19,0.95,-0.68,1.84,-0.31
170,1900-01-01 17:39:42.422,21.5,6.48,27.52,0.11,0.37,0.92,0.44,-1.53,-1.06,12.76,12.66,41.32,0.21,0.21,0.91,-0.92,1.18,-0.54
171,1900-01-01 17:39:42.504,19.77,3.63,27.52,0.06,0.33,0.92,-2.55,1.92,-0.93,10.08,13.04,41.23,0.22,0.17,0.92,-2.56,0.21,1.15
172,1900-01-01 17:39:42.628,21.26,5.93,27.53,0.11,0.38,0.96,0.77,-2.18,-0.84,13.14,13.8,41.4,0.24,0.23,0.95,-0.5,3.18,-0.56
173,1900-01-01 17:39:42.658,20.67,4.63,27.57,0.08,0.34,0.9,-1.08,0.73,-0.66,11.55,12.13,41.31,0.2,0.19,0.89,-2.22,0.31,0.35
174,1900-01-01 17:39:42.739,20.23,4.71,27.62,0.08,0.36,0.96,-0.67,-0.67,-0.62,11.42,13.84,41.35,0.24,0.2,0.95,-0.7,2.34,0.08
175,1900-01-01 17:39:42.866,21.24,5.71,27.69,0.1,0.36,0.91,-0.49,-0.29,-0.62,12.27,12.93,41.35,0.21,0.2,0.89,-2.08,0.7,0.1
176,1900-01-01 17:39:42.983,19.98,3.91,27.75,0.07,0.34,0.95,-1.34,0.08,-1.08,10.36,13.17,41.36,0.22,0.18,0.94,-1.13,1.66,-0.21
177,1900-01-01 17:39:42.983,21.95,6.29,27.75,0.11,0.38,0.93,0.82,-1.86,-0.98,13.09,12.29,41.32,0.2,0.22,0.91,-1.19,1.57,-0.92
178,1900-01-01 17:39:43.023,19.41,4.09,27.75,0.07,0.33,0.92,-1.92,1.62,-1.24,10.08,12.8,41.17,0.21,0.17,0.92,-1.6,0.59,0.74
179,1900-01-01 17:39:43.096,20.64,5.79,27.72,0.1,0.36,0.96,0.02,-1.15,-0.98,12.84,13.52,41.28,0.23,0.22,0.95,-1.02,3.01,0.01
180,1900-01-01 17:39:43.221,20.29,5.12,27.73,0.09,0.33,0.9,-0.85,0.56,-0.54,11.75,11.98,41.27,0.19,0.19,0.89,-2.16,0.5,0.95
181,1900-01-01 17:39:43.257,19.39,4.25,27.81,0.07,0.33,0.94,-1.21,0.62,-0.88,10.53,13.27,41.41,0.23,0.18,0.94,-0.54,0.99,0.69
182,1900-01-01 17:39:43.334,21.36,6.42,27.83,0.12,0.38,0.95,1.09,-2.98,0.31,11.87,13.16,41.5,0.23,0.2,0.94,-0.76,2.25,-1.06
183,1900-01-01 17:39:43.449,19.69,4.34,28.04,0.07,0.33,0.91,-1.56,0.77,-0.77,10.2,12.19,41.33,0.19,0.16,0.88,-0.95,0.64,0.44
184,1900-01-01 17:39:43.492,20.52,4.76,28.08,0.09,0.37,0.97,-0.48,-0.27,-0.58,11.39,13.11,41.39,0.23,0.2,0.96,-1.01,2.51,0.23
185,1900-01-01 17:39:43.690,21.56,6.14,28.15,0.1,0.35,0.88,0.56,0.14,-1.45,13.38,12.01,41.42,0.19,0.21,0.87,-0.83,-0.05,-0.18
186,1900-01-01 17:39:43.690,19.36,3.73,28.09,0.07,0.34,0.96,-1.93,1.05,-1.34,9.56,13.57,41.38,0.24,0.17,0.96,-0.67,0.76,0.1
187,1900-01-01 17:39:43.728,21.33,6.8,28.04,0.12,0.37,0.95,1.15,-3.65,-0.16,12.68,13.01,41.39,0.22,0.22,0.93,-1.47,3.13,-1.2
188,1900-01-01 17:39:43.830,20.09,4.38,28.18,0.07,0.33,0.9,-2.03,0.93,-0.85,10.55,11.87,41.2,0.19,0.17,0.89,-2.67,0.24,0.43
189,1900-01-01 17:39:43.933,20.3,5.36,28.21,0.1,0.36,0.97,-0.58,-1.13,-1.02,11.81,13.73,41.25,0.24,0.21,0.96,-1.06,3.18,0.24
190,1900-01-01 17:39:43.933,20.71,6.08,28.21,0.1,0.34,0.89,-0.26,0.2,-1.27,11.89,12.15,41.28,0.19,0.19,0.88,-1.27,0.39,-0.24
191,1900-01-01 17:39:44.051,19.73,4.35,28.17,0.08,0.34,0.95,-1.26,0.44,-1.22,10.18,13.38,41.24,0.23,0.18,0.96,-0.14,1.37,-0.26
192,1900-01-01 17:39:44.102,21.65,6.61,28.15,0.12,0.37,0.93,0.82,-2.12,-0.86,12.3,12.14,41.19,0.2,0.2,0.91,-0.98,1.34,-0.83
193,1900-01-01 17:39:44.159,19.82,3.77,28.17,0.06,0.33,0.91,-2.08,2.1,-1.71,10.11,11.74,41.05,0.19,0.17,0.91,-1.59,0.18,0.6
194,1900-01-01 17:39:44.277,20.83,6.15,28.07,0.11,0.37,0.97,-0.06,-1.05,-1.02,12.82,14.05,41.14,0.25,0.23,0.96,-0.82,2.69,0.09
195,1900-01-01 17:39:44.336,21.09,5.22,28.07,0.09,0.34,0.88,0.71,-0.81,-1.08,12.11,10.91,41.14,0.17,0.19,0.87,-1.88,1.26,-0.59
196,1900-01-01 17:39:44.401,20.02,4.42,28.07,0.08,0.35,0.95,-0.42,0.73,-1.53,10.88,12.89,41.04,0.22,0.19,0.95,-0.56,0.61,0.05
197,1900-01-01 17:39:44.529,20.9,6.4,27.99,0.11,0.37,0.96,-0.12,-2.17,-0.26,11.81,13.17,41.04,0.22,0.2,0.94,-1.92,3.05,-0.87
198,1900-01-01 17:39:44.613,20.61,3.96,28.11,0.07,0.34,0.9,-1.84,1.04,-1.21,10.67,10.97,40.9,0.18,0.17,0.91,-1.74,0.21,0.5
199,1900-01-01 17:39:44.662,20.47,5.9,28.09,0.11,0.36,0.97,-0.37,-0.8,-0.9,12.43,13.25,40.97,0.23,0.22,0.95,-1.18,2.32,0.47
200,1900-01-01 17:39:44.736,20.9,5.62,28.11,0.09,0.34,0.89,-0.14,-0.11,-1.08,11.48,10.86,41.03,0.17,0.18,0.89,-1.66,0.31,-0.3
201,1900-01-01 17:39:44.800,19.9,4.21,28.1,0.08,0.35,0.96,-1.72,1.02,-1.49,10.94,13.23,40.98,0.23,0.19,0.96,-0.49,0.56,0.5
202,1900-01-01 17:39:44.846,21.27,6.58,28.03,0.12,0.37,0.94,1.01,-2.39,-0.5,12.4,12.26,41.04,0.21,0.21,0.92,-1.95,2.42,-0.64
203,1900-01-01 17:39:44.961,19.71,3.7,28.12,0.06,0.33,0.92,-1.78,1.3,-1.19,10.03,11.67,40.94,0.19,0.17,0.92,-0.44,0.34,0.56
204,1900-01-01 17:39:45.032,20.81,6.4,28.09,0.11,0.37,0.96,-0.27,-1.11,-0.74,12.42,13.56,41.02,0.23,0.22,0.95,-1.75,1.81,0.22
205,1900-01-01 17:39:45.079,20.61,4.64,28.14,0.08,0.34,0.89,-1.08,0.68,-1.06,11.04,11.28,41.04,0.18,0.18,0.89,-1.95,0.5,-0.18
206,1900-01-01 17:39:45.191,20.54,5.24,28.13,0.09,0.36,0.96,-0.16,-0.37,-1.18,12.06,13.4,41.0,0.23,0.21,0.95,-0.57,1.49,-0.02
207,1900-01-01 17:39:45.265,21.33,5.61,28.11,0.1,0.36,0.92,0.16,-0.75,-0.92,12.08,11.67,40.99,0.19,0.2,0.91,-1.94,1.41,-0.13
208,1900-01-01 17:39:45.312,20.03,4.36,28.13,0.07,0.34,0.92,-1.05,1.37,-1.45,11.22,12.27,40.96,0.21,0.19,0.93,-0.36,0.35,0.44
209,1900-01-01 17:39:45.416,20.68,6.33,28.07,0.11,0.36,0.95,-0.05,-1.54,-0.53,12.45,13.31,41.02,0.23,0.21,0.94,-1.95,2.47,-0.2
210,1900-01-01 17:39:45.498,20.47,4.1,28.15,0.07,0.34,0.9,-0.84,0.66,-1.14,10.98,11.07,40.98,0.18,0.18,0.9,-2.17,0.71,0.0
211,1900-01-01 17:39:45.545,20.65,5.2,28.13,0.09,0.36,0.95,-0.47,-0.14,-1.19,12.33,13.21,40.97,0.23,0.21,0.95,-0.95,1.4,0.04
212,1900-01-01 17:39:45.644,20.98,5.52,28.11,0.1,0.36,0.93,1.03,-2.37,-0.57,11.71,11.91,40.97,0.2,0.19,0.91,-1.58,1.81,-0.91
213,1900-01-01 17:39:45.685,20.09,4.41,28.18,0.08,0.34,0.92,-1.05,0.5,-1.27,10.52,11.92,40.82,0.2,0.18,0.92,-0.05,0.53,0.21
214,1900-01-01 17:39:45.781,20.2,6.06,28.14,0.11,0.35,0.95,-0.71,-0.95,-1.29,11.84,13.33,40.85,0.23,0.2,0.94,-1.08,1.8,0.31
215,1900-01-01 17:39:45.855,20.41,5.18,28.11,0.09,0.34,0.91,0.27,-1.4,-1.67,10.44,11.48,40.89,0.19,0.17,0.91,-0.46,0.76,-0.68
216,1900-01-01 17:39:45.999,21.35,4.48,28.01,0.08,0.36,0.92,-1.72,0.89,-1.87,12.32,12.06,40.77,0.2,0.21,0.92,-0.84,-0.41,0.82
217,1900-01-01 17:39:45.999,20.62,6.11,27.88,0.11,0.37,0.97,0.37,-1.86,-0.63,12.32,13.96,40.89,0.24,0.21,0.95,-1.03,1.97,-0.97
218,1900-01-01 17:39:46.095,20.41,5.08,27.95,0.09,0.34,0.9,-1.3,0.63,-0.93,11.15,11.67,40.73,0.19,0.18,0.89,-2.2,1.2,0.49
219,1900-01-01 17:39:46.150,20.63,4.94,27.96,0.09,0.36,0.95,-1.1,0.22,-1.17,12.21,12.54,40.8,0.22,0.21,0.95,-1.06,2.23,0.45
220,1900-01-01 17:39:46.244,21.52,6.37,27.94,0.11,0.37,0.92,0.51,-0.95,-0.9,12.42,11.99,40.86,0.2,0.2,0.91,-1.48,1.11,-0.45
221,1900-01-01 17:39:46.309,20.3,4.03,27.97,0.07,0.34,0.91,-1.98,1.59,-1.53,10.61,11.74,40.78,0.19,0.18,0.92,-1.77,0.45,0.86
222,1900-01-01 17:39:46.462,20.86,6.44,27.89,0.12,0.37,0.96,-0.04,-1.72,-0.8,12.94,13.79,40.91,0.24,0.23,0.95,-1.25,2.38,-0.22
223,1900-01-01 17:39:46.462,20.56,5.27,27.93,0.09,0.34,0.89,-0.89,0.29,-1.05,11.41,11.67,40.86,0.19,0.18,0.88,-1.96,0.11,0.14
224,1900-01-01 17:39:46.539,20.78,4.41,27.92,0.08,0.36,0.96,-1.18,0.1,-1.0,11.96,12.7,40.88,0.22,0.21,0.96,-1.31,1.24,0.24
225,1900-01-01 17:39:46.662,21.49,6.74,27.93,0.12,0.37,0.93,1.32,-2.23,-0.46,12.38,12.17,40.9,0.2,0.21,0.91,-1.66,1.72,-0.61
226,1900-01-01 17:39:46.690,20.18,4.2,28.02,0.07,0.34,0.92,-1.82,0.78,-1.09,10.3,12.01,40.8,0.2,0.17,0.93,-1.67,0.55,0.6
227,1900-01-01 17:39:46.769,21.06,6.2,28.01,0.11,0.37,0.95,0.17,-1.72,-0.67,12.61,13.44,40.89,0.23,0.22,0.94,-1.46,2.24,-0.21
228,1900-01-01 17:39:46.879,20.61,5.25,28.07,0.09,0.34,0.89,-0.45,0.65,-1.16,11.61,11.9,40.85,0.19,0.19,0.88,-1.81,-0.16,0.04
229,1900-01-01 17:39:46.909,20.39,5.29,28.05,0.1,0.36,0.97,-0.34,-0.14,-1.11,11.9,13.71,40.84,0.24,0.21,0.96,-0.3,1.61,0.08
230,1900-01-01 17:39:46.993,21.74,5.99,28.04,0.1,0.37,0.92,0.24,-1.46,-0.53,11.88,11.72,40.85,0.19,0.2,0.91,-1.91,1.6,-0.46
231,1900-01-01 17:39:47.109,20.16,4.33,28.12,0.07,0.34,0.92,-1.4,0.05,-0.78,9.84,12.47,40.77,0.21,0.17,0.93,-0.72,0.79,0.34
232,1900-01-01 17:39:47.144,21.69,6.56,28.16,0.12,0.38,0.94,0.49,-1.67,-0.52,12.79,12.76,40.81,0.22,0.22,0.93,-0.62,1.41,0.09
233,1900-01-01 17:39:47.218,20.71,5.44,28.24,0.09,0.35,0.91,-1.53,1.98,-1.21,11.22,12.73,40.82,0.21,0.19,0.91,-1.63,-0.14,1.18
234,1900-01-01 17:39:47.335,20.99,6.01,28.21,0.11,0.37,0.96,0.2,-0.92,-1.12,12.95,13.61,40.99,0.23,0.22,0.94,-0.75,2.44,0.06
235,1900-01-01 17:39:47.371,21.5,6.0,28.2,0.1,0.36,0.91,0.08,-1.12,-1.07,11.83,11.43,40.99,0.19,0.19,0.89,-1.85,1.18,-0.93
236,1900-01-01 17:39:47.662,20.02,4.29,28.19,0.07,0.34,0.93,-2.34,1.09,-1.37,10.3,12.66,40.84,0.21,0.18,0.94,-1.12,0.81,0.26
237,1900-01-01 17:39:47.662,21.06,6.81,28.14,0.12,0.37,0.94,-0.15,-1.62,-0.85,12.83,13.57,40.87,0.23,0.22,0.94,-1.82,2.63,-0.25
238,1900-01-01 17:39:47.662,20.68,5.16,28.17,0.09,0.34,0.9,-0.63,0.14,-0.86,11.59,11.42,40.82,0.18,0.19,0.89,-1.6,0.69,-0.03
239,1900-01-01 17:39:47.662,20.0,5.11,28.2,0.09,0.34,0.94,-0.69,0.69,-1.49,11.1,13.12,40.81,0.22,0.19,0.94,0.3,0.84,0.27
240,1900-01-01 17:39:47.778,20.92,6.83,28.13,0.12,0.37,0.95,-0.15,-1.51,-0.41,12.38,13.14,40.84,0.22,0.21,0.94,-1.79,2.56,-0.11
241,1900-01-01 17:39:47.831,20.56,4.53,28.23,0.08,0.34,0.91,-1.66,0.8,-0.91,11.3,11.46,40.82,0.19,0.18,0.9,-2.37,1.06,0.16
242,1900-01-01 17:39:47.922,21.04,5.79,28.25,0.1,0.37,0.95,-0.48,-0.43,-1.05,12.4,13.65,40.83,0.23,0.21,0.94,-1.26,1.91,0.19
243,1900-01-01 17:39:47.997,21.11,5.92,28.25,0.1,0.35,0.91,0.03,-0.52,-1.02,11.83,11.87,40.85,0.19,0.19,0.9,-1.65,1.12,-0.18
244,1900-01-01 17:39:48.101,20.15,4.89,28.25,0.09,0.34,0.94,-0.75,0.5,-1.14,10.91,12.68,40.82,0.21,0.18,0.93,-0.83,0.98,0.09
245,1900-01-01 17:39:48.214,21.1,6.25,28.23,0.11,0.37,0.94,-0.39,-1.11,-0.82,12.16,12.95,40.82,0.22,0.21,0.93,-2.13,2.14,-0.02
246,1900-01-01 17:39:48.214,20.67,4.9,28.27,0.08,0.34,0.91,-0.92,0.54,-1.18,10.82,11.67,40.81,0.19,0.18,0.9,-2.11,0.82,-0.17
247,1900-01-01 17:39:48.327,20.39,5.58,28.25,0.1,0.35,0.95,-0.72,0.27,-1.34,11.51,13.29,40.78,0.23,0.2,0.94,-0.65,1.1,0.11
248,1900-01-01 17:39:48.356,21.22,6.08,28.2,0.11,0.36,0.93,0.02,-1.79,-0.62,11.74,12.41,40.79,0.21,0.2,0.93,-1.37,1.73,-0.37
249,1900-01-01 17:39:48.519,20.93,4.52,28.26,0.08,0.35,0.91,-0.97,0.79,-1.15,10.59,11.29,40.72,0.18,0.17,0.91,-1.73,0.19,0.26
250,1900-01-01 17:39:48.519,20.83,5.49,28.25,0.1,0.36,0.95,-0.27,-0.63,-1.22,11.87,13.18,40.75,0.23,0.21,0.95,-0.38,1.28,-0.02
251,1900-01-01 17:39:48.584,21.52,6.34,28.22,0.11,0.37,0.93,0.87,-1.76,-0.66,11.71,11.95,40.74,0.2,0.19,0.92,-1.52,1.43,-0.4
252,1900-01-01 17:39:48.677,19.9,4.3,28.28,0.07,0.33,0.92,-1.8,1.66,-1.5,10.32,12.18,40.67,0.2,0.17,0.92,-1.02,0.18,0.77
253,1900-01-01 17:39:48.772,21.33,6.5,28.21,0.12,0.37,0.95,0.02,-1.21,-1.06,12.92,13.84,40.78,0.24,0.22,0.93,-1.08,1.98,0.03
254,1900-01-01 17:39:48.870,20.76,5.31,28.21,0.09,0.34,0.9,0.34,-0.46,-0.92,11.44,11.06,40.78,0.18,0.19,0.9,-1.46,1.0,-0.17
255,1900-01-01 17:39:48.907,20.16,4.95,28.22,0.09,0.35,0.94,-1.29,0.89,-1.4,11.07,13.09,40.74,0.22,0.19,0.95,-0.81,0.5,0.34
256,1900-01-01 17:39:48.992,21.36,6.27,28.17,0.11,0.37,0.94,-0.28,-1.77,-0.54,11.98,12.74,40.79,0.22,0.2,0.93,-1.88,2.09,-0.66
257,1900-01-01 17:39:49.084,20.64,4.57,28.25,0.08,0.34,0.9,-0.98,0.86,-1.15,10.67,11.31,40.68,0.18,0.17,0.9,-1.28,0.02,0.31
258,1900-01-01 17:39:49.194,20.59,5.93,28.23,0.11,0.36,0.96,-0.08,-0.51,-1.21,11.98,13.76,40.72,0.24,0.21,0.95,0.04,1.34,0.25
259,1900-01-01 17:39:49.194,21.68,5.57,28.2,0.1,0.37,0.92,0.37,-1.37,-0.57,11.53,11.88,40.74,0.2,0.19,0.91,-1.73,1.7,-0.47
260,1900-01-01 17:39:49.301,20.17,4.42,28.28,0.08,0.34,0.93,-1.12,0.5,-1.21,11.09,12.31,40.67,0.21,0.19,0.93,-0.98,0.6,0.27
261,1900-01-01 17:39:49.373,21.03,6.44,28.25,0.11,0.36,0.94,-0.08,-1.31,-0.92,12.45,13.46,40.7,0.23,0.21,0.93,-1.19,1.95,-0.17
262,1900-01-01 17:39:49.421,20.75,5.11,28.27,0.09,0.35,0.91,-0.74,0.31,-1.05,11.17,12.13,40.66,0.2,0.18,0.91,-1.28,0.86,-0.13
263,1900-01-01 17:39:49.522,21.2,5.72,28.27,0.1,0.37,0.94,-0.41,-0.47,-0.81,12.46,13.04,40.64,0.22,0.21,0.93,-1.05,1.51,0.47
264,1900-01-01 17:39:49.625,21.35,5.56,28.3,0.1,0.36,0.92,-0.02,-0.54,-0.95,12.0,11.89,40.7,0.2,0.2,0.91,-1.92,1.79,-0.2
265,1900-01-01 17:39:49.722,20.2,5.07,28.31,0.09,0.34,0.93,-1.36,1.0,-1.41,11.17,12.78,40.66,0.21,0.19,0.93,-0.85,0.56,0.37
266,1900-01-01 17:39:49.722,20.97,6.47,28.26,0.11,0.36,0.94,-0.08,-1.41,-0.79,12.13,13.68,40.71,0.23,0.21,0.93,-1.86,1.98,-0.47
267,1900-01-01 17:39:49.840,20.88,5.09,28.3,0.09,0.35,0.9,-0.68,0.44,-1.29,11.07,11.69,40.63,0.19,0.18,0.9,-1.69,0.68,-0.35
268,1900-01-01 17:39:49.887,20.68,5.57,28.26,0.1,0.36,0.95,-0.84,0.02,-1.27,11.94,13.23,40.57,0.23,0.2,0.94,-0.8,1.26,0.17
269,1900-01-01 17:39:49.980,20.72,5.96,28.22,0.11,0.36,0.94,-0.58,-1.73,-0.24,11.43,12.63,40.58,0.21,0.19,0.94,-1.77,2.72,-0.51
270,1900-01-01 17:39:50.056,20.96,4.7,28.34,0.08,0.34,0.9,-1.02,0.82,-1.26,10.79,10.82,40.5,0.18,0.18,0.91,-1.82,0.67,-0.05
271,1900-01-01 17:39:50.122,20.48,5.76,28.31,0.1,0.36,0.95,-0.62,-0.08,-1.34,11.95,13.33,40.48,0.23,0.21,0.95,-0.65,0.96,0.1
272,1900-01-01 17:39:50.173,21.09,6.0,28.26,0.1,0.36,0.93,0.29,-2.15,-0.33,11.13,12.31,40.49,0.21,0.19,0.93,-1.62,1.98,-0.61
273,1900-01-01 17:39:50.291,20.6,4.52,28.37,0.08,0.34,0.91,-1.6,0.78,-1.24,10.64,11.91,40.39,0.2,0.18,0.92,-0.86,0.11,0.4
274,1900-01-01 17:39:50.355,21.13,6.62,28.34,0.12,0.37,0.95,-0.03,-0.9,-0.97,12.73,13.74,40.44,0.23,0.22,0.93,-1.0,1.6,0.4
275,1900-01-01 17:39:50.490,21.12,5.81,28.35,0.1,0.35,0.91,0.3,-0.78,-0.66,11.28,11.48,40.49,0.19,0.18,0.9,-1.92,1.5,-0.14
276,1900-01-01 17:39:50.490,20.49,5.09,28.41,0.09,0.35,0.93,-1.49,0.92,-1.29,10.96,12.9,40.46,0.22,0.19,0.94,-0.98,0.98,0.44
277,1900-01-01 17:39:50.579,21.91,6.48,28.37,0.11,0.38,0.93,0.02,-1.44,-0.6,12.35,12.4,40.52,0.21,0.21,0.93,-2.13,1.57,-0.18
278,1900-01-01 17:39:50.701,20.49,4.68,28.44,0.08,0.34,0.91,-1.13,0.61,-1.01,10.52,11.68,40.48,0.19,0.17,0.91,-1.12,0.58,0.12
279,1900-01-01 17:39:50.806,21.01,6.3,28.45,0.11,0.37,0.95,-0.49,-0.66,-0.99,12.46,13.64,40.49,0.23,0.21,0.93,-1.44,1.76,0.38
280,1900-01-01 17:39:50.806,21.18,5.56,28.45,0.09,0.35,0.91,-0.39,-0.18,-0.85,11.03,11.48,40.54,0.19,0.18,0.9,-2.1,1.06,0.01
281,1900-01-01 17:39:50.906,20.43,4.83,28.48,0.08,0.35,0.94,-1.24,0.6,-1.46,10.93,12.8,40.54,0.22,0.19,0.94,-0.69,0.64,-0.08
282,1900-01-01 17:39:51.123,21.03,6.35,28.42,0.11,0.36,0.94,0.92,-2.73,-1.02,13.0,13.07,40.52,0.22,0.22,0.94,-0.73,2.05,-0.8
283,1900-01-01 17:39:51.123,20.62,5.25,28.42,0.09,0.34,0.91,-0.84,0.44,-1.33,11.48,11.4,40.38,0.19,0.19,0.9,-1.65,0.85,0.12
284,1900-01-01 17:39:51.123,20.48,5.53,28.38,0.1,0.36,0.95,-1.0,0.63,-1.18,11.5,13.0,40.39,0.22,0.2,0.94,-1.62,1.73,0.45
285,1900-01-01 17:39:51.199,21.64,6.32,28.36,0.11,0.37,0.92,0.18,-1.19,-0.63,11.79,12.15,40.45,0.2,0.2,0.92,-1.98,1.71,-0.45
286,1900-01-01 17:39:51.245,20.53,4.65,28.42,0.08,0.35,0.92,-1.28,1.2,-1.14,10.29,11.98,40.38,0.2,0.17,0.93,-1.63,0.54,0.45
287,1900-01-01 17:39:51.338,21.17,6.24,28.41,0.11,0.37,0.95,-0.18,-0.78,-1.02,12.38,13.23,40.44,0.23,0.21,0.94,-1.14,2.28,0.28
288,1900-01-01 17:39:51.432,21.33,5.67,28.41,0.1,0.36,0.91,0.21,-0.44,-0.87,11.18,11.18,40.47,0.18,0.18,0.9,-1.6,1.22,-0.16
289,1900-01-01 17:39:51.534,20.48,4.96,28.43,0.09,0.35,0.92,-1.56,1.27,-1.34,10.75,12.47,40.44,0.21,0.18,0.93,-0.53,0.21,0.49
290,1900-01-01 17:39:51.569,20.84,6.63,28.39,0.12,0.36,0.95,0.21,-1.71,-0.76,11.85,13.05,40.5,0.22,0.2,0.94,-1.06,2.06,-0.37
291,1900-01-01 17:39:51.645,20.53,4.93,28.43,0.08,0.34,0.91,-0.6,0.19,-0.95,10.64,11.66,40.44,0.19,0.17,0.9,-1.15,0.87,0.0
292,1900-01-01 17:39:51.761,20.82,5.54,28.45,0.1,0.36,0.95,-0.74,0.15,-1.24,11.63,13.12,40.43,0.23,0.2,0.95,-0.92,1.08,0.18
293,1900-01-01 17:39:51.855,21.46,6.06,28.42,0.11,0.37,0.93,0.32,-1.34,-0.79,11.41,12.17,40.45,0.2,0.19,0.92,-1.32,1.31,-0.41
294,1900-01-01 17:39:51.855,20.3,4.95,28.45,0.09,0.34,0.92,-1.03,0.62,-1.22,10.51,12.22,40.38,0.2,0.18,0.93,-0.4,0.84,0.18
295,1900-01-01 17:39:51.961,20.92,6.08,28.43,0.11,0.36,0.95,-0.33,-1.07,-0.9,12.01,12.93,40.4,0.22,0.2,0.94,-1.34,2.05,-0.06
296,1900-01-01 17:39:52.034,21.02,4.87,28.45,0.08,0.35,0.91,-1.16,0.58,-1.08,10.39,11.33,40.38,0.19,0.17,0.92,-1.35,0.89,-0.2
297,1900-01-01 17:39:52.081,20.91,5.82,28.44,0.1,0.36,0.95,-0.35,-0.56,-1.13,11.78,13.2,40.34,0.23,0.2,0.94,-0.71,1.21,-0.05
298,1900-01-01 17:39:52.174,21.31,5.74,28.43,0.1,0.36,0.92,0.45,-0.91,-0.92,11.63,11.95,40.32,0.2,0.19,0.91,-1.27,1.24,-0.31
299,1900-01-01 17:39:52.272,20.65,5.13,28.44,0.09,0.35,0.94,-0.82,0.28,-1.26,11.72,12.38,40.27,0.21,0.2,0.94,-0.7,0.82,0.17
300,1900-01-01 17:39:52.313,20.98,6.01,28.41,0.11,0.36,0.94,-0.36,-1.03,-0.76,11.92,12.4,40.28,0.21,0.2,0.93,-1.6,1.87,-0.01
301,1900-01-01 17:39:52.407,20.87,4.77,28.45,0.08,0.35,0.9,-1.33,1.19,-1.13,10.6,12.08,40.28,0.2,0.17,0.91,-1.63,-0.26,0.32
302,1900-01-01 17:39:52.494,21.35,6.34,28.44,0.11,0.37,0.95,0.42,-1.43,-1.15,12.78,13.43,40.32,0.23,0.22,0.94,-0.44,1.43,0.25
303,1900-01-01 17:39:52.587,21.05,5.55,28.42,0.1,0.36,0.92,0.31,-1.68,-0.77,11.29,11.47,40.35,0.19,0.19,0.91,-1.21,1.69,-0.44
304,1900-01-01 17:39:52.676,20.69,5.09,28.46,0.09,0.35,0.92,-1.44,0.79,-1.41,11.41,12.48,40.27,0.21,0.19,0.92,-1.14,0.66,0.4
305,1900-01-01 17:39:52.709,21.43,6.43,28.41,0.11,0.37,0.94,-0.6,-0.37,-1.04,12.35,13.23,40.32,0.22,0.21,0.93,-1.4,1.13,0.33
306,1900-01-01 17:39:52.807,20.9,5.42,28.41,0.09,0.36,0.93,-0.85,-0.88,-0.69,11.99,12.99,40.36,0.22,0.2,0.93,-1.72,2.52,-0.15
307,1900-01-01 17:39:52.879,22.13,6.27,28.46,0.11,0.37,0.9,0.7,-0.52,-1.35,12.64,11.34,40.33,0.18,0.2,0.89,-1.79,0.97,-0.45
308,1900-01-01 17:39:52.926,19.95,4.94,28.41,0.09,0.34,0.94,-1.53,1.14,-1.16,10.38,12.78,40.26,0.22,0.18,0.94,-1.21,0.73,0.34
309,1900-01-01 17:39:53.023,21.12,6.42,28.4,0.11,0.36,0.93,-0.52,-0.05,-1.19,12.15,12.74,40.3,0.21,0.2,0.92,-1.68,1.03,0.13
310,1900-01-01 17:39:53.116,21.1,5.29,28.37,0.09,0.36,0.92,-0.8,0.32,-1.0,11.47,11.98,40.31,0.2,0.19,0.92,-1.37,0.29,0.15
311,1900-01-01 17:39:53.165,20.84,5.99,28.38,0.11,0.36,0.94,-0.78,-0.05,-0.89,11.4,13.23,40.32,0.22,0.19,0.93,-1.38,0.79,0.22
312,1900-01-01 17:39:53.230,20.76,5.73,28.4,0.1,0.35,0.93,-0.67,-0.62,-1.14,11.88,13.13,40.35,0.22,0.2,0.91,-0.1,2.08,-0.24
313,1900-01-01 17:39:53.313,21.08,5.87,28.39,0.1,0.36,0.92,0.45,-0.29,-1.08,11.65,11.98,40.3,0.2,0.19,0.91,-1.75,1.47,-0.26
314,1900-01-01 17:39:53.393,20.54,5.13,28.38,0.09,0.35,0.94,-1.34,0.68,-1.1,11.51,12.51,40.26,0.21,0.2,0.94,-2.16,0.6,0.66
315,1900-01-01 17:39:53.525,20.99,6.03,28.37,0.11,0.36,0.93,-0.47,-0.18,-1.05,11.67,13.03,40.35,0.22,0.2,0.92,-1.18,1.08,0.07
316,1900-01-01 17:39:53.525,20.91,5.24,28.37,0.09,0.36,0.93,-0.66,0.11,-0.92,11.07,12.53,40.35,0.21,0.19,0.92,-1.3,0.98,-0.05
317,1900-01-01 17:39:53.605,21.38,5.07,28.39,0.09,0.37,0.93,-0.19,-0.31,-0.76,11.61,12.19,40.33,0.21,0.2,0.93,-1.42,0.37,0.2
318,1900-01-01 17:39:53.738,21.86,3.0,28.43,0.05,0.37,0.92,1.29,-1.08,0.04,11.53,10.92,40.36,0.18,0.19,0.91,0.56,0.23,0.35
319,1900-01-01 17:39:53.770,20.6,5.85,28.6,0.1,0.36,0.94,-0.78,0.11,-0.52,10.77,13.87,40.4,0.24,0.18,0.94,0.4,1.76,0.59
320,1900-01-01 17:39:53.858,21.16,6.48,28.68,0.11,0.36,0.92,0.66,-0.45,-1.18,12.56,13.72,40.48,0.23,0.21,0.9,0.08,0.83,-0.34
321,1900-01-01 17:39:53.905,20.97,6.22,28.66,0.11,0.36,0.94,-1.04,-0.17,-1.06,12.42,13.65,40.42,0.23,0.21,0.93,-1.36,1.27,0.05
322,1900-01-01 17:39:54.039,20.87,6.58,28.65,0.11,0.35,0.92,-0.22,-0.09,-1.39,12.38,14.36,40.42,0.24,0.21,0.9,-0.58,1.33,0.05
323,1900-01-01 17:39:54.078,21.4,5.64,28.6,0.1,0.37,0.93,-0.58,-0.06,-1.14,12.12,12.82,40.42,0.21,0.2,0.91,-1.18,1.41,0.41
324,1900-01-01 17:39:54.165,21.52,5.14,28.58,0.09,0.37,0.93,-1.6,0.46,-1.13,12.12,12.96,40.47,0.22,0.2,0.92,-2.27,1.37,0.66
325,1900-01-01 17:39:54.232,21.38,5.81,28.57,0.1,0.37,0.93,-1.34,0.15,-0.87,12.73,12.98,40.56,0.22,0.21,0.92,-3.18,1.54,0.37
326,1900-01-01 17:39:54.326,20.5,5.34,28.6,0.09,0.35,0.92,-0.66,-0.43,-0.93,11.47,12.92,40.61,0.21,0.19,0.91,-0.74,1.53,-0.16
327,1900-01-01 17:39:54.370,21.02,5.2,28.61,0.09,0.36,0.93,-0.39,-0.78,-0.82,11.93,12.93,40.58,0.22,0.2,0.93,-0.59,1.61,-0.37
328,1900-01-01 17:39:54.463,21.27,5.59,28.64,0.1,0.36,0.92,0.42,-1.18,-1.14,12.48,12.16,40.51,0.2,0.21,0.91,-1.29,1.59,-0.66
329,1900-01-01 17:39:54.588,20.88,5.17,28.63,0.09,0.36,0.93,-1.61,0.63,-1.02,11.43,12.95,40.41,0.22,0.19,0.93,-2.82,0.79,0.23
330,1900-01-01 17:39:54.623,21.15,5.95,28.63,0.1,0.36,0.93,-1.18,-0.07,-0.69,12.06,12.91,40.43,0.22,0.2,0.92,-2.72,1.21,0.29
331,1900-01-01 17:39:54.671,21.06,5.37,28.69,0.09,0.36,0.93,-0.75,-0.29,-0.79,11.42,12.44,40.47,0.21,0.19,0.93,-2.18,1.33,-0.06
332,1900-01-01 17:39:54.742,20.72,5.32,28.72,0.09,0.36,0.94,-1.5,-0.44,-0.55,9.92,13.49,40.45,0.23,0.17,0.94,-4.08,1.54,-1.74
333,1900-01-01 17:39:54.844,18.95,2.75,28.8,0.05,0.33,0.97,0.05,-2.19,-1.96,5.95,10.91,40.18,0.2,0.11,1.02,-0.44,1.18,-2.43
334,1900-01-01 17:39:54.928,19.73,0.34,28.66,0.01,0.36,1.01,10.56,-11.66,-2.5,4.31,6.8,39.8,0.14,0.09,1.21,25.64,-26.47,-4.4
335,1900-01-01 17:39:54.976,16.47,3.13,28.44,0.06,0.29,0.99,1.6,-28.82,-10.54,3.62,16.41,39.12,0.29,0.06,0.98,8.69,-59.74,-27.38
336,1900-01-01 17:39:55.048,18.97,9.57,26.98,0.17,0.33,0.96,-21.34,-29.71,-19.4,13.75,26.63,34.9,0.43,0.23,0.82,-28.24,-86.38,-41.98
337,1900-01-01 17:39:55.142,17.66,16.05,24.12,0.27,0.3,0.9,-22.09,-25.66,-30.1,21.8,37.08,28.38,0.52,0.32,0.61,-35.57,-72.89,-51.54
338,1900-01-01 17:39:55.209,19.66,19.98,19.6,0.33,0.33,0.85,-21.32,-20.15,-34.25,22.18,52.04,20.35,0.67,0.32,0.41,-49.02,-25.94,-63.63
339,1900-01-01 17:39:55.304,22.13,20.13,14.43,0.33,0.36,0.83,4.79,-12.63,-28.34,35.27,30.17,10.45,0.45,0.52,0.58,-32.13,26.26,-54.21
340,1900-01-01 17:39:55.397,28.02,21.12,10.21,0.34,0.44,0.75,6.79,0.49,-15.71,32.13,19.99,2.06,0.32,0.49,0.71,-16.35,26.69,-23.66
341,1900-01-01 17:39:55.444,20.43,15.93,7.96,0.28,0.35,0.91,3.17,2.87,-9.54,25.29,24.81,-1.57,0.46,0.47,0.88,11.3,4.93,4.76
342,1900-01-01 17:39:55.537,27.42,16.31,6.67,0.31,0.51,0.93,1.11,-1.11,-3.09,22.18,30.42,-0.86,0.52,0.38,0.79,6.52,-2.31,18.03
343,1900-01-01 17:39:55.584,20.01,15.86,6.35,0.28,0.35,0.92,8.62,-3.79,-3.73,22.9,32.51,1.88,0.53,0.39,0.74,8.59,3.02,2.56
344,1900-01-01 17:39:55.699,22.64,15.62,5.95,0.27,0.39,0.89,5.26,-2.11,-3.18,25.95,29.24,2.26,0.49,0.44,0.75,8.41,2.34,2.25
345,1900-01-01 17:39:55.771,24.24,14.22,5.63,0.24,0.41,0.87,-0.24,-0.82,-1.68,24.65,28.62,2.59,0.47,0.41,0.76,2.19,-3.76,6.21
346,1900-01-01 17:39:55.817,21.02,11.61,5.53,0.21,0.37,0.93,-1.18,-2.15,-2.75,20.16,33.36,3.53,0.54,0.34,0.75,7.44,2.13,2.73
347,1900-01-01 17:39:55.909,25.15,14.02,5.27,0.24,0.43,0.88,1.56,-3.34,-2.19,25.76,29.89,3.93,0.49,0.43,0.74,2.95,-2.06,2.35
348,1900-01-01 17:39:56.004,24.46,15.51,5.1,0.27,0.43,0.89,3.02,-5.54,-1.95,23.92,32.38,4.28,0.54,0.41,0.74,4.17,-2.94,-3.6
349,1900-01-01 17:39:56.052,26.2,16.66,4.96,0.29,0.45,0.87,3.82,-7.55,-1.13,27.52,33.47,3.72,0.54,0.45,0.68,4.62,-3.63,-4.01
350,1900-01-01 17:39:56.144,23.56,19.1,4.95,0.33,0.4,0.87,0.5,-6.79,-2.66,28.22,35.27,3.11,0.57,0.46,0.65,1.75,-1.34,-3.45
351,1900-01-01 17:39:56.196,24.31,20.74,4.7,0.36,0.42,0.86,-1.03,-5.53,-4.24,28.52,35.73,2.57,0.59,0.48,0.66,-2.53,-2.6,-3.42
352,1900-01-01 17:39:56.300,24.88,20.09,4.21,0.35,0.43,0.86,2.11,-5.76,-4.54,28.86,34.25,2.04,0.56,0.48,0.67,0.65,2.01,-7.38
353,1900-01-01 17:39:56.377,26.43,20.13,3.68,0.35,0.45,0.83,1.19,-5.79,-3.53,31.73,31.89,0.91,0.52,0.52,0.66,1.81,0.73,-5.2
354,1900-01-01 17:39:56.447,26.32,20.6,3.3,0.34,0.43,0.81,3.24,-5.95,-3.97,30.61,31.36,0.11,0.5,0.49,0.66,2.13,1.71,-6.45
355,1900-01-01 17:39:56.551,27.16,20.21,2.86,0.34,0.45,0.81,-0.99,-5.41,-3.68,31.41,31.83,-0.87,0.5,0.5,0.64,1.34,-1.05,-3.11
356,1900-01-01 17:39:56.589,28.28,21.46,2.45,0.37,0.47,0.8,3.46,-4.55,-2.92,35.83,29.19,-1.36,0.48,0.57,0.63,1.67,2.06,-4.44
357,1900-01-01 17:39:56.657,28.14,21.9,2.17,0.37,0.47,0.79,-0.24,-1.52,-1.89,36.84,29.1,-2.04,0.47,0.57,0.61,0.19,3.81,-0.99
358,1900-01-01 17:39:56.749,29.4,20.53,2.04,0.34,0.48,0.78,-3.93,2.95,1.04,30.99,28.95,-2.2,0.47,0.5,0.68,-7.84,-2.81,6.63
359,1900-01-01 17:39:56.845,29.14,20.16,2.36,0.34,0.48,0.79,1.38,2.67,2.06,35.22,28.02,-1.2,0.46,0.56,0.65,-3.74,2.68,2.48
360,1900-01-01 17:39:56.892,26.25,21.55,2.83,0.37,0.44,0.82,-4.78,4.18,2.55,30.64,33.87,-0.83,0.55,0.5,0.64,-1.89,-0.17,7.21
361,1900-01-01 17:39:56.984,25.28,20.25,3.37,0.36,0.44,0.87,4.61,0.83,2.5,30.97,31.7,0.25,0.54,0.53,0.7,1.05,5.48,2.27
362,1900-01-01 17:39:57.031,29.62,20.31,3.91,0.35,0.5,0.81,1.19,2.84,4.47,34.61,29.36,0.59,0.49,0.57,0.66,-1.98,3.9,7.44
363,1900-01-01 17:39:57.103,24.87,20.34,4.74,0.35,0.42,0.84,2.73,3.25,4.44,27.05,34.52,1.7,0.55,0.44,0.67,-1.09,2.19,5.74
364,1900-01-01 17:39:57.187,26.96,20.85,5.57,0.36,0.46,0.83,-5.98,2.22,3.69,26.47,36.88,2.56,0.57,0.42,0.63,-0.95,0.08,5.2
365,1900-01-01 17:39:57.265,23.36,23.49,6.29,0.41,0.41,0.85,-1.99,1.6,0.75,27.85,35.66,3.34,0.6,0.48,0.68,-2.43,0.1,3.2
366,1900-01-01 17:39:57.358,23.84,23.69,6.56,0.41,0.42,0.85,2.44,-0.62,0.45,27.72,37.14,3.82,0.61,0.47,0.65,-0.1,-0.24,-2.33
367,1900-01-01 17:39:57.416,22.98,23.4,6.79,0.4,0.39,0.83,-2.23,-1.5,-2.11,28.11,38.41,3.45,0.6,0.46,0.61,0.55,-3.25,-1.05
368,1900-01-01 17:39:57.497,24.08,25.08,6.63,0.43,0.41,0.82,-0.25,0.32,-5.4,31.55,36.26,3.29,0.57,0.51,0.59,0.9,9.85,-5.74
369,1900-01-01 17:39:57.591,29.8,22.15,5.96,0.39,0.51,0.8,4.1,2.08,-2.86,31.4,28.39,2.41,0.49,0.53,0.73,0.4,0.95,-1.66
370,1900-01-01 17:39:57.638,28.2,15.3,5.69,0.26,0.47,0.84,0.5,-2.43,-1.03,28.54,28.9,2.15,0.47,0.47,0.71,3.94,0.89,-3.67
371,1900-01-01 17:39:57.734,27.67,18.18,5.69,0.3,0.45,0.81,-0.08,-0.64,-1.41,31.47,29.37,1.58,0.47,0.5,0.67,-0.5,1.82,-1.43
372,1900-01-01 17:39:57.827,26.54,18.48,5.63,0.33,0.46,0.86,-0.69,0.34,-1.39,29.75,33.07,1.35,0.55,0.5,0.68,-1.51,1.01,0.5
373,1900-01-01 17:39:57.875,26.81,21.59,5.58,0.38,0.47,0.84,-3.16,-0.56,-1.18,32.81,32.68,1.42,0.54,0.54,0.65,-4.32,3.02,1.29
374,1900-01-01 17:39:57.967,26.37,21.09,5.56,0.36,0.45,0.82,-3.16,1.62,-0.95,31.57,33.01,1.61,0.53,0.51,0.64,-6.11,2.17,1.89
375,1900-01-01 17:39:58.016,26.13,19.37,5.58,0.33,0.44,0.84,-2.89,0.89,-1.56,29.1,31.93,1.89,0.52,0.48,0.68,-3.87,2.6,-1.34
376,1900-01-01 17:39:58.136,26.95,18.81,5.5,0.32,0.45,0.83,0.63,-2.27,-0.62,30.76,30.76,1.67,0.5,0.5,0.68,-1.65,2.0,-2.76
377,1900-01-01 17:39:58.165,26.76,20.36,5.56,0.34,0.45,0.81,1.42,-1.12,-0.23,31.22,31.01,1.25,0.49,0.5,0.66,-1.18,2.85,-2.78
378,1900-01-01 17:39:58.248,26.19,20.03,5.68,0.35,0.45,0.84,-0.78,-0.29,-0.61,29.87,31.89,0.81,0.52,0.49,0.68,-1.89,1.08,0.42
379,1900-01-01 17:39:58.340,25.97,20.84,5.75,0.36,0.44,0.84,0.14,0.23,-1.46,30.16,32.13,0.87,0.53,0.5,0.68,-1.36,1.56,0.08
380,1900-01-01 17:39:58.474,27.0,21.05,5.69,0.36,0.46,0.82,-0.92,0.27,-1.18,32.62,30.06,0.87,0.49,0.53,0.67,-1.06,0.83,1.07
381,1900-01-01 17:39:58.474,28.53,20.77,5.67,0.35,0.48,0.8,-3.78,2.02,0.69,35.36,27.89,1.03,0.46,0.57,0.66,-3.7,-2.67,10.26
382,1900-01-01 17:39:58.575,24.94,20.51,5.93,0.35,0.43,0.84,-8.31,5.84,3.96,26.34,36.85,2.58,0.58,0.43,0.65,-4.44,-2.48,12.5
383,1900-01-01 17:39:58.622,24.73,19.37,6.69,0.33,0.42,0.84,-5.33,5.19,3.08,29.19,33.85,4.47,0.54,0.48,0.66,-4.31,0.26,14.13
384,1900-01-01 17:39:58.731,25.6,19.69,7.32,0.35,0.44,0.86,-6.4,6.99,6.24,27.06,37.35,6.61,0.6,0.45,0.64,-2.67,0.41,15.34
385,1900-01-01 17:39:58.808,22.86,20.51,8.42,0.35,0.39,0.85,-3.04,8.79,8.16,26.8,36.28,8.93,0.59,0.45,0.66,-0.34,-1.31,13.18
386,1900-01-01 17:39:58.855,22.03,19.34,9.82,0.34,0.38,0.89,-6.49,8.29,9.92,24.07,39.59,10.93,0.62,0.4,0.63,-3.03,3.69,16.99
387,1900-01-01 17:39:58.951,21.43,17.94,11.49,0.32,0.38,0.91,-6.18,13.16,11.98,16.01,42.49,13.5,0.68,0.28,0.68,-4.47,2.24,8.89
388,1900-01-01 17:39:59.052,13.65,10.72,13.48,0.19,0.24,0.96,6.34,2.48,5.8,10.54,40.83,14.85,0.67,0.19,0.75,2.98,1.86,-5.65
389,1900-01-01 17:39:59.090,17.92,12.81,14.52,0.22,0.31,0.93,1.24,-3.34,-0.71,15.82,39.25,13.99,0.62,0.27,0.71,2.42,0.73,-0.59
390,1900-01-01 17:39:59.184,19.26,14.81,14.57,0.26,0.33,0.92,2.76,-3.6,-3.59,20.52,38.35,13.89,0.61,0.35,0.7,4.33,3.46,-4.01
391,1900-01-01 17:39:59.231,21.15,15.12,14.18,0.26,0.36,0.9,0.43,-2.66,-4.28,20.55,39.66,13.27,0.62,0.34,0.66,1.76,3.55,-5.98
392,1900-01-01 17:39:59.323,21.02,16.86,13.69,0.3,0.37,0.91,2.51,-2.76,-5.29,22.37,38.14,12.35,0.63,0.39,0.7,-1.31,3.75,-7.95
393,1900-01-01 17:39:59.417,20.14,17.16,13.04,0.3,0.35,0.9,4.98,-6.44,-8.06,21.87,38.83,11.12,0.62,0.37,0.67,4.21,5.35,-14.95
394,1900-01-01 17:39:59.465,23.63,18.9,11.96,0.32,0.4,0.86,7.45,-7.85,-9.98,28.01,34.03,8.83,0.55,0.47,0.68,3.6,0.34,-15.87
395,1900-01-01 17:39:59.557,23.8,17.57,10.6,0.31,0.42,0.89,4.49,-9.3,-10.53,28.64,33.84,6.4,0.57,0.49,0.69,2.98,-0.21,-14.64
396,1900-01-01 17:39:59.653,28.75,18.47,9.15,0.33,0.5,0.84,4.78,-10.76,-9.4,32.0,31.9,4.15,0.52,0.52,0.65,-0.47,-2.01,-13.52
397,1900-01-01 17:39:59.696,28.26,19.68,7.87,0.34,0.47,0.81,3.22,-9.65,-8.2,35.83,29.96,2.07,0.49,0.58,0.63,1.06,-2.16,-8.77
398,1900-01-01 17:39:59.791,30.77,22.01,6.78,0.38,0.52,0.78,-1.24,-5.47,-3.96,38.17,27.64,0.73,0.46,0.61,0.63,-0.79,-0.78,-1.31
399,1900-01-01 17:39:59.884,27.77,22.19,6.33,0.37,0.46,0.79,-0.51,-3.95,-1.74,34.94,31.02,0.52,0.5,0.55,0.62,-0.4,-1.55,-4.11
400,1900-01-01 17:39:59.930,28.74,22.81,6.22,0.38,0.47,0.78,-0.23,-2.98,-1.08,37.16,30.65,-0.12,0.49,0.58,0.59,-1.59,-1.63,-0.66
401,1900-01-01 17:40:00.023,28.71,21.32,6.22,0.35,0.47,0.78,-2.54,0.51,-0.04,36.21,29.15,-0.22,0.47,0.57,0.62,-4.02,-1.96,5.14
402,1900-01-01 17:40:00.123,28.51,21.14,6.37,0.35,0.47,0.79,-6.58,3.84,0.89,35.2,29.76,0.55,0.48,0.55,0.62,-4.47,-1.69,10.31
403,1900-01-01 17:40:00.163,25.41,20.51,6.66,0.36,0.44,0.85,-6.11,6.6,4.24,29.08,35.77,2.11,0.58,0.48,0.64,-8.18,1.84,9.53
404,1900-01-01 17:40:00.256,24.62,20.67,7.46,0.36,0.43,0.86,-1.81,3.57,4.19,30.22,34.34,3.55,0.58,0.52,0.67,-0.73,1.01,8.79
405,1900-01-01 17:40:00.304,22.78,21.31,8.25,0.37,0.39,0.85,-3.48,5.63,5.58,26.69,37.35,4.87,0.61,0.45,0.66,-0.73,4.92,9.32
406,1900-01-01 17:40:00.397,22.42,20.68,9.26,0.35,0.38,0.86,-1.09,3.11,3.87,28.32,36.19,6.27,0.59,0.47,0.65,1.08,3.67,7.86
407,1900-01-01 17:40:00.490,22.8,20.76,10.0,0.35,0.39,0.85,-0.68,4.21,4.38,28.0,36.1,7.45,0.58,0.47,0.65,1.47,3.74,7.89
408,1900-01-01 17:40:00.538,21.63,19.98,10.82,0.34,0.37,0.87,-0.81,3.19,4.38,27.88,37.01,8.64,0.59,0.46,0.64,1.95,3.62,7.86
409,1900-01-01 17:40:00.630,21.41,18.58,11.65,0.32,0.36,0.87,-0.4,3.89,3.76,24.76,37.24,9.82,0.6,0.41,0.67,-0.01,2.57,6.37
410,1900-01-01 17:40:00.675,19.94,16.08,12.37,0.27,0.33,0.87,2.06,1.37,0.69,22.13,37.67,10.78,0.58,0.36,0.66,1.15,1.24,0.49
411,1900-01-01 17:40:00.778,22.45,16.02,12.64,0.26,0.37,0.84,1.69,2.11,-1.53,22.67,37.22,10.84,0.57,0.36,0.66,-1.08,0.99,1.03
412,1900-01-01 17:40:00.869,21.42,16.59,12.56,0.29,0.37,0.89,0.67,2.16,-5.51,24.33,37.58,10.99,0.61,0.41,0.68,-0.5,1.27,-0.07
413,1900-01-01 17:40:00.910,23.03,19.3,11.88,0.34,0.41,0.89,-0.31,1.78,-6.53,25.43,39.67,10.97,0.64,0.43,0.64,-2.44,2.81,-1.82
414,1900-01-01 17:40:01.002,23.71,18.84,11.04,0.33,0.41,0.87,-0.16,1.76,-7.58,25.11,39.57,10.69,0.63,0.42,0.63,-3.6,3.82,-5.0
415,1900-01-01 17:40:01.096,22.6,18.37,10.04,0.31,0.38,0.86,3.96,0.66,-10.37,26.56,38.26,9.92,0.6,0.43,0.63,-0.1,5.29,-8.44
416,1900-01-01 17:40:01.142,25.54,15.32,8.62,0.28,0.45,0.9,0.35,-2.29,-11.45,25.49,36.13,8.62,0.61,0.45,0.71,-2.85,2.47,-9.08
417,1900-01-01 17:40:01.237,28.28,15.9,7.03,0.28,0.48,0.85,7.37,-4.93,-9.69,32.22,31.34,7.23,0.52,0.54,0.67,0.41,2.47,-10.6
418,1900-01-01 17:40:01.305,28.83,16.55,5.71,0.3,0.5,0.86,0.98,-3.16,-7.04,30.09,32.81,5.61,0.55,0.51,0.68,-1.7,1.47,-7.29
419,1900-01-01 17:40:01.404,27.56,15.0,4.8,0.27,0.48,0.87,4.46,-6.35,-6.47,29.22,31.12,4.49,0.53,0.5,0.72,2.76,2.44,-9.96
420,1900-01-01 17:40:01.470,30.91,16.0,3.98,0.28,0.53,0.83,2.05,-8.51,-4.85,32.54,30.74,2.97,0.51,0.53,0.67,0.15,0.01,-7.4
421,1900-01-01 17:40:01.517,32.31,15.8,3.4,0.29,0.56,0.84,1.95,-7.95,-2.08,34.1,28.31,1.84,0.49,0.58,0.71,0.74,-2.27,-4.51
422,1900-01-01 17:40:01.610,29.31,18.21,3.24,0.32,0.5,0.82,0.17,-7.66,-1.17,33.44,30.55,1.14,0.5,0.55,0.66,1.02,-3.08,-4.21
423,1900-01-01 17:40:01.716,30.57,19.48,3.22,0.34,0.52,0.81,-2.66,-6.33,-0.09,33.77,30.94,0.49,0.51,0.55,0.65,-0.33,-3.44,-0.55
424,1900-01-01 17:40:01.747,29.78,20.93,3.37,0.35,0.49,0.79,-1.27,-6.18,-0.3,34.78,31.11,0.4,0.5,0.55,0.61,0.27,-2.27,-1.6
425,1900-01-01 17:40:01.840,30.05,21.33,3.48,0.35,0.49,0.76,-3.41,-3.98,-0.24,36.23,32.05,0.15,0.5,0.55,0.57,-0.35,-1.35,2.56
426,1900-01-01 17:40:01.895,30.01,20.87,3.6,0.36,0.5,0.79,-3.79,-0.31,0.38,36.33,31.32,0.53,0.51,0.58,0.61,-1.94,-0.64,5.04
427,1900-01-01 17:40:01.980,28.27,20.92,3.82,0.36,0.48,0.81,-2.82,-0.58,1.32,33.54,32.18,1.29,0.53,0.55,0.63,0.58,-0.98,3.65
428,1900-01-01 17:40:02.072,31.12,19.49,4.18,0.32,0.5,0.77,-5.06,2.02,2.85,36.38,30.54,1.83,0.48,0.56,0.58,-5.63,-2.96,8.24
429,1900-01-01 17:40:02.203,25.31,19.43,4.77,0.32,0.41,0.81,-3.92,4.45,1.95,29.16,35.84,3.08,0.55,0.46,0.61,-1.4,-0.56,5.96
430,1900-01-01 17:40:02.203,25.63,20.16,5.22,0.34,0.43,0.82,-3.66,3.72,-0.79,32.5,34.48,3.97,0.56,0.53,0.62,-2.17,-1.43,8.51
431,1900-01-01 17:40:02.289,25.7,21.09,5.26,0.37,0.45,0.85,-3.59,4.16,0.98,29.5,39.37,5.26,0.63,0.49,0.6,-2.98,-2.66,9.05
432,1900-01-01 17:40:02.370,24.75,20.66,5.57,0.36,0.43,0.85,0.86,3.24,1.05,27.87,40.0,6.63,0.64,0.47,0.61,-1.52,-0.82,2.75
433,1900-01-01 17:40:02.459,25.84,19.99,5.88,0.35,0.44,0.84,0.15,0.53,0.61,28.96,39.41,7.03,0.63,0.48,0.6,-2.0,-0.11,1.92
434,1900-01-01 17:40:02.540,24.67,19.13,6.14,0.33,0.42,0.85,0.61,-0.73,-0.28,27.05,39.61,7.31,0.63,0.45,0.61,-1.04,1.29,0.21
435,1900-01-01 17:40:02.587,25.69,19.79,6.25,0.35,0.45,0.86,-0.67,-0.77,-1.14,28.8,39.49,7.34,0.65,0.49,0.61,-1.51,0.24,0.46
436,1900-01-01 17:40:02.682,25.57,19.55,6.24,0.35,0.45,0.87,-0.26,-1.31,-0.37,28.29,39.12,7.4,0.64,0.48,0.63,-1.37,-0.95,-1.37
437,1900-01-01 17:40:02.727,25.15,19.48,6.34,0.34,0.43,0.85,-1.26,-2.0,-0.08,28.08,39.24,7.18,0.63,0.47,0.61,-2.74,-1.44,-0.82
438,1900-01-01 17:40:02.819,25.66,20.38,6.48,0.34,0.42,0.81,-2.11,-0.15,-1.02,30.36,38.66,7.05,0.6,0.49,0.57,-4.1,-1.97,1.89
439,1900-01-01 17:40:02.914,24.44,20.09,6.49,0.35,0.42,0.85,-8.37,2.22,-1.37,26.35,41.57,7.33,0.65,0.44,0.59,-7.63,-1.44,5.11
440,1900-01-01 17:40:02.962,25.14,19.8,6.44,0.34,0.43,0.85,-3.35,1.24,-1.55,28.47,40.33,8.1,0.65,0.48,0.59,-3.96,1.02,2.63
441,1900-01-01 17:40:03.056,23.8,19.6,6.36,0.34,0.41,0.86,-4.74,0.02,-1.15,27.46,40.85,8.49,0.65,0.46,0.6,-4.21,4.74,0.47
442,1900-01-01 17:40:03.154,21.96,19.65,6.35,0.34,0.37,0.87,-6.9,0.75,-0.13,22.81,41.38,8.55,0.65,0.38,0.63,-7.34,4.96,1.47
443,1900-01-01 17:40:03.195,22.44,19.39,6.48,0.34,0.39,0.88,-6.85,0.37,-0.92,27.15,39.27,8.77,0.63,0.46,0.63,-7.46,0.62,6.37
444,1900-01-01 17:40:03.287,18.4,20.31,6.5,0.35,0.32,0.9,-4.25,1.59,-0.63,21.63,44.33,9.72,0.71,0.37,0.62,-2.27,1.73,2.51
445,1900-01-01 17:40:03.335,21.75,19.59,6.57,0.35,0.38,0.9,-4.36,-0.82,-0.71,23.17,41.43,10.1,0.68,0.4,0.65,-4.5,-1.92,4.69
446,1900-01-01 17:40:03.434,19.51,19.4,6.62,0.34,0.34,0.89,-0.15,-2.61,-0.17,21.51,42.48,10.81,0.67,0.36,0.64,-1.27,1.32,0.03
447,1900-01-01 17:40:03.551,20.4,20.09,6.75,0.35,0.35,0.89,-2.98,-2.27,0.18,22.14,42.3,10.8,0.67,0.37,0.63,-3.36,1.7,1.6
448,1900-01-01 17:40:03.580,18.83,19.94,6.94,0.35,0.33,0.9,0.02,-1.61,-0.23,21.26,41.72,11.04,0.68,0.37,0.66,-1.15,4.4,0.5
449,1900-01-01 17:40:03.662,20.51,19.29,7.06,0.32,0.33,0.84,1.28,-3.08,-1.14,23.36,38.69,11.11,0.58,0.37,0.62,1.93,3.95,-2.27
450,1900-01-01 17:40:03.779,20.94,18.85,7.04,0.32,0.35,0.87,-0.94,0.84,0.08,22.87,38.1,10.75,0.6,0.38,0.67,-1.4,2.77,0.76
451,1900-01-01 17:40:03.813,21.34,20.38,7.22,0.35,0.36,0.86,-0.56,0.42,0.21,24.99,38.4,10.86,0.62,0.42,0.65,-0.76,2.02,2.29
452,1900-01-01 17:40:03.897,23.46,20.52,7.41,0.36,0.41,0.87,-1.74,3.24,4.98,25.49,39.59,11.2,0.63,0.43,0.64,-0.27,0.08,9.05
453,1900-01-01 17:40:03.943,19.95,21.43,8.32,0.37,0.34,0.87,-0.65,7.76,7.34,24.29,42.65,12.56,0.65,0.4,0.59,0.43,4.82,9.6
454,1900-01-01 17:40:04.079,15.92,20.49,9.59,0.36,0.28,0.91,-7.22,11.01,7.69,17.7,44.83,14.01,0.72,0.31,0.65,-2.76,2.68,13.45
455,1900-01-01 17:40:04.112,18.86,19.25,10.92,0.34,0.33,0.91,-1.96,6.15,6.54,19.02,42.88,16.05,0.7,0.33,0.67,-4.56,3.7,10.94
456,1900-01-01 17:40:04.199,17.14,17.66,12.08,0.31,0.3,0.92,1.89,3.17,6.65,13.79,44.27,17.71,0.7,0.24,0.67,0.42,2.44,3.4
457,1900-01-01 17:40:04.256,16.63,15.8,13.25,0.28,0.29,0.93,3.08,-0.85,3.53,16.27,42.59,18.22,0.68,0.28,0.68,1.07,0.53,2.42
458,1900-01-01 17:40:04.347,16.56,16.37,13.94,0.29,0.29,0.93,3.1,-1.89,1.05,16.04,42.76,18.58,0.68,0.28,0.68,2.45,1.48,1.69
459,1900-01-01 17:40:04.405,15.31,16.22,14.26,0.28,0.26,0.93,2.97,-0.64,-0.91,13.64,44.33,18.82,0.69,0.23,0.66,2.52,0.47,-0.77
460,1900-01-01 17:40:04.473,17.98,15.23,14.28,0.26,0.3,0.9,2.53,-1.17,-4.5,14.29,42.88,18.7,0.66,0.24,0.67,3.77,0.24,-2.56
461,1900-01-01 17:40:04.551,18.66,15.96,13.75,0.28,0.33,0.93,4.77,-2.01,-6.96,17.97,44.57,18.3,0.7,0.31,0.64,3.14,2.93,-7.97
462,1900-01-01 17:40:04.647,19.91,17.94,12.85,0.31,0.35,0.9,3.39,-4.17,-9.01,22.28,41.99,17.08,0.67,0.38,0.64,1.1,2.57,-8.47
463,1900-01-01 17:40:04.739,22.19,20.07,11.63,0.35,0.38,0.87,3.02,-2.93,-8.56,22.19,43.06,15.78,0.68,0.37,0.62,-1.65,1.27,-10.83
464,1900-01-01 17:40:04.784,21.7,18.55,10.48,0.33,0.38,0.9,0.91,-4.3,-8.08,24.3,41.05,14.11,0.67,0.42,0.64,-1.27,0.66,-9.09
465,1900-01-01 17:40:04.879,23.5,19.36,9.4,0.33,0.4,0.86,2.18,-3.98,-7.31,29.44,37.22,12.71,0.6,0.49,0.63,0.49,-0.34,-6.04
466,1900-01-01 17:40:04.973,23.17,18.97,8.45,0.32,0.39,0.85,0.58,-1.92,-5.4,27.82,37.85,11.78,0.6,0.46,0.63,-0.62,0.35,-5.3
467,1900-01-01 17:40:05.019,24.4,18.59,7.78,0.32,0.42,0.86,-2.63,-1.79,-3.08,27.21,39.06,10.97,0.62,0.45,0.62,-4.19,-0.37,0.4
468,1900-01-01 17:40:05.113,24.89,18.31,7.47,0.32,0.43,0.86,0.37,-1.22,-0.95,28.22,38.49,11.02,0.61,0.47,0.61,-4.85,3.32,3.64
469,1900-01-01 17:40:05.166,21.37,17.42,7.48,0.3,0.37,0.89,-3.44,0.56,0.49,21.4,39.71,11.56,0.65,0.37,0.69,-4.01,-1.37,6.14
470,1900-01-01 17:40:05.254,20.09,18.98,7.71,0.33,0.35,0.89,0.42,-0.89,-1.03,22.4,42.44,12.49,0.67,0.38,0.63,0.98,-4.02,-0.05
471,1900-01-01 17:40:05.347,23.23,19.6,7.71,0.34,0.4,0.86,-1.86,-0.44,-1.91,24.75,41.8,12.47,0.66,0.41,0.61,-3.57,0.02,1.9
472,1900-01-01 17:40:05.394,22.64,19.74,7.58,0.34,0.39,0.86,-0.8,-1.5,-1.39,23.68,42.0,12.75,0.66,0.4,0.62,-2.92,4.26,3.43
473,1900-01-01 17:40:05.488,21.86,18.78,7.53,0.33,0.38,0.88,0.86,-2.49,-2.34,20.1,41.07,13.27,0.66,0.35,0.68,0.27,0.17,-1.38
474,1900-01-01 17:40:05.580,22.42,17.9,7.33,0.31,0.39,0.89,-0.28,-3.99,-2.07,21.95,42.84,13.05,0.67,0.37,0.62,-1.47,-1.11,-2.4
475,1900-01-01 17:40:05.628,21.46,18.61,7.17,0.32,0.37,0.88,0.49,-3.26,-3.23,22.93,42.05,12.67,0.67,0.39,0.63,-0.56,-1.04,-2.31
476,1900-01-01 17:40:05.720,23.55,19.69,6.84,0.34,0.4,0.85,0.7,-2.67,-1.89,26.99,40.16,12.31,0.63,0.44,0.6,0.35,-0.06,-1.45
477,1900-01-01 17:40:05.814,22.45,19.07,6.71,0.33,0.39,0.87,-2.63,1.03,-1.08,23.65,42.17,12.08,0.67,0.4,0.62,-3.29,1.73,2.03
478,1900-01-01 17:40:05.862,23.04,19.98,6.7,0.34,0.39,0.86,-1.13,-0.12,-0.84,24.73,41.91,12.38,0.66,0.41,0.6,-2.65,1.11,1.44
479,1900-01-01 17:40:05.953,23.02,19.88,6.73,0.34,0.39,0.85,-0.88,0.95,-0.63,24.85,41.66,12.59,0.65,0.41,0.61,-1.95,0.14,0.74
480,1900-01-01 17:40:06.082,24.15,19.62,6.79,0.34,0.41,0.85,-1.12,2.33,0.69,27.06,39.45,12.7,0.62,0.44,0.61,-2.0,-0.02,1.74
481,1900-01-01 17:40:06.082,21.48,18.21,7.06,0.32,0.37,0.88,-2.64,5.74,2.89,20.19,41.57,12.95,0.67,0.35,0.67,-1.84,-2.81,2.65
482,1900-01-01 17:40:06.187,19.97,18.96,7.65,0.33,0.35,0.9,2.73,-0.11,0.47,21.08,44.4,13.35,0.7,0.36,0.62,4.04,-3.99,-4.19
483,1900-01-01 17:40:06.233,22.54,19.45,7.89,0.34,0.39,0.88,-2.64,1.11,0.89,24.7,45.73,12.7,0.71,0.42,0.56,-1.01,1.4,4.44
484,1900-01-01 17:40:06.326,20.77,19.6,8.18,0.34,0.36,0.88,3.92,2.36,-0.15,25.73,43.18,13.37,0.69,0.44,0.59,1.58,2.92,2.24
485,1900-01-01 17:40:06.422,23.61,18.12,8.31,0.31,0.39,0.85,0.94,-0.73,-0.73,22.52,42.3,13.7,0.64,0.37,0.6,-0.18,1.32,-2.38
486,1900-01-01 17:40:06.465,22.95,17.39,8.36,0.31,0.4,0.89,-3.18,-0.47,-1.39,22.97,44.27,13.33,0.7,0.39,0.6,-4.44,1.54,-1.16
487,1900-01-01 17:40:06.558,21.59,17.67,8.31,0.31,0.38,0.9,1.41,-1.79,-1.34,22.37,43.63,13.14,0.7,0.38,0.62,-0.37,4.58,-0.18
488,1900-01-01 17:40:06.670,23.06,19.31,8.26,0.33,0.39,0.86,1.76,0.21,-1.66,26.71,42.47,13.1,0.67,0.45,0.58,-0.14,1.68,-0.28
489,1900-01-01 17:40:06.697,21.84,17.94,8.17,0.31,0.38,0.89,0.11,2.18,-0.48,23.62,43.13,13.05,0.69,0.41,0.62,-0.08,1.65,-0.93
490,1900-01-01 17:40:06.791,20.98,17.18,8.25,0.3,0.37,0.9,0.36,-1.11,-0.63,22.16,45.13,12.9,0.72,0.38,0.6,-1.21,0.37,-1.31
491,1900-01-01 17:40:06.838,23.61,17.97,8.31,0.3,0.39,0.85,1.75,-2.34,-2.95,23.43,42.77,12.7,0.65,0.38,0.59,1.85,0.66,-4.47
492,1900-01-01 17:40:06.932,22.97,17.05,8.02,0.29,0.39,0.87,3.96,-1.58,-3.24,24.99,42.64,12.01,0.67,0.42,0.59,2.05,3.45,-0.39
493,1900-01-01 17:40:07.026,24.14,18.1,7.69,0.31,0.41,0.86,3.27,1.0,-3.68,27.11,41.01,11.94,0.65,0.45,0.6,1.84,3.5,0.66
494,1900-01-01 17:40:07.073,24.41,17.02,7.29,0.3,0.43,0.9,-2.72,0.32,-3.02,23.64,44.38,12.03,0.7,0.4,0.6,-4.5,3.82,-0.18
495,1900-01-01 17:40:07.167,23.93,19.13,6.99,0.33,0.4,0.85,4.5,-0.29,-4.59,27.16,41.76,11.99,0.65,0.45,0.58,-0.34,4.09,-5.31
496,1900-01-01 17:40:07.274,25.12,17.69,6.45,0.31,0.43,0.86,-0.84,-0.55,-3.88,25.93,41.05,11.18,0.66,0.44,0.61,-1.86,3.58,-3.44
497,1900-01-01 17:40:07.304,26.24,17.21,6.01,0.3,0.45,0.86,4.18,-2.79,-3.85,27.43,39.49,10.64,0.64,0.46,0.62,0.43,2.66,-6.03
498,1900-01-01 17:40:07.398,26.66,17.57,5.58,0.31,0.46,0.85,1.65,-2.79,-3.11,27.55,39.53,9.72,0.63,0.46,0.61,-0.03,1.36,-4.36
499,1900-01-01 17:40:07.449,26.65,17.07,5.27,0.3,0.46,0.86,0.54,-2.63,-2.08,27.73,39.05,9.04,0.63,0.46,0.62,-1.39,1.21,-2.33
500,1900-01-01 17:40:07.549,26.85,17.35,5.11,0.3,0.46,0.86,1.11,-2.6,-2.14,28.81,38.79,8.68,0.63,0.48,0.61,-1.28,1.58,-2.07
501,1900-01-01 17:40:07.634,26.37,17.95,4.94,0.31,0.45,0.85,-0.66,-2.93,-2.44,27.55,39.48,8.36,0.63,0.46,0.61,-0.95,0.17,-3.08
502,1900-01-01 17:40:07.681,28.85,18.71,4.73,0.32,0.48,0.81,1.5,-2.06,-1.8,31.24,36.73,7.88,0.58,0.5,0.59,-1.0,1.43,-1.48
503,1900-01-01 17:40:07.773,27.17,17.81,4.61,0.3,0.45,0.82,0.82,-1.69,-2.28,28.31,38.81,7.65,0.61,0.46,0.6,-0.31,0.6,-2.92
504,1900-01-01 17:40:07.902,27.72,19.18,4.42,0.33,0.47,0.82,0.08,-1.45,-2.75,30.99,38.01,7.19,0.61,0.51,0.59,-0.69,0.58,-2.21
505,1900-01-01 17:40:07.902,27.75,18.99,4.16,0.33,0.48,0.84,-0.31,-0.76,-1.58,30.02,37.74,6.85,0.62,0.51,0.62,-2.01,1.94,-0.92
506,1900-01-01 17:40:08.010,27.73,18.55,4.08,0.32,0.47,0.83,0.43,-1.31,-1.2,30.24,37.85,6.7,0.6,0.5,0.6,-0.92,1.1,-1.55
507,1900-01-01 17:40:08.053,28.52,18.58,4.06,0.32,0.48,0.82,-0.01,-0.92,-0.71,30.93,36.8,6.46,0.59,0.51,0.6,-1.21,1.34,-0.83
508,1900-01-01 17:40:08.146,29.65,18.64,4.11,0.33,0.51,0.83,0.01,-1.27,1.02,32.87,35.48,6.32,0.6,0.56,0.62,-2.37,0.48,0.22
509,1900-01-01 17:40:08.241,28.24,19.45,4.42,0.34,0.48,0.82,-4.62,-3.43,3.69,30.66,37.63,6.35,0.6,0.5,0.59,-1.71,-1.61,7.41
510,1900-01-01 17:40:08.289,28.21,20.6,5.14,0.35,0.46,0.79,-4.53,3.56,5.57,29.38,40.19,7.47,0.6,0.46,0.54,-3.19,1.3,6.57
511,1900-01-01 17:40:08.382,25.55,19.49,6.14,0.33,0.43,0.84,-5.74,6.54,4.31,27.48,40.87,8.45,0.65,0.46,0.59,-3.61,2.52,8.4
512,1900-01-01 17:40:08.429,24.59,20.49,6.95,0.36,0.42,0.85,-0.44,3.95,4.47,28.51,41.83,9.72,0.68,0.48,0.58,1.05,3.4,5.2
513,1900-01-01 17:40:08.542,25.27,19.83,7.79,0.35,0.44,0.86,-1.8,3.33,6.01,25.98,42.19,10.49,0.68,0.44,0.6,-0.66,1.16,5.9
514,1900-01-01 17:40:08.580,24.64,18.97,8.86,0.32,0.41,0.84,1.22,1.9,4.95,27.83,38.62,11.38,0.61,0.46,0.61,1.86,1.4,4.49
515,1900-01-01 17:40:08.664,23.03,18.87,9.76,0.32,0.38,0.84,-0.3,4.92,4.48,25.12,40.53,12.05,0.63,0.41,0.61,1.62,3.76,5.85
516,1900-01-01 17:40:08.755,21.33,17.39,10.6,0.31,0.37,0.9,-0.94,4.68,2.89,22.87,43.77,12.93,0.7,0.4,0.62,1.77,2.08,3.34
517,1900-01-01 17:40:08.848,23.86,18.44,11.2,0.32,0.41,0.88,-2.0,1.92,2.79,26.71,41.74,13.43,0.67,0.45,0.6,-0.83,1.05,5.4
518,1900-01-01 17:40:08.894,22.38,19.1,11.78,0.33,0.38,0.87,0.82,2.11,2.79,23.74,43.45,14.24,0.68,0.4,0.6,0.83,2.31,2.41
519,1900-01-01 17:40:08.989,23.61,18.4,12.36,0.31,0.4,0.86,-0.66,1.77,2.08,25.52,42.06,14.6,0.66,0.42,0.59,0.67,1.71,3.27
520,1900-01-01 17:40:09.038,22.89,18.34,12.84,0.32,0.39,0.87,-0.34,1.74,2.02,23.03,43.79,15.09,0.69,0.39,0.6,-0.15,2.36,1.73
521,1900-01-01 17:40:09.168,23.41,17.57,13.3,0.31,0.4,0.88,-0.26,0.47,1.59,24.24,42.03,15.34,0.67,0.41,0.62,0.18,0.98,2.58
522,1900-01-01 17:40:09.195,23.28,18.02,13.7,0.31,0.4,0.87,0.48,0.18,1.37,25.09,42.54,15.73,0.67,0.42,0.6,0.2,1.29,2.37
523,1900-01-01 17:40:09.269,22.29,17.85,14.07,0.31,0.38,0.88,-0.73,1.36,1.18,20.22,44.02,16.08,0.69,0.34,0.62,-2.19,-0.04,1.02
524,1900-01-01 17:40:09.361,23.47,17.99,14.4,0.31,0.4,0.86,0.23,-1.08,-1.4,25.0,42.58,16.22,0.66,0.41,0.59,-0.39,0.68,-0.48
525,1900-01-01 17:40:09.454,22.83,18.12,14.35,0.32,0.4,0.89,-1.6,0.5,-0.92,22.65,44.42,16.14,0.71,0.39,0.61,-2.0,1.11,0.71
526,1900-01-01 17:40:09.505,23.14,18.76,14.37,0.32,0.39,0.86,-0.08,-0.07,-1.2,24.13,43.35,16.24,0.67,0.4,0.59,-1.02,1.82,0.08
527,1900-01-01 17:40:09.593,23.08,17.86,14.34,0.3,0.39,0.86,-0.18,0.18,-1.74,23.44,43.54,16.25,0.67,0.39,0.59,-0.37,2.27,-0.56
528,1900-01-01 17:40:09.650,22.74,17.87,14.23,0.31,0.39,0.88,-0.54,0.49,-2.33,24.12,43.35,16.15,0.68,0.41,0.6,-0.42,2.34,-1.37
529,1900-01-01 17:40:09.750,23.43,17.58,14.04,0.31,0.4,0.88,-0.1,-0.29,-2.68,24.34,43.05,15.93,0.68,0.41,0.6,-0.91,2.94,-1.54
530,1900-01-01 17:40:09.828,24.02,17.34,13.79,0.3,0.41,0.86,0.03,-2.4,-3.56,22.62,42.83,15.69,0.67,0.38,0.61,-2.54,1.88,-3.6
531,1900-01-01 17:40:09.874,23.49,17.51,13.4,0.3,0.39,0.86,-0.11,-2.29,-5.84,23.56,42.84,15.13,0.67,0.4,0.61,-3.21,-0.93,-5.77
532,1900-01-01 17:40:09.984,22.3,19.02,12.66,0.32,0.37,0.84,4.33,-5.13,-8.37,25.14,42.39,14.24,0.63,0.4,0.57,2.24,0.6,-11.66
533,1900-01-01 17:40:10.060,25.81,17.94,11.54,0.31,0.44,0.86,-1.46,-1.68,-8.44,28.32,40.1,12.45,0.65,0.48,0.61,-3.63,-0.82,-6.15
534,1900-01-01 17:40:10.107,26.97,17.92,10.4,0.32,0.47,0.87,1.27,-3.37,-7.34,29.4,39.97,11.5,0.65,0.5,0.6,-2.48,-1.41,-5.17
535,1900-01-01 17:40:10.204,27.25,17.82,9.44,0.32,0.47,0.86,-0.83,-3.15,-5.55,28.49,40.52,10.7,0.66,0.48,0.6,-3.43,-0.86,-3.5
536,1900-01-01 17:40:10.295,26.61,17.79,8.74,0.3,0.45,0.84,0.5,-3.27,-5.33,29.76,38.57,10.15,0.62,0.49,0.6,-1.79,-0.79,-4.18
537,1900-01-01 17:40:10.341,26.66,18.63,8.09,0.32,0.45,0.84,-0.28,-2.37,-3.96,29.51,40.42,9.5,0.64,0.48,0.57,-2.34,0.63,-3.67
538,1900-01-01 17:40:10.437,27.55,17.67,7.64,0.31,0.47,0.84,-1.48,-0.63,-2.31,29.37,39.4,8.93,0.64,0.49,0.6,-3.66,0.72,0.4
539,1900-01-01 17:40:10.529,25.66,18.86,7.45,0.32,0.43,0.84,1.18,-2.59,-3.35,30.68,39.0,8.99,0.62,0.5,0.58,-0.05,1.47,-3.14
540,1900-01-01 17:40:10.575,28.44,18.8,7.1,0.33,0.48,0.83,-1.95,3.33,-0.4,30.76,38.4,8.5,0.62,0.51,0.59,-6.8,0.53,6.34
541,1900-01-01 17:40:10.670,28.01,16.25,7.2,0.28,0.48,0.85,-3.85,2.12,1.28,25.62,40.95,9.45,0.63,0.42,0.6,-4.88,2.05,5.51
542,1900-01-01 17:40:10.717,24.72,18.91,7.55,0.33,0.43,0.87,-1.34,2.21,0.22,23.24,44.62,10.28,0.72,0.4,0.61,-4.15,3.08,0.91
543,1900-01-01 17:40:10.811,24.75,19.81,7.74,0.36,0.45,0.91,-1.69,-3.68,-2.24,24.33,46.46,10.41,0.75,0.43,0.57,-5.63,3.61,-7.25
544,1900-01-01 17:40:10.904,24.7,24.08,7.56,0.41,0.42,0.82,0.6,-2.34,-5.73,31.07,41.58,9.29,0.66,0.51,0.53,-6.52,4.8,-7.54
545,1900-01-01 17:40:10.951,24.9,18.36,6.85,0.32,0.42,0.85,-5.98,2.16,-5.76,25.62,39.14,8.14,0.61,0.42,0.63,-9.2,5.29,-3.86
546,1900-01-01 17:40:11.043,27.38,12.1,6.13,0.2,0.44,0.83,-1.44,0.52,-5.1,28.9,27.5,7.54,0.46,0.48,0.74,-2.63,1.82,-2.07
547,1900-01-01 17:40:11.096,25.5,10.06,5.51,0.17,0.42,0.87,-2.05,-0.27,-1.32,20.18,33.65,7.22,0.53,0.33,0.72,-4.11,4.85,-4.74
548,1900-01-01 17:40:11.199,27.59,13.93,5.47,0.24,0.47,0.87,1.11,-2.88,-1.98,27.39,35.09,6.49,0.57,0.46,0.67,-2.03,3.27,-3.25
549,1900-01-01 17:40:11.278,26.97,16.71,5.33,0.3,0.47,0.87,0.31,-1.37,0.31,28.17,35.45,5.98,0.58,0.47,0.67,-0.53,1.16,0.36
550,1900-01-01 17:40:11.325,23.52,18.63,5.53,0.32,0.4,0.85,-1.71,0.03,0.65,24.5,39.18,6.03,0.61,0.4,0.63,-2.83,2.88,1.73
551,1900-01-01 17:40:11.453,27.26,14.73,5.79,0.26,0.47,0.87,-0.6,-1.15,-0.04,27.96,33.4,6.28,0.55,0.47,0.69,0.56,0.66,2.51
552,1900-01-01 17:40:11.478,28.23,13.45,5.94,0.23,0.47,0.84,0.95,-0.13,3.3,25.98,30.47,6.66,0.51,0.44,0.75,1.62,-2.31,2.75
553,1900-01-01 17:40:11.559,24.7,14.91,6.6,0.26,0.42,0.87,-2.51,-1.82,2.97,25.66,38.6,7.06,0.59,0.41,0.61,-0.91,0.41,4.74
554,1900-01-01 17:40:11.655,25.88,19.01,7.21,0.33,0.45,0.86,0.56,0.29,2.4,26.32,39.45,7.77,0.64,0.45,0.64,-0.28,3.5,2.32
555,1900-01-01 17:40:11.706,23.98,21.31,7.73,0.38,0.42,0.87,2.29,-0.71,1.47,27.67,40.14,8.12,0.66,0.47,0.62,-0.85,4.63,0.44
556,1900-01-01 17:40:11.794,26.51,16.88,8.11,0.29,0.45,0.85,7.4,-1.44,2.66,28.51,35.27,8.18,0.58,0.48,0.67,3.44,1.9,-2.25
557,1900-01-01 17:40:11.888,27.87,17.49,8.67,0.3,0.46,0.82,4.99,-2.22,3.73,26.8,35.88,7.83,0.57,0.44,0.65,-0.01,0.73,-1.02
558,1900-01-01 17:40:11.934,27.45,18.72,9.4,0.33,0.47,0.84,2.49,-2.53,3.91,28.26,36.9,7.66,0.6,0.48,0.65,2.94,3.95,-4.86
559,1900-01-01 17:40:12.029,25.51,21.88,10.15,0.38,0.44,0.84,1.27,-1.7,2.98,28.25,37.19,6.92,0.61,0.48,0.64,-0.31,3.44,1.46
560,1900-01-01 17:40:12.148,27.24,22.93,10.76,0.39,0.46,0.81,-1.47,0.03,1.58,28.62,35.38,7.13,0.56,0.47,0.64,-2.05,0.18,0.97
561,1900-01-01 17:40:12.174,25.02,21.17,11.16,0.35,0.42,0.82,-4.3,2.0,1.05,28.24,40.61,7.27,0.62,0.45,0.56,-1.08,-2.18,5.55
562,1900-01-01 17:40:12.262,19.71,26.79,11.47,0.48,0.36,0.88,-7.99,1.79,-5.78,23.6,47.29,8.1,0.77,0.42,0.58,-6.98,3.3,1.8
563,1900-01-01 17:40:12.309,27.97,23.96,10.75,0.43,0.49,0.82,4.14,-1.71,-4.05,33.28,34.45,8.37,0.6,0.58,0.65,1.55,1.72,-5.16
564,1900-01-01 17:40:12.402,27.9,17.82,10.3,0.3,0.46,0.81,0.5,-0.13,-0.63,28.13,33.47,7.58,0.52,0.45,0.65,-0.98,1.19,-3.76
565,1900-01-01 17:40:12.495,25.55,17.44,10.36,0.3,0.43,0.84,-1.07,-0.36,-0.42,26.75,35.69,6.99,0.56,0.43,0.65,0.78,0.14,-0.21
566,1900-01-01 17:40:12.541,25.64,18.26,10.45,0.31,0.43,0.84,-1.32,0.85,-2.44,28.13,34.63,6.95,0.56,0.46,0.66,1.05,0.59,1.18
567,1900-01-01 17:40:12.636,27.08,17.39,10.24,0.3,0.46,0.85,-4.95,1.76,-2.46,28.53,35.07,7.12,0.57,0.47,0.65,-3.74,0.55,2.53
568,1900-01-01 17:40:12.774,25.96,17.78,10.03,0.31,0.44,0.85,-6.1,1.38,-1.39,27.82,35.89,7.5,0.58,0.46,0.65,-6.34,-0.84,5.2
569,1900-01-01 17:40:12.774,24.85,18.61,9.97,0.32,0.42,0.85,-4.63,1.05,-0.79,25.97,38.4,8.29,0.61,0.43,0.64,-6.49,-0.17,1.74
570,1900-01-01 17:40:12.867,24.17,19.03,10.01,0.33,0.41,0.86,-5.0,0.92,-1.74,25.75,37.58,8.54,0.6,0.43,0.66,-3.81,-0.37,0.66
571,1900-01-01 17:40:12.915,24.15,18.01,9.91,0.31,0.42,0.87,-4.47,-0.64,-1.36,25.33,38.37,8.63,0.62,0.43,0.65,-3.78,-1.04,-2.17
572,1900-01-01 17:40:13.028,22.16,18.48,9.86,0.32,0.38,0.87,-2.02,-0.64,-0.88,23.42,39.7,8.29,0.63,0.39,0.65,-1.94,-2.98,1.16
573,1900-01-01 17:40:13.102,22.09,18.53,9.88,0.32,0.38,0.88,1.61,-0.62,-1.44,25.32,38.52,8.46,0.62,0.42,0.65,1.09,0.69,-1.19
574,1900-01-01 17:40:13.148,25.19,18.46,9.82,0.32,0.44,0.87,-0.28,-1.68,-2.56,26.79,39.01,8.27,0.63,0.45,0.63,-1.89,-3.11,0.96
575,1900-01-01 17:40:13.241,23.73,18.57,9.59,0.33,0.41,0.88,1.8,-2.53,-2.69,25.17,40.1,8.41,0.65,0.43,0.64,0.25,-0.28,-2.21
576,1900-01-01 17:40:13.337,23.4,18.98,9.34,0.32,0.39,0.85,1.58,-2.9,-3.05,26.19,39.3,8.07,0.62,0.43,0.62,0.62,-2.47,-2.29
577,1900-01-01 17:40:13.382,23.48,18.75,9.03,0.31,0.39,0.84,1.54,-1.21,-4.88,25.23,39.59,7.71,0.62,0.41,0.62,5.78,-9.78,-3.76
578,1900-01-01 17:40:13.477,25.05,18.63,8.45,0.32,0.43,0.85,1.23,-2.77,-4.65,26.96,42.15,7.13,0.65,0.44,0.57,5.95,-7.79,-7.3
579,1900-01-01 17:40:13.579,27.33,19.52,7.9,0.35,0.48,0.86,4.24,-3.67,-2.36,32.55,41.12,6.01,0.66,0.54,0.53,2.97,1.37,-5.58
580,1900-01-01 17:40:13.616,25.32,19.57,7.7,0.34,0.44,0.86,2.89,-1.54,0.16,28.43,42.25,5.16,0.67,0.47,0.57,1.66,4.21,-1.82
581,1900-01-01 17:40:13.710,28.53,19.76,7.88,0.33,0.47,0.79,-0.02,-1.92,-0.76,31.9,36.96,4.87,0.57,0.5,0.57,-0.37,0.68,-2.06
582,1900-01-01 17:40:13.756,25.63,19.2,7.92,0.33,0.44,0.85,-6.1,-0.43,-1.35,29.16,43.18,4.55,0.66,0.47,0.53,-7.37,5.8,-1.17
583,1900-01-01 17:40:13.850,26.47,20.03,7.88,0.35,0.46,0.85,-1.76,-1.46,-1.58,29.85,40.14,4.36,0.65,0.5,0.59,-8.48,5.86,4.61
584,1900-01-01 17:40:13.943,25.51,21.33,7.79,0.37,0.44,0.84,-1.67,-1.78,-1.89,30.75,38.46,5.06,0.62,0.51,0.6,-3.78,8.12,3.6
585,1900-01-01 17:40:13.990,27.43,20.22,7.67,0.36,0.48,0.84,-11.0,-0.79,0.85,24.45,41.11,5.59,0.65,0.41,0.63,-9.69,1.37,9.98
586,1900-01-01 17:40:14.086,25.53,18.88,7.95,0.32,0.42,0.82,1.76,-0.08,0.18,30.14,36.52,7.1,0.58,0.49,0.61,-3.71,-0.62,6.45
587,1900-01-01 17:40:14.131,21.11,18.57,8.14,0.32,0.36,0.88,-4.32,1.43,-1.24,20.77,42.96,8.07,0.68,0.36,0.64,-3.39,0.65,9.84
588,1900-01-01 17:40:14.255,22.76,19.46,8.11,0.35,0.41,0.9,0.85,-2.16,-1.18,24.63,43.27,9.56,0.71,0.43,0.62,-1.29,-2.0,4.5
589,1900-01-01 17:40:14.285,24.56,20.57,8.09,0.36,0.43,0.87,1.14,-0.81,-0.32,25.97,42.45,10.24,0.67,0.44,0.59,-0.31,3.43,-0.69
590,1900-01-01 17:40:14.367,24.78,20.72,8.2,0.34,0.4,0.8,-0.56,1.18,-1.44,25.52,41.46,10.12,0.62,0.4,0.57,-1.83,-1.76,-0.76
591,1900-01-01 17:40:14.461,24.37,19.6,8.14,0.34,0.42,0.86,-4.64,0.66,-1.34,22.89,43.71,10.0,0.68,0.38,0.6,-4.96,2.5,1.07
592,1900-01-01 17:40:14.565,24.08,20.13,8.09,0.35,0.42,0.86,-0.19,-0.05,-0.97,24.41,42.9,10.15,0.69,0.42,0.61,-1.83,1.76,-0.07
593,1900-01-01 17:40:14.601,23.67,20.5,8.1,0.35,0.41,0.86,0.34,-0.18,-1.12,25.14,42.62,10.13,0.67,0.42,0.6,-0.67,0.6,-0.76
594,1900-01-01 17:40:14.693,23.04,20.01,8.09,0.35,0.4,0.88,-0.59,-0.89,-0.6,24.29,42.7,10.01,0.69,0.42,0.62,-0.7,0.17,-0.09
595,1900-01-01 17:40:14.741,23.68,19.82,8.16,0.34,0.41,0.86,0.17,-1.45,-0.53,25.13,42.34,9.99,0.67,0.42,0.6,-0.76,0.14,-0.4
596,1900-01-01 17:40:14.824,23.31,19.33,8.23,0.34,0.4,0.87,-0.15,-1.29,0.2,24.68,43.43,9.92,0.69,0.42,0.59,-1.72,2.65,0.65
597,1900-01-01 17:40:14.966,25.31,19.35,8.42,0.33,0.43,0.84,2.34,-1.95,-0.91,26.28,41.11,10.01,0.63,0.43,0.59,0.96,0.28,-1.77
598,1900-01-01 17:40:14.995,24.18,20.05,8.44,0.34,0.4,0.84,-2.52,2.21,-1.15,25.45,42.92,9.73,0.67,0.42,0.58,-3.4,-0.37,0.69
599,1900-01-01 17:40:15.078,22.49,19.95,8.43,0.34,0.39,0.87,-0.92,0.05,-1.02,23.67,43.37,9.83,0.69,0.4,0.61,-1.09,1.66,0.13
600,1900-01-01 17:40:15.159,24.31,20.38,8.43,0.35,0.42,0.85,-0.02,-0.12,-0.49,25.92,41.65,9.84,0.65,0.43,0.6,-0.41,0.42,0.57
601,1900-01-01 17:40:15.208,22.95,19.0,8.52,0.33,0.39,0.87,-1.48,1.2,0.15,23.59,43.04,9.92,0.67,0.4,0.6,-1.08,0.94,0.97
602,1900-01-01 17:40:15.301,25.32,19.52,8.7,0.33,0.42,0.82,0.74,1.29,-0.15,27.28,41.13,10.05,0.62,0.43,0.56,1.21,2.69,0.86
603,1900-01-01 17:40:15.348,22.77,18.62,8.83,0.31,0.38,0.85,-0.64,4.27,-0.23,23.35,43.14,10.18,0.67,0.39,0.6,-0.86,1.51,1.56
604,1900-01-01 17:40:15.496,23.8,19.76,8.96,0.35,0.41,0.87,0.25,3.39,-1.07,25.78,43.08,10.41,0.7,0.44,0.6,-0.11,0.45,1.13
605,1900-01-01 17:40:15.533,23.74,19.98,8.95,0.35,0.42,0.88,-0.14,3.45,0.98,24.79,44.39,10.57,0.71,0.43,0.59,-0.96,4.18,2.29
606,1900-01-01 17:40:15.580,22.48,18.38,9.26,0.32,0.39,0.88,-0.3,2.8,0.66,23.2,44.14,10.91,0.7,0.39,0.6,-1.47,2.4,1.69
607,1900-01-01 17:40:15.674,23.11,18.65,9.52,0.33,0.4,0.89,-2.07,1.85,1.12,24.25,43.35,11.16,0.7,0.42,0.61,-1.09,2.61,3.92
608,1900-01-01 17:40:15.767,23.58,18.4,9.85,0.33,0.41,0.89,-1.56,0.62,2.44,25.04,43.17,11.74,0.7,0.43,0.61,0.02,2.48,5.6
609,1900-01-01 17:40:15.813,23.42,17.73,10.38,0.31,0.41,0.89,-2.05,0.19,3.37,22.43,42.77,12.58,0.69,0.39,0.64,-0.03,-0.63,4.47
610,1900-01-01 17:40:15.907,22.09,17.64,11.05,0.3,0.38,0.87,-0.09,-2.83,2.43,22.88,42.61,13.25,0.67,0.38,0.61,1.86,-0.63,3.85
611,1900-01-01 17:40:16.002,21.78,18.15,11.58,0.31,0.37,0.87,-1.84,-1.32,2.26,21.36,44.93,13.83,0.68,0.35,0.59,0.03,-0.64,1.86
612,1900-01-01 17:40:16.047,21.72,18.45,12.08,0.31,0.37,0.87,-0.91,-2.31,0.15,21.48,45.59,14.11,0.7,0.36,0.58,-0.27,-0.79,-0.76
613,1900-01-01 17:40:16.141,22.92,19.65,12.26,0.34,0.39,0.87,-0.33,-2.63,0.25,24.54,43.62,13.98,0.68,0.41,0.59,-0.12,-0.42,0.82
614,1900-01-01 17:40:16.188,21.85,19.01,12.46,0.33,0.37,0.87,-1.01,-1.35,0.57,22.26,45.39,14.1,0.7,0.37,0.58,-0.97,-0.28,1.12
615,1900-01-01 17:40:16.281,20.89,19.77,12.7,0.34,0.36,0.87,-0.92,-0.89,-0.3,22.29,45.95,14.26,0.7,0.37,0.57,-1.04,0.27,0.92
616,1900-01-01 17:40:16.376,21.68,19.95,12.82,0.34,0.37,0.87,-1.72,-0.21,-0.53,22.19,46.29,14.4,0.72,0.38,0.58,-1.41,0.44,1.21
617,1900-01-01 17:40:16.423,21.71,19.41,12.89,0.34,0.38,0.88,0.5,-1.34,-0.69,24.95,45.21,14.57,0.72,0.43,0.57,-1.47,3.53,1.47
618,1900-01-01 17:40:16.516,20.97,21.38,12.95,0.36,0.35,0.85,0.94,-1.23,-1.05,22.21,45.45,14.79,0.68,0.36,0.57,-1.02,0.48,-1.89
619,1900-01-01 17:40:16.615,21.85,19.99,12.94,0.34,0.37,0.86,-1.96,0.48,-1.57,22.77,46.02,14.49,0.71,0.38,0.57,-1.32,-0.48,0.34
620,1900-01-01 17:40:16.653,21.32,20.12,12.86,0.35,0.37,0.87,-1.12,-0.24,-1.82,22.45,46.74,14.53,0.73,0.38,0.57,-1.11,0.86,-0.08
621,1900-01-01 17:40:16.747,22.22,20.96,12.74,0.36,0.38,0.86,0.12,0.22,-1.83,23.69,45.9,14.51,0.71,0.4,0.56,-1.3,1.53,-0.61
622,1900-01-01 17:40:16.799,21.51,19.53,12.62,0.34,0.37,0.87,0.87,0.93,-1.76,21.88,46.04,14.41,0.72,0.37,0.58,-0.86,0.95,-0.28
623,1900-01-01 17:40:16.917,21.45,19.06,12.51,0.32,0.36,0.86,0.84,0.22,-2.76,22.05,45.37,14.36,0.69,0.37,0.58,-1.5,1.3,-0.3
624,1900-01-01 17:40:16.979,21.59,20.68,12.25,0.36,0.37,0.87,-0.33,1.56,-3.88,22.84,46.79,14.3,0.72,0.38,0.56,-2.41,2.07,-0.27
625,1900-01-01 17:40:17.025,22.32,19.66,11.82,0.35,0.4,0.9,0.4,0.08,-3.95,22.25,46.24,14.26,0.75,0.39,0.6,-1.42,2.34,-2.71
626,1900-01-01 17:40:17.125,22.37,19.78,11.37,0.34,0.39,0.87,0.17,-0.85,-3.76,21.55,46.28,13.83,0.73,0.37,0.59,-1.21,-0.49,-5.22
627,1900-01-01 17:40:17.221,22.51,19.44,10.95,0.34,0.39,0.88,-0.11,-2.92,-3.59,23.26,45.57,13.03,0.72,0.4,0.58,-1.43,-0.92,-7.27
628,1900-01-01 17:40:17.259,24.07,19.72,10.56,0.34,0.42,0.87,0.4,-1.62,-3.66,25.87,44.84,11.9,0.71,0.44,0.56,-1.95,-0.09,-4.27
629,1900-01-01 17:40:17.351,23.04,20.24,10.16,0.35,0.4,0.87,1.66,-2.77,-3.74,26.58,44.14,11.24,0.7,0.45,0.56,-0.71,1.48,-5.27
630,1900-01-01 17:40:17.445,25.26,19.93,9.75,0.34,0.43,0.84,-0.92,-1.6,-2.11,27.48,42.4,10.42,0.67,0.46,0.57,-2.4,-0.43,-1.3
631,1900-01-01 17:40:17.491,24.64,19.44,9.58,0.33,0.42,0.85,0.82,-1.38,-1.82,26.82,43.71,10.22,0.68,0.44,0.55,-1.76,-0.22,-2.23
632,1900-01-01 17:40:17.587,27.06,19.37,9.46,0.33,0.46,0.83,1.47,-1.63,-0.84,28.19,41.45,9.87,0.65,0.46,0.57,-1.95,0.77,-2.03
633,1900-01-01 17:40:17.640,24.02,18.78,9.49,0.32,0.41,0.86,0.12,-1.44,-1.27,24.43,43.91,9.55,0.68,0.4,0.58,-2.11,4.39,-0.95
634,1900-01-01 17:40:17.736,23.71,19.37,9.46,0.34,0.41,0.87,-1.4,-0.9,-2.15,26.35,44.35,9.4,0.7,0.44,0.56,-1.07,3.0,0.7
635,1900-01-01 17:40:17.845,24.74,20.64,9.29,0.36,0.43,0.86,-0.53,0.21,-1.85,27.21,43.03,9.49,0.69,0.46,0.57,-0.63,2.12,-0.22
636,1900-01-01 17:40:17.877,24.43,20.83,9.17,0.36,0.41,0.84,-0.21,0.96,-1.14,27.33,43.45,9.45,0.67,0.45,0.55,-0.14,2.22,0.7
637,1900-01-01 17:40:17.959,25.37,19.32,9.15,0.34,0.44,0.86,-0.41,0.68,-0.05,27.53,42.27,9.55,0.68,0.47,0.59,-0.86,0.85,1.69
638,1900-01-01 17:40:18.052,24.84,17.99,9.3,0.32,0.43,0.87,0.65,-1.29,0.27,24.72,43.94,9.8,0.69,0.42,0.58,-2.69,4.69,-1.67
639,1900-01-01 17:40:18.099,24.49,20.52,9.5,0.34,0.4,0.81,0.07,1.34,-2.49,28.79,42.88,9.54,0.65,0.46,0.53,-2.85,0.39,-1.94
640,1900-01-01 17:40:18.191,23.45,19.55,9.28,0.34,0.4,0.87,-2.19,1.39,-1.31,25.98,43.19,9.23,0.7,0.44,0.59,-2.5,3.28,2.23
641,1900-01-01 17:40:18.284,24.36,19.56,9.24,0.34,0.42,0.86,0.17,-0.53,-1.02,26.25,42.73,9.56,0.68,0.44,0.59,0.34,1.42,0.01
642,1900-01-01 17:40:18.331,24.19,19.52,9.25,0.34,0.41,0.86,0.63,-0.08,-1.2,27.51,42.27,9.56,0.67,0.46,0.57,-0.32,0.21,0.47
643,1900-01-01 17:40:18.424,24.13,18.99,9.22,0.33,0.41,0.86,-0.45,0.08,-0.65,26.76,42.95,9.62,0.69,0.45,0.58,-1.56,0.9,2.15
644,1900-01-01 17:40:18.471,25.77,19.15,9.28,0.33,0.44,0.84,0.54,-0.57,-0.78,26.13,41.63,9.94,0.64,0.43,0.58,-3.21,1.96,-1.05
645,1900-01-01 17:40:18.549,25.02,18.66,9.32,0.32,0.42,0.84,-1.8,1.58,-1.36,26.24,43.33,9.77,0.67,0.43,0.57,-2.6,1.32,-0.16
646,1900-01-01 17:40:18.621,23.85,18.33,9.28,0.32,0.41,0.87,-0.53,-0.9,-1.33,25.32,43.08,9.74,0.69,0.43,0.6,-1.09,3.02,1.29
647,1900-01-01 17:40:18.702,25.09,19.93,9.23,0.34,0.42,0.83,0.39,-0.08,-1.41,27.47,42.54,9.92,0.66,0.45,0.56,-0.15,1.92,-0.37
648,1900-01-01 17:40:18.796,24.83,17.65,9.18,0.31,0.42,0.87,0.5,-0.09,-1.41,25.6,42.65,9.86,0.67,0.43,0.59,-0.6,1.25,-0.55
649,1900-01-01 17:40:18.891,24.55,18.73,9.12,0.32,0.42,0.86,-0.21,0.99,-1.28,26.82,42.22,9.77,0.67,0.45,0.59,-1.55,1.95,1.55
650,1900-01-01 17:40:18.938,24.77,18.6,9.08,0.33,0.43,0.87,-0.69,1.15,-0.9,25.72,43.62,9.99,0.7,0.44,0.59,-1.46,2.08,0.82
651,1900-01-01 17:40:19.032,25.33,18.63,9.1,0.32,0.43,0.85,-0.19,-0.1,-1.16,27.26,41.03,10.11,0.65,0.45,0.59,-0.78,3.33,1.5
652,1900-01-01 17:40:19.080,25.94,19.54,9.09,0.33,0.43,0.81,0.65,1.07,-2.33,26.06,42.24,10.33,0.65,0.42,0.57,-3.44,-1.47,-2.96
653,1900-01-01 17:40:19.172,24.83,17.59,8.89,0.31,0.43,0.87,-2.02,0.05,-1.61,25.14,42.5,9.87,0.68,0.43,0.6,-2.94,3.23,-2.32
654,1900-01-01 17:40:19.267,24.8,18.14,8.8,0.32,0.43,0.87,-0.53,-1.14,-0.85,25.43,42.43,9.51,0.68,0.44,0.61,0.15,1.41,0.01
655,1900-01-01 17:40:19.312,25.98,18.68,8.83,0.32,0.44,0.84,0.18,0.11,-1.32,27.39,41.54,9.5,0.65,0.45,0.58,0.66,-1.95,-1.05
656,1900-01-01 17:40:19.406,24.09,18.31,8.79,0.32,0.42,0.87,-2.17,-0.48,-0.68,25.57,43.15,9.33,0.68,0.43,0.59,-3.21,1.73,0.29
657,1900-01-01 17:40:19.530,24.42,17.71,8.85,0.31,0.42,0.88,-3.85,-2.11,-1.42,25.64,43.19,9.37,0.68,0.43,0.58,-3.87,4.73,0.16
658,1900-01-01 17:40:19.561,24.25,18.27,8.79,0.31,0.41,0.85,-1.18,-2.47,-2.24,25.51,40.8,9.38,0.64,0.42,0.61,-1.87,5.91,-4.95
659,1900-01-01 17:40:19.666,24.72,18.28,8.61,0.31,0.41,0.85,-2.74,-0.17,-1.53,23.98,41.95,8.62,0.65,0.39,0.6,-1.33,2.41,-1.09
660,1900-01-01 17:40:19.694,24.56,18.71,8.53,0.33,0.43,0.88,0.67,-1.55,-3.34,26.15,41.06,8.45,0.66,0.44,0.62,-1.56,1.07,-9.17
661,1900-01-01 17:40:19.781,23.09,17.73,8.18,0.31,0.39,0.87,1.64,-2.73,-2.72,30.51,37.37,7.04,0.61,0.51,0.62,-3.44,7.55,-14.92
662,1900-01-01 17:40:19.875,24.66,19.08,7.92,0.33,0.42,0.85,-0.5,-0.07,-0.49,32.57,35.43,4.76,0.58,0.54,0.62,-2.92,2.72,2.62
663,1900-01-01 17:40:19.922,26.05,19.04,8.01,0.34,0.46,0.88,-3.45,0.76,1.15,24.47,39.28,5.15,0.63,0.41,0.65,-7.24,6.24,11.69
664,1900-01-01 17:40:20.011,23.58,17.85,8.34,0.3,0.39,0.85,-0.77,1.21,-1.79,25.5,36.92,6.92,0.58,0.42,0.65,-1.3,5.25,2.1
665,1900-01-01 17:40:20.105,24.24,18.53,8.23,0.32,0.41,0.86,-3.23,1.34,-2.44,26.46,38.88,7.23,0.62,0.44,0.63,-4.28,1.92,5.6
666,1900-01-01 17:40:20.153,23.27,18.04,8.02,0.31,0.4,0.87,-0.75,0.47,-3.66,24.94,38.68,8.07,0.63,0.42,0.66,-4.13,-3.55,1.57
667,1900-01-01 17:40:20.248,24.7,18.23,7.62,0.31,0.42,0.86,-0.95,-0.9,-2.4,25.44,39.0,8.3,0.62,0.42,0.63,-2.19,-2.73,0.69
668,1900-01-01 17:40:20.353,23.77,16.75,7.41,0.29,0.4,0.87,-1.74,-0.53,-1.53,23.46,40.06,8.39,0.63,0.39,0.64,-2.27,-0.66,-0.32
669,1900-01-01 17:40:20.387,23.71,16.76,7.33,0.29,0.4,0.87,-1.07,-0.88,-1.43,24.62,39.79,8.34,0.63,0.41,0.63,-1.56,0.11,-0.16
670,1900-01-01 17:40:20.480,22.54,17.64,7.28,0.3,0.37,0.85,0.55,1.47,-3.21,22.01,38.79,8.3,0.64,0.38,0.7,0.74,-10.72,-4.08
671,1900-01-01 17:40:20.527,22.57,18.96,6.95,0.32,0.38,0.86,2.56,-1.85,-3.09,29.29,40.01,7.68,0.61,0.47,0.56,5.85,-5.1,-6.78
672,1900-01-01 17:40:20.621,25.07,18.89,6.63,0.33,0.43,0.86,-1.18,0.28,-0.92,27.43,42.72,6.64,0.67,0.46,0.57,3.01,-0.41,2.14
673,1900-01-01 17:40:20.728,23.77,16.67,6.65,0.29,0.41,0.89,4.85,-1.97,-1.84,25.34,42.21,6.95,0.67,0.43,0.61,4.16,3.92,-4.78
674,1900-01-01 17:40:20.762,25.99,18.17,6.53,0.31,0.44,0.84,0.88,-1.35,-1.98,29.5,41.0,6.22,0.64,0.48,0.55,-1.01,0.6,-1.05
675,1900-01-01 17:40:20.857,26.21,17.83,6.39,0.31,0.45,0.85,0.77,0.08,-2.52,27.99,40.36,6.05,0.65,0.47,0.6,-1.6,1.82,-1.91
676,1900-01-01 17:40:20.902,25.49,17.8,6.17,0.31,0.43,0.85,0.9,-1.5,-2.68,29.43,40.28,5.75,0.64,0.49,0.58,-0.51,1.76,-2.4
677,1900-01-01 17:40:21.034,26.4,18.07,5.92,0.31,0.45,0.85,-0.44,-0.78,-1.95,29.7,39.33,5.38,0.64,0.5,0.6,-1.8,1.95,-0.92
678,1900-01-01 17:40:21.070,26.3,18.07,5.78,0.31,0.45,0.85,0.27,-1.26,-0.73,28.35,40.74,5.23,0.64,0.47,0.58,-1.24,2.07,-0.24
679,1900-01-01 17:40:21.148,26.9,17.91,5.82,0.31,0.46,0.84,-0.47,-0.4,-0.48,29.0,39.66,5.18,0.63,0.48,0.59,-1.69,1.36,0.61
680,1900-01-01 17:40:21.231,26.16,18.01,5.91,0.31,0.44,0.85,-0.93,-0.6,-0.68,28.28,40.29,5.27,0.64,0.47,0.59,-1.99,1.02,0.62
681,1900-01-01 17:40:21.325,26.53,18.13,5.97,0.31,0.45,0.85,-1.29,-0.26,-0.56,28.55,39.81,5.35,0.64,0.47,0.6,-2.51,0.88,0.85
682,1900-01-01 17:40:21.373,25.63,17.95,6.04,0.31,0.44,0.86,-0.67,-0.46,-0.45,28.42,40.27,5.47,0.64,0.47,0.59,-1.92,1.19,0.59
683,1900-01-01 17:40:21.466,25.66,18.26,6.13,0.32,0.44,0.85,-1.37,0.11,-0.6,27.02,41.24,5.55,0.65,0.45,0.59,-1.64,1.0,0.15
684,1900-01-01 17:40:21.514,26.08,18.3,6.2,0.32,0.44,0.85,-0.43,-0.95,-0.91,28.45,40.2,5.57,0.63,0.47,0.59,-1.22,1.09,0.02
685,1900-01-01 17:40:21.606,26.02,17.95,6.22,0.31,0.44,0.85,-0.97,-0.21,-0.69,27.52,40.57,5.56,0.64,0.46,0.59,-1.87,0.81,0.15
686,1900-01-01 17:40:21.701,25.78,18.17,6.27,0.31,0.44,0.85,-1.15,0.18,-0.31,27.87,40.47,5.58,0.64,0.46,0.6,-1.81,1.22,0.36
687,1900-01-01 17:40:21.747,26.34,17.9,6.38,0.31,0.44,0.84,-0.97,-0.3,-0.27,28.05,39.84,5.62,0.62,0.46,0.59,-2.4,0.43,-0.31
688,1900-01-01 17:40:21.840,28.37,17.67,6.5,0.31,0.49,0.85,-12.85,1.63,0.76,31.87,38.46,5.57,0.61,0.52,0.57,-16.34,0.78,10.69
689,1900-01-01 17:40:21.889,24.02,17.96,6.77,0.32,0.43,0.9,-8.45,4.27,4.68,22.89,43.12,7.19,0.7,0.4,0.63,-12.02,7.52,10.4
690,1900-01-01 17:40:22.035,18.62,16.62,7.64,0.29,0.32,0.9,-1.89,2.34,2.69,20.89,42.14,8.76,0.67,0.36,0.65,-1.24,5.75,3.76
691,1900-01-01 17:40:22.074,19.75,18.02,8.21,0.3,0.33,0.87,-2.23,1.8,0.42,20.73,42.64,9.32,0.66,0.34,0.63,0.49,1.46,2.47
692,1900-01-01 17:40:22.123,22.26,17.44,8.43,0.3,0.38,0.88,-0.2,0.56,-0.02,24.3,40.68,9.69,0.65,0.41,0.63,1.01,-0.58,1.6
693,1900-01-01 17:40:22.215,20.99,16.96,8.59,0.3,0.37,0.91,-1.26,1.83,1.26,20.6,43.23,9.92,0.69,0.35,0.64,-0.67,0.35,1.79
694,1900-01-01 17:40:22.337,20.07,16.69,8.93,0.29,0.34,0.89,1.86,-0.92,-0.79,22.34,41.73,10.19,0.66,0.37,0.63,1.26,-0.46,-0.47
695,1900-01-01 17:40:22.367,21.92,16.81,8.97,0.29,0.38,0.9,1.3,-0.86,-1.02,23.6,42.1,10.11,0.67,0.4,0.63,1.18,2.15,0.11
696,1900-01-01 17:40:22.436,23.28,17.86,8.98,0.3,0.39,0.86,0.66,-0.38,-0.89,23.7,41.61,10.11,0.64,0.39,0.61,-2.16,-1.53,-1.85
697,1900-01-01 17:40:22.526,22.24,16.59,9.0,0.29,0.39,0.9,-3.43,0.99,0.18,22.58,42.55,9.82,0.69,0.39,0.64,-4.54,0.53,3.48
698,1900-01-01 17:40:22.579,20.87,17.09,9.19,0.3,0.37,0.91,-0.04,-0.47,1.71,22.15,43.11,10.34,0.69,0.38,0.63,-0.77,1.46,2.28
699,1900-01-01 17:40:22.678,20.65,17.65,9.6,0.31,0.36,0.89,-1.29,-1.01,1.23,21.83,43.35,10.68,0.68,0.37,0.62,-0.44,0.43,2.28
700,1900-01-01 17:40:22.795,21.82,18.11,9.95,0.31,0.38,0.89,-1.69,-0.46,1.5,22.38,43.82,11.02,0.68,0.38,0.61,-0.45,0.69,2.83
701,1900-01-01 17:40:22.852,21.28,17.64,10.34,0.31,0.37,0.89,-0.65,-0.34,1.88,21.17,43.79,11.44,0.69,0.36,0.62,0.08,0.72,2.36
702,1900-01-01 17:40:22.885,20.31,17.87,10.78,0.31,0.35,0.88,-0.53,-0.1,1.11,21.56,43.66,11.79,0.67,0.36,0.61,0.13,0.36,1.74
703,1900-01-01 17:40:22.969,19.89,17.59,11.11,0.3,0.34,0.89,-0.92,0.06,-0.04,20.24,44.9,12.05,0.7,0.34,0.61,-0.11,2.0,0.58
704,1900-01-01 17:40:23.058,21.48,18.3,11.26,0.32,0.37,0.88,0.87,-0.83,-0.89,23.08,42.73,12.13,0.68,0.39,0.62,-0.29,1.24,0.21
705,1900-01-01 17:40:23.103,19.96,17.7,11.28,0.31,0.35,0.9,0.39,-0.5,-0.6,21.8,44.06,12.15,0.7,0.38,0.62,0.59,3.4,0.38
706,1900-01-01 17:40:23.236,19.86,18.61,11.35,0.31,0.33,0.86,1.37,-0.11,-1.15,22.62,43.35,12.2,0.65,0.36,0.58,-1.27,0.5,-1.63
707,1900-01-01 17:40:23.269,20.42,18.08,11.33,0.31,0.35,0.89,-2.59,2.02,-1.9,21.45,44.41,11.94,0.7,0.36,0.61,-3.18,1.81,1.14
708,1900-01-01 17:40:23.337,20.9,17.55,11.2,0.31,0.36,0.9,0.42,0.1,-2.17,21.93,43.73,12.11,0.7,0.38,0.62,-0.72,1.07,-0.51
709,1900-01-01 17:40:23.432,21.03,17.11,11.03,0.29,0.36,0.88,0.19,0.49,-2.01,22.26,43.22,12.02,0.67,0.37,0.61,-0.02,1.58,-0.19
710,1900-01-01 17:40:23.526,20.29,16.63,10.88,0.29,0.35,0.9,-0.73,1.21,-2.23,20.51,43.55,11.98,0.68,0.34,0.62,-1.56,0.63,1.47
711,1900-01-01 17:40:23.571,20.45,17.42,10.7,0.3,0.35,0.89,-0.43,0.64,-3.15,21.94,43.88,12.2,0.69,0.37,0.61,-1.58,1.37,-0.28
712,1900-01-01 17:40:23.667,22.03,18.34,10.38,0.32,0.38,0.89,-0.02,0.61,-2.43,22.69,43.86,12.15,0.7,0.39,0.62,-0.18,1.02,-0.86
713,1900-01-01 17:40:23.773,20.52,16.38,10.17,0.29,0.36,0.92,3.65,-2.73,-2.89,23.62,44.23,12.01,0.71,0.41,0.6,3.55,-1.64,-6.33
714,1900-01-01 17:40:23.816,21.74,17.51,9.88,0.3,0.37,0.88,-0.76,-1.4,-2.44,23.2,44.22,11.03,0.68,0.39,0.59,0.49,0.67,-3.31
715,1900-01-01 17:40:23.882,22.4,16.64,9.67,0.28,0.37,0.86,3.09,-0.63,-2.38,22.96,43.51,10.52,0.66,0.37,0.58,2.21,1.33,-3.9
716,1900-01-01 17:40:23.983,23.22,16.1,9.47,0.28,0.4,0.89,0.77,-0.34,-2.72,25.18,42.41,9.92,0.68,0.43,0.61,-1.2,2.21,-1.43
717,1900-01-01 17:40:24.022,22.12,17.64,9.21,0.31,0.38,0.89,1.39,-0.08,-2.19,25.12,43.12,9.69,0.69,0.43,0.6,-0.82,3.62,-1.24
718,1900-01-01 17:40:24.116,22.76,16.8,9.04,0.29,0.39,0.89,-0.16,-0.08,-1.65,24.26,42.86,9.49,0.68,0.41,0.61,-1.56,2.81,-0.9
719,1900-01-01 17:40:24.211,23.74,16.97,8.94,0.29,0.4,0.87,-0.4,-0.29,-1.22,25.28,41.74,9.35,0.65,0.42,0.6,-1.76,2.01,0.31
720,1900-01-01 17:40:24.256,22.76,16.8,8.92,0.29,0.39,0.87,1.23,0.06,-1.61,24.58,42.28,9.39,0.66,0.41,0.6,-0.41,2.67,-1.49
721,1900-01-01 17:40:24.346,24.11,16.33,8.83,0.28,0.4,0.86,0.43,0.61,-2.57,25.57,41.13,9.15,0.64,0.42,0.6,-0.9,2.35,-1.26
722,1900-01-01 17:40:24.440,24.17,15.88,8.6,0.27,0.41,0.87,0.35,1.51,-2.12,25.71,41.01,8.95,0.65,0.43,0.61,-0.82,2.64,-0.33
723,1900-01-01 17:40:24.490,23.13,16.39,8.43,0.29,0.4,0.89,0.48,0.56,-1.99,24.6,42.29,8.89,0.68,0.42,0.62,-1.19,2.75,-1.2
724,1900-01-01 17:40:24.582,25.17,16.07,8.29,0.28,0.43,0.86,0.67,0.44,-1.27,26.7,39.97,8.7,0.63,0.44,0.61,-0.92,2.45,-0.73
725,1900-01-01 17:40:24.636,23.48,15.36,8.26,0.26,0.4,0.88,-0.07,1.99,-1.6,23.83,41.51,8.58,0.65,0.4,0.62,-1.43,2.82,-0.27
726,1900-01-01 17:40:24.723,24.05,15.38,8.17,0.27,0.41,0.88,1.48,0.87,-2.5,24.89,40.61,8.53,0.65,0.42,0.63,-0.79,3.5,-2.24
727,1900-01-01 17:40:24.819,24.33,15.92,7.95,0.28,0.42,0.89,-0.35,-0.24,-1.68,25.6,40.69,8.19,0.66,0.44,0.63,-1.34,1.98,-0.57
728,1900-01-01 17:40:24.862,25.26,15.41,7.85,0.27,0.43,0.87,0.82,-1.75,-1.58,26.47,39.71,8.09,0.63,0.44,0.62,-0.57,1.53,-1.82
729,1900-01-01 17:40:24.957,25.21,15.49,7.77,0.27,0.43,0.87,0.25,-0.44,-0.98,26.02,39.91,7.8,0.64,0.44,0.62,-1.56,1.71,-0.25
730,1900-01-01 17:40:25.074,24.87,15.42,7.78,0.27,0.43,0.89,0.31,-1.28,-1.12,25.56,39.94,7.76,0.64,0.43,0.63,-0.91,1.3,-0.78
731,1900-01-01 17:40:25.108,24.44,15.5,7.77,0.27,0.41,0.87,-0.53,-0.36,-0.86,25.57,39.94,7.63,0.63,0.43,0.62,-1.61,1.5,0.18
732,1900-01-01 17:40:25.218,25.4,15.07,7.8,0.26,0.43,0.87,-0.53,-0.39,-1.25,26.33,39.3,7.65,0.63,0.44,0.63,-1.91,1.68,0.09
733,1900-01-01 17:40:25.249,24.72,15.81,7.76,0.28,0.42,0.88,-0.36,-0.74,-1.05,25.23,40.35,7.66,0.65,0.42,0.63,-1.25,1.36,-0.65
734,1900-01-01 17:40:25.334,25.03,15.91,7.76,0.28,0.43,0.87,-0.39,-1.39,-0.97,26.27,39.49,7.55,0.63,0.44,0.63,-0.7,1.11,-0.58
735,1900-01-01 17:40:25.436,24.62,15.88,7.77,0.28,0.42,0.87,-0.69,-1.35,-1.06,25.64,39.85,7.45,0.64,0.43,0.63,-1.01,1.11,-0.56
736,1900-01-01 17:40:25.474,25.21,15.51,7.77,0.26,0.42,0.85,0.37,-0.85,-1.56,26.06,39.42,7.36,0.61,0.43,0.62,-0.72,1.03,-1.11
737,1900-01-01 17:40:25.567,25.81,16.07,7.69,0.28,0.44,0.87,0.05,-1.43,-1.55,27.03,39.1,7.18,0.63,0.45,0.62,-1.21,0.86,-0.79
738,1900-01-01 17:40:25.616,24.79,16.43,7.61,0.29,0.42,0.87,-0.04,-1.52,-1.46,26.41,39.85,7.05,0.64,0.44,0.62,-1.41,1.28,-0.88
739,1900-01-01 17:40:25.756,25.64,16.02,7.55,0.28,0.44,0.87,-1.3,-1.03,-1.12,26.44,39.26,6.91,0.63,0.44,0.63,-1.44,0.82,-0.26
740,1900-01-01 17:40:25.800,25.59,16.26,7.54,0.28,0.43,0.86,-0.77,-1.38,-0.98,27.23,39.2,6.86,0.62,0.45,0.61,-1.52,0.71,-0.23
741,1900-01-01 17:40:25.846,25.46,16.52,7.55,0.29,0.43,0.86,-1.52,-0.54,-0.4,25.89,39.97,6.82,0.64,0.43,0.63,-1.84,0.46,1.02
742,1900-01-01 17:40:25.939,24.68,16.76,7.64,0.29,0.42,0.87,0.31,-1.89,-1.19,26.0,40.1,6.96,0.64,0.43,0.62,-0.26,0.33,-1.26
743,1900-01-01 17:40:26.034,24.83,16.96,7.62,0.3,0.43,0.88,-0.76,-1.73,-0.9,26.06,40.34,6.76,0.66,0.44,0.63,-0.49,0.92,-0.92
744,1900-01-01 17:40:26.080,25.37,17.87,7.64,0.31,0.44,0.87,-1.28,-1.99,-0.17,27.47,39.53,6.62,0.63,0.46,0.61,-1.26,-0.08,0.58
745,1900-01-01 17:40:26.174,23.96,17.16,7.78,0.3,0.41,0.88,-2.0,-1.47,0.32,25.67,40.53,6.69,0.65,0.43,0.62,-1.1,0.15,1.67
746,1900-01-01 17:40:26.316,24.35,17.8,7.98,0.31,0.41,0.86,-2.83,-1.5,0.09,26.4,40.37,6.94,0.64,0.44,0.61,-1.85,-0.64,2.32
747,1900-01-01 17:40:26.316,24.49,18.85,8.16,0.32,0.41,0.85,-1.55,-1.77,0.26,27.06,39.99,7.28,0.63,0.44,0.6,0.2,-3.5,2.2
748,1900-01-01 17:40:26.406,25.2,18.7,8.35,0.32,0.43,0.86,-4.12,-0.03,1.08,27.08,41.78,7.61,0.65,0.45,0.58,-1.57,-6.13,7.01
749,1900-01-01 17:40:26.452,24.58,17.07,8.68,0.3,0.42,0.88,-5.55,-0.98,1.73,26.21,42.76,8.67,0.69,0.45,0.59,-1.51,-4.96,7.89
750,1900-01-01 17:40:26.545,22.55,17.73,9.1,0.31,0.39,0.88,-3.85,-0.37,3.47,22.96,45.34,9.86,0.7,0.39,0.58,-0.9,-1.94,6.89
751,1900-01-01 17:40:26.646,23.94,19.18,9.78,0.34,0.42,0.88,-4.82,0.62,4.07,23.33,46.65,10.9,0.72,0.39,0.56,-1.29,-1.66,8.97
752,1900-01-01 17:40:26.697,21.23,18.92,10.56,0.33,0.36,0.88,-2.47,-0.05,3.37,22.43,46.59,12.25,0.72,0.38,0.57,0.68,-0.11,4.69
753,1900-01-01 17:40:26.777,21.51,19.92,11.23,0.34,0.37,0.87,-2.91,-0.38,3.27,22.11,48.47,12.96,0.74,0.37,0.54,0.31,-0.87,4.63
754,1900-01-01 17:40:26.869,21.02,19.84,11.89,0.34,0.36,0.88,-1.47,-1.35,2.79,22.28,48.03,13.66,0.74,0.38,0.55,1.02,-1.53,3.38
755,1900-01-01 17:40:26.917,19.86,19.68,12.47,0.34,0.34,0.88,-0.73,-0.73,2.29,21.87,48.88,14.17,0.74,0.37,0.54,1.2,-0.27,2.18
756,1900-01-01 17:40:27.011,19.52,19.42,12.98,0.34,0.34,0.9,-1.85,-0.27,2.44,20.43,50.32,14.49,0.77,0.35,0.53,0.85,-0.67,3.1
757,1900-01-01 17:40:27.195,19.1,20.42,13.51,0.35,0.33,0.88,-0.54,-1.16,1.05,22.01,49.11,14.95,0.75,0.37,0.54,0.79,-0.53,2.33
758,1900-01-01 17:40:27.195,19.27,20.79,13.83,0.36,0.34,0.89,-2.27,-0.71,1.83,21.41,50.27,15.3,0.77,0.37,0.53,-0.26,-0.64,2.93
759,1900-01-01 17:40:27.230,19.14,20.24,14.27,0.35,0.33,0.89,-0.87,-1.44,1.33,21.19,50.97,15.74,0.78,0.36,0.52,0.18,-0.49,1.43
760,1900-01-01 17:40:27.324,19.81,20.49,14.63,0.35,0.34,0.88,-1.18,-0.72,2.05,22.29,49.76,15.95,0.76,0.38,0.52,0.31,-1.48,3.67
761,1900-01-01 17:40:27.371,17.81,20.91,15.1,0.36,0.31,0.88,-0.87,-0.43,2.56,19.83,51.92,16.5,0.78,0.34,0.51,0.99,0.36,3.21
762,1900-01-01 17:40:27.609,17.02,20.56,15.65,0.35,0.29,0.88,-1.0,-0.48,0.18,18.3,52.89,16.98,0.78,0.31,0.5,-0.34,1.19,-0.58
763,1900-01-01 17:40:27.609,18.58,20.82,15.83,0.36,0.32,0.88,-0.29,-0.67,-0.92,21.11,51.38,16.88,0.78,0.36,0.51,-0.45,0.28,-0.23
764,1900-01-01 17:40:27.609,18.5,21.38,15.85,0.37,0.32,0.89,-0.44,-0.18,-0.78,21.01,51.59,16.84,0.78,0.36,0.51,-1.34,1.09,-0.79
765,1900-01-01 17:40:27.678,18.56,20.82,15.89,0.36,0.32,0.89,-0.9,0.08,-0.98,20.36,51.97,16.71,0.78,0.35,0.5,-1.62,1.05,0.08
766,1900-01-01 17:40:27.758,19.31,21.02,15.9,0.37,0.34,0.9,-1.35,0.4,-1.2,21.34,51.57,16.71,0.79,0.37,0.51,-1.9,1.51,0.06
767,1900-01-01 17:40:27.825,19.05,21.16,15.87,0.37,0.33,0.89,-0.89,0.05,-0.83,21.53,51.62,16.71,0.78,0.37,0.5,-1.6,1.81,0.22
768,1900-01-01 17:40:27.900,17.97,21.11,15.91,0.36,0.31,0.88,-0.6,0.11,-1.08,20.87,51.69,16.74,0.78,0.36,0.51,-1.39,1.48,-0.53
769,1900-01-01 17:40:28.018,17.78,21.17,15.9,0.37,0.31,0.89,-0.01,-0.1,-0.95,20.97,51.54,16.65,0.78,0.36,0.51,-1.15,1.33,-0.27
770,1900-01-01 17:40:28.061,18.81,19.87,15.91,0.34,0.32,0.89,-0.4,0.15,-0.87,20.67,50.99,16.6,0.76,0.35,0.51,-1.82,2.14,-0.88
771,1900-01-01 17:40:28.158,18.51,19.54,15.94,0.34,0.32,0.89,-1.47,0.24,-1.38,19.82,51.1,16.46,0.78,0.34,0.53,-2.77,2.38,-0.35
772,1900-01-01 17:40:28.249,18.32,21.13,15.89,0.35,0.31,0.86,0.05,-0.71,-2.82,21.71,51.89,16.4,0.73,0.35,0.46,-6.61,3.4,-3.5
773,1900-01-01 17:40:28.296,18.4,22.72,15.61,0.39,0.32,0.87,-2.37,3.76,-4.83,22.2,51.67,15.85,0.78,0.38,0.49,-4.95,17.32,-11.38
774,1900-01-01 17:40:28.390,17.79,20.72,15.03,0.37,0.32,0.93,0.67,0.98,-2.18,19.44,47.95,14.1,0.78,0.35,0.61,1.56,11.46,-3.82
775,1900-01-01 17:40:28.436,19.57,19.07,14.86,0.32,0.33,0.87,2.63,-1.11,-6.19,20.84,44.7,13.51,0.68,0.34,0.59,-1.1,1.08,-5.76
776,1900-01-01 17:40:28.529,20.8,17.5,14.07,0.3,0.36,0.89,-0.84,-0.52,-6.34,22.94,44.02,12.62,0.69,0.39,0.6,-3.14,-3.79,-2.16
777,1900-01-01 17:40:28.621,21.13,19.74,13.26,0.35,0.37,0.9,1.84,-0.31,-6.44,25.02,45.39,12.28,0.72,0.43,0.57,-3.81,-0.81,-3.5
778,1900-01-01 17:40:28.669,22.02,18.66,12.43,0.33,0.38,0.89,0.9,0.65,-4.58,23.62,46.25,11.73,0.72,0.4,0.56,-2.82,0.76,-3.3
779,1900-01-01 17:40:28.762,20.69,18.75,11.89,0.33,0.36,0.89,0.66,-0.44,-4.76,22.6,46.28,11.22,0.72,0.38,0.57,-2.63,1.21,-3.98
780,1900-01-01 17:40:28.857,22.9,19.41,11.32,0.33,0.39,0.86,1.21,-0.27,-5.33,26.65,44.77,10.61,0.69,0.44,0.54,-1.58,1.08,-4.04
781,1900-01-01 17:40:28.902,23.61,19.47,10.66,0.34,0.41,0.87,1.21,1.25,-3.57,26.4,43.4,9.98,0.7,0.45,0.58,-1.55,-0.11,-0.95
782,1900-01-01 17:40:28.996,22.54,17.89,10.28,0.31,0.39,0.88,2.03,-0.68,-2.25,25.51,45.33,9.83,0.71,0.43,0.55,-1.07,1.43,-2.05
783,1900-01-01 17:40:29.044,22.39,18.08,10.09,0.31,0.38,0.88,0.16,-0.03,-1.88,24.75,46.03,9.51,0.71,0.42,0.55,-1.91,0.78,-0.89
784,1900-01-01 17:40:29.167,22.74,17.85,9.97,0.31,0.39,0.88,-0.15,-0.6,-3.0,25.79,44.13,9.36,0.69,0.43,0.57,-1.84,0.66,-1.8
785,1900-01-01 17:40:29.231,23.53,17.72,9.67,0.31,0.41,0.88,-0.5,-0.63,-2.45,25.1,45.35,9.08,0.71,0.42,0.56,-2.08,0.48,-2.05
786,1900-01-01 17:40:29.278,23.35,17.83,9.45,0.31,0.41,0.89,0.12,-0.81,-2.31,26.34,44.25,8.76,0.71,0.45,0.57,-1.4,0.79,-1.14
787,1900-01-01 17:40:29.371,22.91,18.22,9.26,0.32,0.39,0.88,-0.53,-0.08,-1.17,26.61,44.67,8.58,0.7,0.45,0.55,-0.88,1.34,0.74
788,1900-01-01 17:40:29.464,23.0,18.39,9.24,0.31,0.39,0.86,-0.29,-0.04,-0.71,25.89,44.03,8.68,0.67,0.42,0.55,-1.72,3.11,-0.18
789,1900-01-01 17:40:29.511,24.67,18.13,9.29,0.31,0.42,0.85,-0.97,1.48,-0.52,27.32,43.39,8.64,0.68,0.45,0.55,-2.83,1.35,-0.66
790,1900-01-01 17:40:29.605,23.97,17.26,9.37,0.3,0.41,0.87,0.01,0.7,0.68,25.89,43.03,8.54,0.68,0.44,0.59,-3.47,2.56,1.78
791,1900-01-01 17:40:29.882,22.8,18.03,9.63,0.31,0.39,0.87,-1.48,0.6,1.14,24.61,45.79,8.8,0.71,0.41,0.55,-1.14,3.26,2.63
792,1900-01-01 17:40:29.882,23.09,18.61,9.96,0.33,0.4,0.88,-1.39,1.73,1.18,25.14,44.71,9.19,0.72,0.43,0.58,-1.31,2.76,3.53
793,1900-01-01 17:40:29.882,21.94,18.47,10.3,0.33,0.38,0.9,0.33,0.51,1.79,24.68,44.56,9.71,0.72,0.43,0.59,0.3,2.73,4.32
794,1900-01-01 17:40:29.882,22.21,17.37,10.73,0.3,0.38,0.89,-1.48,0.19,2.46,23.45,45.3,10.36,0.71,0.4,0.58,-0.13,2.03,4.98
795,1900-01-01 17:40:29.972,22.34,16.82,11.26,0.29,0.38,0.88,-1.5,0.15,2.01,22.71,44.54,11.11,0.69,0.38,0.59,0.88,-0.04,3.69
796,1900-01-01 17:40:30.055,20.53,16.47,11.72,0.28,0.35,0.88,-1.14,0.02,0.76,22.26,46.5,11.66,0.72,0.38,0.57,0.72,2.63,3.54
797,1900-01-01 17:40:30.159,22.35,17.4,12.0,0.31,0.39,0.9,-1.25,-1.15,0.56,20.95,44.36,12.19,0.7,0.36,0.62,-1.73,4.47,0.5
798,1900-01-01 17:40:30.193,22.98,19.34,12.24,0.32,0.38,0.83,-0.22,0.6,-1.42,25.41,44.83,12.26,0.66,0.4,0.53,-3.26,-0.77,0.39
799,1900-01-01 17:40:30.275,20.61,17.39,12.18,0.3,0.36,0.89,-1.21,1.66,-2.08,20.99,46.25,12.31,0.73,0.36,0.6,-2.01,2.89,-0.66
800,1900-01-01 17:40:30.369,22.17,17.67,12.02,0.31,0.38,0.89,-0.37,-0.4,-2.05,22.77,44.91,12.2,0.7,0.39,0.59,0.41,1.31,-2.11
801,1900-01-01 17:40:30.415,22.02,16.49,11.87,0.29,0.38,0.89,0.28,-0.79,-1.96,21.96,44.55,11.87,0.69,0.37,0.6,0.01,2.45,-3.08
802,1900-01-01 17:40:30.509,21.96,17.23,11.73,0.3,0.38,0.88,-0.61,-0.35,-2.67,23.43,45.13,11.39,0.7,0.39,0.57,-2.11,0.39,-2.15
803,1900-01-01 17:40:30.603,22.98,18.12,11.48,0.31,0.39,0.87,0.53,0.21,-2.76,24.45,44.54,11.05,0.7,0.41,0.58,-1.85,1.34,-3.32
804,1900-01-01 17:40:30.649,21.92,17.85,11.22,0.31,0.38,0.88,-0.19,0.01,-2.79,24.43,44.39,10.54,0.7,0.41,0.58,-2.28,0.28,-3.99
805,1900-01-01 17:40:30.743,22.86,17.82,10.95,0.31,0.4,0.89,-0.85,-0.5,-2.34,24.98,44.29,9.92,0.7,0.42,0.58,-3.44,-0.43,-3.09
806,1900-01-01 17:40:30.880,23.24,16.79,10.75,0.29,0.4,0.88,0.53,-1.06,-2.32,24.81,43.63,9.44,0.68,0.42,0.58,-2.6,-0.92,-2.05
807,1900-01-01 17:40:30.880,22.29,17.17,10.55,0.3,0.38,0.89,1.82,-1.27,-2.47,26.02,43.68,9.12,0.69,0.44,0.57,-0.76,0.94,-3.8
808,1900-01-01 17:40:30.978,22.23,16.76,10.33,0.29,0.38,0.89,0.89,-1.77,-1.79,24.56,44.07,8.53,0.69,0.41,0.58,0.3,0.32,-2.82
809,1900-01-01 17:40:31.050,23.27,17.54,10.22,0.3,0.39,0.86,0.96,-1.32,-3.18,26.67,43.36,8.09,0.67,0.44,0.56,-1.27,0.17,-3.4
810,1900-01-01 17:40:31.126,24.2,17.46,9.89,0.3,0.42,0.87,-0.14,-0.78,-2.7,26.36,43.25,7.57,0.69,0.45,0.58,-1.65,0.66,-1.87
811,1900-01-01 17:40:31.221,23.5,17.42,9.64,0.3,0.4,0.87,-0.05,-1.64,-2.58,26.69,42.84,7.27,0.68,0.45,0.58,-1.37,0.78,-2.02
812,1900-01-01 17:40:33.097,23.68,17.59,9.4,0.3,0.4,0.86,-0.75,-0.65,-2.62,26.67,43.51,6.96,0.67,0.44,0.56,-1.82,0.66,-1.51
813,1900-01-01 17:40:33.097,24.1,17.24,9.16,0.3,0.41,0.86,-0.66,-0.25,-3.06,26.57,42.82,6.72,0.67,0.44,0.57,-1.79,1.22,-1.6
814,1900-01-01 17:40:33.097,25.51,16.99,8.86,0.29,0.43,0.86,-0.27,0.0,-2.43,28.71,41.8,6.47,0.66,0.48,0.56,-1.81,0.74,-0.23
815,1900-01-01 17:40:33.097,23.44,15.93,8.64,0.28,0.41,0.9,-1.53,-0.57,-1.79,25.35,43.15,6.42,0.7,0.44,0.61,-2.79,3.37,0.43
816,1900-01-01 17:40:33.097,26.57,18.28,8.53,0.31,0.44,0.83,0.83,-0.64,-0.88,30.84,40.56,6.48,0.63,0.5,0.54,-2.69,0.92,0.07
817,1900-01-01 17:40:33.097,24.62,16.56,8.56,0.29,0.42,0.88,-0.56,0.27,0.31,26.13,42.79,6.48,0.68,0.44,0.59,-1.25,3.1,1.77
818,1900-01-01 17:40:33.097,25.54,17.2,8.76,0.3,0.43,0.85,0.37,-0.49,0.58,27.55,41.62,6.74,0.65,0.45,0.58,-0.21,1.38,1.37
819,1900-01-01 17:40:33.097,25.2,17.64,9.01,0.3,0.43,0.85,-1.21,2.03,1.82,27.1,42.41,6.94,0.66,0.45,0.57,-0.3,0.88,3.37
820,1900-01-01 17:40:33.097,23.49,17.69,9.44,0.31,0.4,0.88,-0.87,3.01,1.87,25.4,44.25,7.44,0.69,0.42,0.57,-0.58,3.42,4.27
821,1900-01-01 17:40:33.097,24.81,16.74,9.88,0.29,0.42,0.86,-0.29,3.37,1.16,27.76,41.99,8.08,0.66,0.46,0.57,-0.08,2.96,3.5
822,1900-01-01 17:40:33.097,22.04,17.37,10.22,0.3,0.37,0.87,-1.72,5.9,1.01,22.72,45.24,8.6,0.7,0.38,0.58,-1.84,5.47,3.16
823,1900-01-01 17:40:33.097,23.79,14.63,10.53,0.26,0.42,0.91,0.35,0.8,0.52,25.27,42.21,9.07,0.68,0.43,0.61,-0.38,6.5,1.9
824,1900-01-01 17:40:33.097,24.62,15.57,10.77,0.26,0.41,0.85,0.65,1.32,-1.55,23.43,40.46,9.35,0.64,0.39,0.64,-2.01,-0.69,-0.99
825,1900-01-01 17:40:33.097,21.82,14.58,10.69,0.26,0.38,0.92,-1.4,-0.49,-1.92,21.17,45.02,9.19,0.72,0.37,0.62,-2.6,1.18,-0.1
826,1900-01-01 17:40:33.097,24.5,16.13,10.55,0.28,0.42,0.88,-0.98,-1.63,-2.25,25.31,42.28,9.17,0.68,0.43,0.61,-1.35,0.87,-1.5
827,1900-01-01 17:40:33.097,22.83,15.94,10.37,0.28,0.39,0.89,0.11,-1.85,-1.66,24.1,43.49,8.93,0.69,0.41,0.6,-0.56,1.03,-1.83
828,1900-01-01 17:40:33.097,23.03,16.69,10.27,0.29,0.4,0.89,-0.28,-2.63,-2.02,24.62,43.46,8.64,0.7,0.42,0.6,-0.76,-0.4,-2.18
829,1900-01-01 17:40:33.097,24.66,17.13,10.12,0.3,0.42,0.87,-0.62,-3.44,-1.5,27.04,41.54,8.3,0.66,0.45,0.59,-1.58,-0.94,-1.74
830,1900-01-01 17:40:33.097,24.1,15.99,10.05,0.28,0.41,0.87,-1.62,-2.39,-0.66,25.1,42.6,8.03,0.67,0.42,0.59,-2.17,-1.0,-0.18
831,1900-01-01 17:40:33.097,24.09,15.52,10.11,0.27,0.41,0.88,-1.43,-3.16,-0.82,25.02,41.91,7.99,0.66,0.42,0.61,-1.3,-2.46,-1.2
832,1900-01-01 17:40:33.097,23.79,16.8,10.14,0.29,0.4,0.87,-1.04,-3.14,-0.69,24.55,43.46,7.8,0.67,0.4,0.58,-0.92,-0.02,-0.84
833,1900-01-01 17:40:33.097,23.84,16.79,10.2,0.29,0.41,0.88,-2.31,-2.57,-1.47,25.64,43.52,7.66,0.68,0.43,0.58,-1.9,-1.26,-0.39
834,1900-01-01 17:40:33.097,23.5,18.13,10.13,0.31,0.4,0.87,-1.78,-1.88,-1.04,25.83,44.07,7.59,0.69,0.43,0.57,-1.64,-1.02,0.55
835,1900-01-01 17:40:33.097,23.91,18.16,10.13,0.31,0.41,0.86,-0.79,-1.63,-0.77,26.27,44.09,7.67,0.69,0.44,0.56,-0.95,0.24,0.38
836,1900-01-01 17:40:33.139,23.21,18.89,10.17,0.33,0.4,0.87,-0.86,-1.58,-0.91,25.04,45.1,7.72,0.7,0.42,0.56,-0.99,1.05,-0.6
837,1900-01-01 17:40:33.187,24.17,17.77,10.19,0.31,0.41,0.86,-0.11,-0.69,-0.69,25.75,44.14,7.62,0.69,0.43,0.56,-0.56,0.78,0.28
838,1900-01-01 17:40:33.269,22.88,17.61,10.24,0.31,0.4,0.89,-0.56,-1.85,-0.11,24.0,43.79,7.65,0.69,0.41,0.6,-0.87,4.15,-0.29
839,1900-01-01 17:40:33.341,24.69,19.14,10.38,0.32,0.4,0.82,-0.35,0.53,-0.85,29.12,41.12,7.6,0.63,0.47,0.55,-2.2,-0.07,-0.09
840,1900-01-01 17:40:33.428,23.4,17.72,10.41,0.3,0.4,0.86,-2.11,2.65,1.33,25.9,43.23,7.58,0.68,0.44,0.58,-1.5,1.91,4.6
841,1900-01-01 17:40:33.475,23.12,18.05,10.77,0.31,0.4,0.87,-0.79,1.89,1.67,23.28,44.89,8.27,0.7,0.39,0.58,-0.25,1.26,2.42
842,1900-01-01 17:40:33.572,22.46,18.56,11.18,0.33,0.4,0.9,-2.43,2.23,1.94,24.68,45.61,8.63,0.73,0.43,0.58,-1.19,1.02,4.7
843,1900-01-01 17:40:33.616,21.88,18.75,11.64,0.32,0.37,0.87,0.88,0.47,1.77,25.68,44.8,9.33,0.69,0.42,0.55,2.01,2.42,2.69
844,1900-01-01 17:40:35.746,23.4,19.16,12.06,0.32,0.39,0.84,-0.33,3.66,2.45,26.65,44.3,9.73,0.67,0.43,0.54,0.34,4.76,4.09
845,1900-01-01 17:40:35.746,21.13,17.35,12.59,0.3,0.37,0.9,-1.56,5.13,2.24,23.11,45.06,10.34,0.72,0.4,0.6,-0.19,5.92,5.18
846,1900-01-01 17:40:35.746,20.71,16.09,13.09,0.29,0.37,0.92,-0.85,1.53,1.32,21.21,46.51,11.12,0.74,0.37,0.59,-1.24,8.34,3.6
847,1900-01-01 17:40:35.746,23.51,16.75,13.45,0.28,0.39,0.85,1.05,-1.07,-1.68,24.19,43.38,11.66,0.66,0.39,0.57,-0.76,-1.26,-0.44
848,1900-01-01 17:40:35.746,21.24,16.65,13.35,0.29,0.37,0.89,-1.47,0.47,-1.34,21.83,45.63,11.59,0.72,0.37,0.6,-1.02,-0.91,1.27
849,1900-01-01 17:40:35.746,22.24,17.21,13.31,0.3,0.39,0.89,0.8,-1.37,-1.89,23.12,44.64,11.77,0.7,0.39,0.59,0.14,-0.33,-2.54
850,1900-01-01 17:40:35.746,21.95,16.21,13.18,0.28,0.38,0.89,1.11,-2.26,-2.76,22.8,45.32,11.37,0.71,0.39,0.58,-0.49,0.6,-4.3
851,1900-01-01 17:40:35.746,22.56,17.7,12.91,0.31,0.39,0.88,1.18,-1.93,-3.66,24.36,45.07,10.71,0.7,0.41,0.57,-0.92,-0.3,-6.18
852,1900-01-01 17:40:35.746,22.66,17.98,12.51,0.31,0.39,0.88,2.37,-2.11,-4.05,26.34,43.16,9.75,0.69,0.45,0.58,-0.61,-0.64,-6.62
853,1900-01-01 17:40:35.746,21.7,17.75,12.05,0.31,0.37,0.89,0.2,-2.86,-5.45,25.31,45.12,8.73,0.7,0.42,0.56,-1.34,-0.61,-8.15
854,1900-01-01 17:40:35.746,24.13,17.63,11.38,0.31,0.42,0.88,-0.21,-3.04,-3.78,27.37,42.62,7.48,0.68,0.46,0.58,-2.99,-0.05,-4.02
855,1900-01-01 17:40:35.746,24.72,17.32,10.96,0.3,0.42,0.86,0.4,-2.71,-3.08,28.05,42.0,6.85,0.66,0.47,0.57,-2.21,-1.36,-2.87
856,1900-01-01 17:40:35.746,24.08,17.99,10.65,0.32,0.42,0.88,-1.16,-2.15,-2.22,27.01,43.07,6.41,0.69,0.46,0.58,-2.46,-0.73,-0.47
857,1900-01-01 17:40:35.746,23.43,18.51,10.46,0.32,0.4,0.87,-1.16,-3.32,-2.49,26.57,45.04,6.33,0.7,0.44,0.54,-1.94,-0.54,-1.89
858,1900-01-01 17:40:35.746,25.11,18.24,10.24,0.31,0.43,0.85,-1.27,-2.27,-2.09,27.52,42.09,6.03,0.66,0.46,0.58,-2.34,-2.33,-0.92
859,1900-01-01 17:40:35.746,24.68,18.43,10.08,0.31,0.41,0.84,-0.23,-3.82,-3.15,28.0,42.56,5.88,0.66,0.46,0.55,-1.7,-0.71,-3.61
860,1900-01-01 17:40:35.746,24.4,19.32,9.76,0.33,0.41,0.85,0.08,-2.55,-2.12,28.56,43.53,5.32,0.68,0.47,0.54,-0.69,-0.64,-1.49
861,1900-01-01 17:40:35.746,23.86,18.95,9.59,0.32,0.4,0.85,0.24,-1.97,-2.85,28.99,41.87,5.08,0.66,0.48,0.56,-1.15,0.67,-1.56
862,1900-01-01 17:40:35.746,25.78,19.17,9.31,0.33,0.44,0.84,-1.32,0.01,-1.18,30.01,43.04,4.84,0.67,0.49,0.52,-1.41,3.27,1.69
863,1900-01-01 17:40:35.746,23.86,19.09,9.29,0.33,0.41,0.87,-1.63,-0.4,-1.47,27.92,42.55,5.08,0.68,0.47,0.57,-2.18,5.5,-0.46
864,1900-01-01 17:40:35.746,26.13,20.35,9.23,0.34,0.43,0.81,1.02,1.14,-0.63,29.71,40.71,5.01,0.62,0.47,0.54,-2.82,0.23,-0.2
865,1900-01-01 17:40:35.746,24.15,18.34,9.29,0.32,0.41,0.87,-4.31,2.72,0.1,25.52,44.53,4.97,0.7,0.43,0.57,-5.09,0.01,4.02
866,1900-01-01 17:40:35.746,23.25,19.04,9.46,0.33,0.4,0.87,-0.25,-0.42,-0.79,26.76,43.52,5.57,0.7,0.46,0.57,-1.02,1.69,-0.24
867,1900-01-01 17:40:35.746,24.79,19.03,9.5,0.33,0.43,0.87,-0.4,0.03,0.11,27.59,42.66,5.52,0.68,0.46,0.57,-0.32,0.59,1.05
868,1900-01-01 17:40:35.746,24.3,18.95,9.68,0.32,0.41,0.85,0.54,-0.06,0.82,28.3,42.59,5.67,0.67,0.47,0.56,0.43,1.49,1.32
869,1900-01-01 17:40:35.746,24.67,19.22,9.96,0.33,0.42,0.85,-0.5,1.47,2.14,29.11,42.58,5.86,0.66,0.48,0.54,-0.39,3.97,2.95
870,1900-01-01 17:40:35.746,24.66,18.24,10.44,0.32,0.42,0.87,-2.49,4.34,4.18,26.24,43.28,6.3,0.68,0.44,0.57,-1.6,4.31,7.25
871,1900-01-01 17:40:35.801,22.26,18.56,11.23,0.32,0.38,0.88,-1.75,4.04,3.11,25.4,44.87,7.39,0.7,0.42,0.56,-2.95,6.11,7.21
872,1900-01-01 17:40:35.827,23.78,20.74,11.86,0.36,0.41,0.86,-0.94,4.21,3.9,27.38,42.21,8.48,0.68,0.47,0.59,0.73,5.37,10.57
873,1900-01-01 17:40:35.905,21.3,18.49,12.62,0.33,0.38,0.91,-1.15,1.91,4.98,23.52,45.62,10.08,0.73,0.41,0.58,2.08,4.54,5.87
874,1900-01-01 17:40:35.994,20.29,17.62,13.53,0.3,0.35,0.89,-2.17,1.4,3.73,22.01,45.34,10.96,0.71,0.37,0.59,0.84,0.34,5.53
875,1900-01-01 17:40:36.142,22.39,17.62,14.25,0.31,0.39,0.9,-1.2,-0.27,2.89,24.3,45.16,11.79,0.72,0.42,0.58,1.5,-0.08,5.78
876,1900-01-01 17:40:36.142,21.53,17.82,14.85,0.31,0.37,0.89,0.06,0.04,2.62,22.83,44.75,12.67,0.71,0.39,0.6,1.41,0.27,3.9
877,1900-01-01 17:40:36.238,19.87,17.64,15.41,0.3,0.34,0.88,0.46,-0.56,1.15,20.78,46.36,13.25,0.7,0.35,0.58,0.56,-0.11,1.53
878,1900-01-01 17:40:36.272,20.25,16.94,15.74,0.29,0.34,0.89,-1.08,0.4,-1.55,20.97,46.84,13.47,0.72,0.35,0.57,-2.18,-0.47,-0.14
879,1900-01-01 17:40:36.365,22.26,18.93,15.66,0.34,0.39,0.9,-1.44,1.57,-2.69,24.49,45.93,13.44,0.72,0.42,0.56,-5.47,3.96,0.02
880,1900-01-01 17:40:36.458,22.06,16.66,15.41,0.29,0.38,0.9,-2.77,4.51,-5.37,22.22,45.43,13.44,0.71,0.37,0.59,-6.53,2.24,-0.82
881,1900-01-01 17:40:36.506,21.75,16.07,14.75,0.29,0.39,0.92,-2.6,1.78,-8.95,21.64,46.46,13.3,0.74,0.38,0.6,-10.05,7.21,-0.63
882,1900-01-01 17:40:36.614,21.53,16.58,13.54,0.28,0.36,0.88,3.04,-2.27,-8.3,19.04,44.75,13.2,0.69,0.32,0.62,-4.98,4.92,-5.97
883,1900-01-01 17:40:36.692,20.61,15.06,12.43,0.26,0.35,0.9,-2.64,-1.33,-4.92,19.9,43.45,12.28,0.68,0.34,0.63,-6.65,11.53,-1.72
884,1900-01-01 17:40:36.740,21.7,17.91,11.83,0.31,0.37,0.88,-2.39,1.44,-2.82,22.32,42.74,12.01,0.68,0.38,0.63,-6.61,2.18,-6.42
885,1900-01-01 17:40:36.832,21.74,17.33,11.56,0.3,0.37,0.88,-4.43,2.95,-3.04,25.35,42.41,11.02,0.65,0.41,0.58,-9.79,7.16,-7.61
886,1900-01-01 17:40:36.925,20.93,15.15,11.25,0.26,0.35,0.88,-0.4,3.19,-2.07,22.15,39.36,9.84,0.62,0.37,0.66,-0.75,6.59,-3.0
887,1900-01-01 17:40:36.970,19.02,13.23,11.09,0.23,0.32,0.91,-0.4,0.63,-2.55,18.14,40.94,9.38,0.65,0.31,0.68,-0.52,-2.47,-5.15
888,1900-01-01 17:40:37.091,22.66,14.07,10.86,0.25,0.39,0.9,4.02,-1.78,-3.24,23.08,38.07,8.58,0.61,0.39,0.68,0.24,-0.2,-2.82
889,1900-01-01 17:40:37.159,21.04,13.16,10.53,0.23,0.36,0.91,3.26,-0.06,-4.6,20.44,40.27,8.14,0.64,0.34,0.67,1.08,0.82,-1.15
890,1900-01-01 17:40:37.207,23.31,14.14,9.99,0.24,0.4,0.88,1.31,1.79,-4.88,23.83,40.14,7.96,0.63,0.39,0.63,-1.64,0.64,-0.21
891,1900-01-01 17:40:37.303,22.96,12.78,9.4,0.22,0.39,0.89,2.12,2.21,-2.67,22.2,39.61,7.92,0.64,0.38,0.67,2.63,0.92,-1.55
892,1900-01-01 17:40:37.349,22.3,13.02,9.16,0.21,0.36,0.85,3.78,-1.78,1.57,22.85,39.02,7.68,0.59,0.37,0.63,7.15,-0.11,-1.21
893,1900-01-01 17:40:37.443,23.77,14.75,9.56,0.25,0.4,0.87,1.36,-2.95,3.45,25.24,41.24,7.48,0.64,0.42,0.6,4.79,-4.02,3.47
894,1900-01-01 17:40:37.546,25.77,16.64,10.24,0.3,0.45,0.89,3.01,-2.92,3.24,25.81,42.11,8.0,0.69,0.45,0.62,5.7,-7.53,1.55
895,1900-01-01 17:40:37.582,26.88,15.27,10.89,0.27,0.46,0.87,6.95,-4.34,2.66,26.97,41.78,8.23,0.67,0.46,0.59,9.61,-8.26,-3.88
896,1900-01-01 17:40:37.675,26.5,14.38,11.45,0.26,0.46,0.89,4.31,-4.8,1.56,26.96,43.78,7.63,0.7,0.46,0.57,3.43,-1.78,-1.83
897,1900-01-01 17:40:37.722,26.1,16.54,11.85,0.29,0.45,0.87,1.73,-4.88,-0.39,28.29,43.01,7.34,0.69,0.48,0.56,0.69,-0.34,-1.34
898,1900-01-01 17:40:37.813,27.13,17.29,11.95,0.3,0.46,0.85,0.48,-2.57,-1.53,28.72,42.91,7.13,0.67,0.47,0.55,0.19,4.98,-0.47
899,1900-01-01 17:40:37.908,26.39,16.0,11.87,0.28,0.44,0.85,-0.79,-1.76,-1.8,27.22,43.44,7.05,0.67,0.45,0.55,-1.7,1.73,-0.74
900,1900-01-01 17:40:37.956,28.25,18.58,11.76,0.31,0.46,0.8,0.55,0.45,-3.37,31.72,41.04,6.93,0.63,0.51,0.52,-2.33,2.53,-1.54
901,1900-01-01 17:40:38.080,27.38,16.29,11.4,0.29,0.47,0.87,-1.01,1.67,-2.24,27.63,41.95,6.69,0.69,0.48,0.6,-2.94,2.51,-0.06
902,1900-01-01 17:40:38.143,27.02,16.86,11.22,0.29,0.45,0.84,2.45,-0.27,-3.72,30.34,40.38,6.67,0.65,0.5,0.57,-1.62,3.09,-2.68
903,1900-01-01 17:40:38.188,28.11,17.69,10.81,0.31,0.48,0.85,0.11,0.31,-2.9,29.53,41.43,6.25,0.67,0.5,0.57,-3.05,2.53,-1.59
904,1900-01-01 17:40:38.281,27.76,16.9,10.53,0.3,0.47,0.85,0.71,1.45,-2.67,30.41,39.91,6.0,0.65,0.51,0.58,-2.58,2.4,-1.03
905,1900-01-01 17:40:38.379,28.71,16.21,10.28,0.28,0.48,0.83,-1.0,2.02,-1.5,29.25,40.31,5.84,0.64,0.48,0.58,-3.21,2.17,0.36
906,1900-01-01 17:40:38.419,27.23,15.29,10.21,0.26,0.46,0.85,-0.32,1.77,-1.82,27.43,40.93,5.88,0.65,0.46,0.59,-1.97,2.53,-0.63
907,1900-01-01 17:40:38.513,27.04,15.22,10.09,0.26,0.45,0.85,-0.85,0.15,-3.1,28.55,40.6,5.78,0.64,0.47,0.58,-2.39,2.12,-0.78
908,1900-01-01 17:40:38.559,27.96,16.28,9.77,0.28,0.47,0.84,-1.01,0.09,-2.85,28.97,40.57,5.65,0.65,0.48,0.58,-2.76,2.15,-1.18
909,1900-01-01 17:40:38.653,27.62,14.81,9.5,0.26,0.47,0.87,-0.61,-1.17,-2.59,27.69,40.46,5.46,0.65,0.47,0.61,-2.27,1.98,-1.21
910,1900-01-01 17:40:38.746,27.78,15.42,9.26,0.27,0.47,0.84,0.48,-1.39,-2.71,28.3,40.2,5.27,0.63,0.47,0.59,-1.75,2.06,-2.5
911,1900-01-01 17:40:38.794,28.05,14.91,9.01,0.26,0.47,0.85,-0.47,-0.74,-2.43,28.11,39.55,4.88,0.63,0.47,0.61,-1.66,1.92,-1.0
912,1900-01-01 17:40:38.887,28.53,14.87,8.8,0.26,0.48,0.85,1.08,-1.42,-2.56,31.01,37.79,4.72,0.61,0.52,0.6,-0.69,1.86,-1.85
913,1900-01-01 17:40:38.983,28.38,14.93,8.57,0.26,0.49,0.86,-0.66,-1.22,-1.29,28.14,39.69,4.43,0.64,0.47,0.61,-1.18,0.59,-0.89
914,1900-01-01 17:40:39.026,28.86,14.8,8.53,0.26,0.49,0.85,-1.8,-1.36,-1.38,29.0,38.7,4.28,0.62,0.48,0.61,-2.57,0.38,0.46
915,1900-01-01 17:40:39.120,28.5,15.42,8.48,0.27,0.48,0.84,-0.96,-1.62,-1.49,29.81,39.32,4.34,0.62,0.49,0.58,-2.22,0.56,0.02
916,1900-01-01 17:40:39.174,28.45,16.47,8.41,0.28,0.47,0.83,-1.18,-0.91,-1.47,30.43,38.69,4.34,0.62,0.5,0.59,-1.92,0.97,-0.28
917,1900-01-01 17:40:39.259,28.47,15.87,8.34,0.27,0.47,0.82,-0.62,-0.69,-1.04,29.67,38.62,4.29,0.6,0.48,0.58,-1.13,0.77,-0.61
918,1900-01-01 17:40:39.352,28.8,15.87,8.34,0.27,0.48,0.83,-0.2,-0.3,-1.03,29.52,39.56,4.19,0.62,0.48,0.58,-1.32,0.32,-0.64
919,1900-01-01 17:40:39.400,27.78,15.28,8.34,0.26,0.47,0.85,-0.5,-0.08,-1.37,28.73,39.36,4.08,0.63,0.47,0.6,-1.27,1.28,-0.76
920,1900-01-01 17:40:39.499,27.99,15.22,8.29,0.26,0.47,0.85,-0.36,0.4,-1.92,29.06,38.92,3.95,0.62,0.48,0.6,-2.09,1.46,0.08
921,1900-01-01 17:40:39.551,28.29,15.95,8.16,0.28,0.48,0.85,-1.26,0.5,-1.6,29.8,39.42,3.96,0.64,0.5,0.59,-2.38,1.88,0.31
922,1900-01-01 17:40:39.648,28.36,15.23,8.08,0.27,0.48,0.85,-0.94,0.03,-1.02,28.92,39.47,4.0,0.63,0.48,0.6,-2.28,1.15,0.42
923,1900-01-01 17:40:39.729,28.16,14.92,8.08,0.26,0.47,0.84,-1.03,0.02,-1.15,28.77,39.24,4.05,0.62,0.47,0.6,-1.95,1.18,0.34
924,1900-01-01 17:40:39.775,27.62,15.02,8.07,0.26,0.47,0.85,-1.21,-0.05,-1.43,28.02,39.78,4.09,0.64,0.47,0.61,-2.14,1.01,0.55
925,1900-01-01 17:40:39.880,27.97,15.37,8.01,0.27,0.48,0.86,-0.86,-0.96,-1.29,28.38,39.44,4.17,0.63,0.47,0.61,-2.04,0.78,-0.08
926,1900-01-01 17:40:39.936,28.26,14.75,7.97,0.25,0.47,0.84,-0.86,-0.85,-1.31,28.59,38.89,4.15,0.62,0.47,0.6,-1.82,0.5,-0.09
927,1900-01-01 17:40:40.020,28.27,15.4,7.93,0.27,0.48,0.84,-1.31,-0.4,-1.18,28.51,39.36,4.13,0.63,0.47,0.6,-2.22,1.0,0.27
928,1900-01-01 17:40:40.122,27.91,15.47,7.91,0.27,0.47,0.84,-0.67,-0.44,-0.97,28.27,39.76,4.16,0.63,0.47,0.6,-1.63,0.82,0.2
929,1900-01-01 17:40:40.197,29.21,16.07,7.92,0.28,0.49,0.83,-1.72,-1.34,-1.1,29.96,37.87,4.18,0.6,0.49,0.6,-4.28,-1.21,-1.01
930,1900-01-01 17:40:40.244,30.33,15.67,7.91,0.29,0.53,0.87,-25.92,0.53,2.66,28.55,40.68,4.02,0.64,0.47,0.58,-26.31,-3.21,19.37
931,1900-01-01 17:40:40.337,22.25,15.58,8.47,0.27,0.38,0.9,0.82,-0.05,2.94,17.37,45.95,6.97,0.71,0.3,0.62,0.32,8.9,4.49
932,1900-01-01 17:40:40.401,21.73,15.38,9.08,0.26,0.36,0.87,-0.56,-1.02,-0.92,22.15,41.71,7.64,0.66,0.37,0.64,3.35,6.18,3.18
933,1900-01-01 17:40:40.504,23.4,14.94,9.1,0.26,0.4,0.89,-1.63,-2.61,-0.82,21.73,40.54,8.11,0.66,0.38,0.68,1.66,0.63,4.29
934,1900-01-01 17:40:40.568,24.33,15.45,9.13,0.27,0.42,0.88,-1.22,-2.32,-0.43,24.86,40.99,8.76,0.65,0.42,0.62,-0.27,-2.34,1.98
935,1900-01-01 17:40:40.616,21.81,16.15,9.22,0.28,0.37,0.88,-2.08,-0.29,-0.24,20.64,43.67,9.05,0.68,0.35,0.62,-0.37,-1.76,0.63
936,1900-01-01 17:40:40.712,23.97,16.07,9.35,0.28,0.41,0.88,-2.06,-0.89,-0.5,22.72,42.21,9.14,0.66,0.38,0.62,-1.35,-0.77,0.45
937,1900-01-01 17:40:40.805,23.38,16.58,9.43,0.29,0.4,0.88,-0.73,-0.56,-0.57,23.41,43.93,9.2,0.69,0.39,0.6,-0.47,-2.63,-2.51
938,1900-01-01 17:40:40.852,22.69,16.87,9.5,0.29,0.39,0.88,-0.2,-1.54,-0.73,22.45,43.23,8.8,0.68,0.38,0.62,-1.04,-1.16,-0.63
939,1900-01-01 17:40:40.945,23.68,16.9,9.55,0.3,0.41,0.88,-1.05,-1.74,-0.6,24.04,42.74,8.7,0.68,0.41,0.61,-1.24,-1.09,0.76
940,1900-01-01 17:40:41.061,22.45,15.58,9.61,0.27,0.39,0.9,-2.22,-1.01,1.05,22.58,44.04,8.81,0.7,0.39,0.61,0.73,-0.47,3.76
941,1900-01-01 17:40:41.107,21.7,17.1,9.93,0.3,0.37,0.89,-2.04,0.3,0.46,20.47,46.29,9.37,0.71,0.35,0.59,-0.57,1.05,1.73
942,1900-01-01 17:40:41.180,23.22,16.98,10.16,0.29,0.39,0.86,1.34,-0.87,-1.27,22.96,43.68,9.62,0.68,0.38,0.6,0.33,-1.26,-3.88
943,1900-01-01 17:40:41.227,23.25,17.6,10.12,0.3,0.4,0.87,-1.06,-2.99,-2.14,24.78,44.16,9.02,0.69,0.41,0.58,-0.99,-1.4,-1.83
944,1900-01-01 17:40:41.319,23.29,17.69,9.96,0.3,0.4,0.87,1.21,-1.6,-0.76,25.39,44.92,8.73,0.7,0.42,0.56,-0.42,0.02,-2.06
945,1900-01-01 17:40:41.417,23.1,16.91,10.0,0.29,0.39,0.87,1.39,-0.42,-0.37,24.74,43.37,8.41,0.67,0.41,0.58,0.58,0.66,0.37
946,1900-01-01 17:40:41.459,22.42,16.84,10.1,0.29,0.38,0.87,-0.69,1.18,0.21,23.07,45.4,8.46,0.7,0.39,0.57,-0.47,1.08,0.76
947,1900-01-01 17:40:41.552,22.73,18.13,10.29,0.31,0.39,0.87,-1.08,1.17,-0.46,24.72,45.64,8.57,0.7,0.41,0.55,-0.18,-1.4,1.1
948,1900-01-01 17:40:41.646,22.36,17.5,10.38,0.3,0.38,0.88,0.73,0.5,-0.63,23.87,45.22,8.73,0.71,0.4,0.57,0.77,0.77,-0.4
949,1900-01-01 17:40:41.691,23.1,17.05,10.45,0.29,0.39,0.87,0.17,0.82,-0.53,24.46,45.07,8.66,0.7,0.41,0.57,-0.92,0.73,0.03
950,1900-01-01 17:40:41.785,21.68,17.15,10.52,0.3,0.37,0.89,0.24,0.44,-0.91,22.77,46.45,8.65,0.73,0.39,0.57,-1.47,1.1,-0.79
951,1900-01-01 17:40:41.833,22.93,17.54,10.54,0.31,0.4,0.88,-0.08,0.14,-1.6,25.2,45.42,8.53,0.72,0.43,0.56,-1.38,1.18,-0.51
952,1900-01-01 17:40:41.924,22.97,17.3,10.46,0.3,0.39,0.87,0.47,-0.11,-1.42,24.95,45.18,8.44,0.7,0.41,0.55,-0.79,1.57,-0.69
953,1900-01-01 17:40:42.018,22.72,16.87,10.4,0.29,0.39,0.87,0.15,0.76,-1.38,24.13,45.18,8.33,0.7,0.4,0.57,-1.05,1.51,-0.55
954,1900-01-01 17:40:42.065,22.67,16.64,10.35,0.29,0.38,0.87,0.17,0.75,-1.93,24.3,45.43,8.23,0.7,0.41,0.56,-0.82,1.82,-0.53
955,1900-01-01 17:40:42.158,23.36,17.21,10.21,0.3,0.41,0.89,-0.64,0.93,-2.03,25.29,45.11,8.14,0.73,0.44,0.57,-1.93,1.76,-0.05
956,1900-01-01 17:40:42.258,23.2,16.55,10.06,0.29,0.4,0.89,-0.79,0.23,-0.63,24.08,45.27,8.13,0.71,0.41,0.57,-1.44,1.67,0.27
957,1900-01-01 17:40:42.297,23.63,16.21,10.12,0.28,0.4,0.86,-0.21,-0.05,-1.23,24.81,45.03,8.16,0.69,0.41,0.55,-1.17,1.21,-0.36
958,1900-01-01 17:40:42.389,23.5,16.69,10.1,0.29,0.4,0.88,-0.34,0.53,-1.27,24.35,45.08,8.1,0.71,0.41,0.57,-1.58,1.95,-0.07
959,1900-01-01 17:40:42.435,23.38,16.37,10.06,0.29,0.4,0.89,-0.46,-0.17,-1.25,24.74,44.93,8.08,0.71,0.42,0.57,-1.46,2.37,-0.11
960,1900-01-01 17:40:42.531,23.26,15.21,10.03,0.27,0.41,0.92,-1.7,-1.05,0.25,24.46,45.06,8.05,0.73,0.43,0.59,-2.82,4.57,1.2
961,1900-01-01 17:40:42.624,24.63,16.9,10.22,0.28,0.4,0.84,1.27,-0.3,-0.99,26.35,42.74,8.23,0.64,0.42,0.56,-1.3,-0.08,-1.4
